"text","rt","key_press","block_duration","timing_post_trial","trial_id","trial_type","trial_index","time_elapsed","internal_node_id","exp_id","full_screen","focus_shifts","view_history","correct","stimulus","correct_response","possible_responses","stim_duration","feedback_duration","exp_stage","condition","trial_num","mode","responses","payment_id","credit_var"
"<div class = centerbox><p class = center-block-text>Welcome to the experiment. This task will take around 10 minutes. Press <strong>enter</strong> to begin.</p></div>","4239","13","4239","0","instruction","poldrack-text","0","4243","0.0-0.0-0.0","go-nogo","true","0","","","","","","","","","","","","","",""
"","7842","","","","instruction","poldrack-instructions","1","12087","0.0-0.0-1.0","go-nogo","true","0","[{""page_index"":0,""viewing_time"":7841}]","","","","","","","","","","","","",""
"","-1","-1","1383","250","practice","poldrack-categorize","2","15477","0.0-1.0-0.0","go-nogo","true","0","","false","<div class = centerbox><div  id = stim2></div></div>","32","32","750","1000","practice","go","0","random","","",""
"","-1","-1","1448","250","practice","poldrack-categorize","3","18180","0.0-1.0-1.0","go-nogo","true","0","","true","<div class = centerbox><div id = stim1></div></div>","-1","32","750","1000","practice","nogo","1","random","","",""
"","-1","-1","1098","250","practice","poldrack-categorize","4","20578","0.0-1.0-2.0","go-nogo","true","0","","true","<div class = centerbox><div id = stim1></div></div>","-1","32","750","1000","practice","nogo","2","random","","",""
"","-1","-1","1323","250","practice","poldrack-categorize","5","23168","0.0-1.0-3.0","go-nogo","true","0","","false","<div class = centerbox><div  id = stim2></div></div>","32","32","750","1000","practice","go","3","random","","",""
"","-1","-1","1151","250","practice","poldrack-categorize","6","25572","0.0-1.0-4.0","go-nogo","true","0","","false","<div class = centerbox><div  id = stim2></div></div>","32","32","750","1000","practice","go","4","random","","",""
"","-1","-1","1332","250","practice","poldrack-categorize","7","28161","0.0-1.0-5.0","go-nogo","true","0","","false","<div class = centerbox><div  id = stim2></div></div>","32","32","750","1000","practice","go","5","random","","",""
"","-1","-1","1247","250","practice","poldrack-categorize","8","30661","0.0-1.0-6.0","go-nogo","true","0","","true","<div class = centerbox><div id = stim1></div></div>","-1","32","750","1000","practice","nogo","6","random","","",""
"","-1","-1","1350","250","practice","poldrack-categorize","9","33280","0.0-1.0-7.0","go-nogo","true","0","","true","<div class = centerbox><div id = stim1></div></div>","-1","32","750","1000","practice","nogo","7","random","","",""
"","-1","-1","1150","250","practice","poldrack-categorize","10","35683","0.0-1.0-8.0","go-nogo","true","0","","false","<div class = centerbox><div  id = stim2></div></div>","32","32","750","1000","practice","go","8","random","","",""
"","-1","-1","1223","250","practice","poldrack-categorize","11","38159","0.0-1.0-9.0","go-nogo","true","0","","true","<div class = centerbox><div id = stim1></div></div>","-1","32","750","1000","practice","nogo","9","random","","",""
"","","","","","reset_trial","call-function","12","38409","0.0-3.0","go-nogo","true","0","","","","","","","","","","","","","",""
"<div class = centerbox><p class = block-text>Practice is over, we will now begin the experiment. You will no longer get feedback about your responses.</p><p class = block-text>Remember, if you see the <font color=""blue"">blue</font> square you should <strong> respond by pressing the spacebar as quickly as possible</strong>. If you see the <font color=""orange"">orange</font> square you should <strong> not respond</strong>. Press <strong>enter</strong> to begin.</p></div>","145953","13","145953","1000","test_intro","poldrack-text","13","184366","0.0-4.0","go-nogo","true","1","","","","","","","","","","","","","",""
"","-1","-1","1415","0","test_block","poldrack-single-stim","14","186783","0.0-5.0-0.0","go-nogo","true","0","","false","<div class = centerbox><div  id = stim2></div></div>","32","32","750","","test","go","0","random","","",""
"","-1","-1","1212","0","test_block","poldrack-single-stim","15","188055","0.0-5.0-1.0","go-nogo","true","0","","false","<div class = centerbox><div  id = stim2></div></div>","32","32","750","","test","go","1","random","","",""
"","-1","-1","1454","0","test_block","poldrack-single-stim","16","189559","0.0-5.0-2.0","go-nogo","true","0","","true","<div class = centerbox><div  id = stim1></div></div>","-1","32","750","","test","nogo","2","random","","",""
"","-1","-1","1239","0","test_block","poldrack-single-stim","17","190817","0.0-5.0-3.0","go-nogo","true","0","","false","<div class = centerbox><div  id = stim2></div></div>","32","32","750","","test","go","3","random","","",""
"","-1","-1","1358","0","test_block","poldrack-single-stim","18","192190","0.0-5.0-4.0","go-nogo","true","0","","false","<div class = centerbox><div  id = stim2></div></div>","32","32","750","","test","go","4","random","","",""
"","-1","-1","1471","0","test_block","poldrack-single-stim","19","193678","0.0-5.0-5.0","go-nogo","true","0","","false","<div class = centerbox><div  id = stim2></div></div>","32","32","750","","test","go","5","random","","",""
"","-1","-1","1371","0","test_block","poldrack-single-stim","20","195085","0.0-5.0-6.0","go-nogo","true","0","","false","<div class = centerbox><div  id = stim2></div></div>","32","32","750","","test","go","6","random","","",""
"","-1","-1","1129","0","test_block","poldrack-single-stim","21","196235","0.0-5.0-7.0","go-nogo","true","0","","false","<div class = centerbox><div  id = stim2></div></div>","32","32","750","","test","go","7","random","","",""
"","-1","-1","1286","0","test_block","poldrack-single-stim","22","197536","0.0-5.0-8.0","go-nogo","true","0","","false","<div class = centerbox><div  id = stim2></div></div>","32","32","750","","test","go","8","random","","",""
"","-1","-1","1380","0","test_block","poldrack-single-stim","23","198930","0.0-5.0-9.0","go-nogo","true","0","","false","<div class = centerbox><div  id = stim2></div></div>","32","32","750","","test","go","9","random","","",""
"","-1","-1","1492","0","test_block","poldrack-single-stim","24","200452","0.0-5.0-10.0","go-nogo","true","0","","false","<div class = centerbox><div  id = stim2></div></div>","32","32","750","","test","go","10","random","","",""
"","-1","-1","1374","0","test_block","poldrack-single-stim","25","201862","0.0-5.0-11.0","go-nogo","true","0","","false","<div class = centerbox><div  id = stim2></div></div>","32","32","750","","test","go","11","random","","",""
"","-1","-1","1498","0","test_block","poldrack-single-stim","26","203372","0.0-5.0-12.0","go-nogo","true","0","","false","<div class = centerbox><div  id = stim2></div></div>","32","32","750","","test","go","12","random","","",""
"","-1","-1","1478","0","test_block","poldrack-single-stim","27","204863","0.0-5.0-13.0","go-nogo","true","0","","false","<div class = centerbox><div  id = stim2></div></div>","32","32","750","","test","go","13","random","","",""
"","-1","-1","1045","0","test_block","poldrack-single-stim","28","205939","0.0-5.0-14.0","go-nogo","true","0","","false","<div class = centerbox><div  id = stim2></div></div>","32","32","750","","test","go","14","random","","",""
"","-1","-1","1227","0","test_block","poldrack-single-stim","29","207183","0.0-5.0-15.0","go-nogo","true","0","","false","<div class = centerbox><div  id = stim2></div></div>","32","32","750","","test","go","15","random","","",""
"","-1","-1","1078","0","test_block","poldrack-single-stim","30","208326","0.0-5.0-16.0","go-nogo","true","0","","false","<div class = centerbox><div  id = stim2></div></div>","32","32","750","","test","go","16","random","","",""
"","-1","-1","1485","0","test_block","poldrack-single-stim","31","209821","0.0-5.0-17.0","go-nogo","true","0","","false","<div class = centerbox><div  id = stim2></div></div>","32","32","750","","test","go","17","random","","",""
"","-1","-1","1092","0","test_block","poldrack-single-stim","32","210939","0.0-5.0-18.0","go-nogo","true","0","","false","<div class = centerbox><div  id = stim2></div></div>","32","32","750","","test","go","18","random","","",""
"","-1","-1","1115","0","test_block","poldrack-single-stim","33","212065","0.0-5.0-19.0","go-nogo","true","0","","false","<div class = centerbox><div  id = stim2></div></div>","32","32","750","","test","go","19","random","","",""
"","-1","-1","1319","0","test_block","poldrack-single-stim","34","213393","0.0-5.0-20.0","go-nogo","true","0","","false","<div class = centerbox><div  id = stim2></div></div>","32","32","750","","test","go","20","random","","",""
"","-1","-1","1323","0","test_block","poldrack-single-stim","35","214726","0.0-5.0-21.0","go-nogo","true","0","","false","<div class = centerbox><div  id = stim2></div></div>","32","32","750","","test","go","21","random","","",""
"","-1","-1","1470","0","test_block","poldrack-single-stim","36","216204","0.0-5.0-22.0","go-nogo","true","0","","false","<div class = centerbox><div  id = stim2></div></div>","32","32","750","","test","go","22","random","","",""
"","-1","-1","1375","0","test_block","poldrack-single-stim","37","217613","0.0-5.0-23.0","go-nogo","true","0","","false","<div class = centerbox><div  id = stim2></div></div>","32","32","750","","test","go","23","random","","",""
"","-1","-1","1043","0","test_block","poldrack-single-stim","38","218666","0.0-5.0-24.0","go-nogo","true","0","","false","<div class = centerbox><div  id = stim2></div></div>","32","32","750","","test","go","24","random","","",""
"","-1","-1","1195","0","test_block","poldrack-single-stim","39","219870","0.0-5.0-25.0","go-nogo","true","0","","false","<div class = centerbox><div  id = stim2></div></div>","32","32","750","","test","go","25","random","","",""
"","-1","-1","1439","0","test_block","poldrack-single-stim","40","221318","0.0-5.0-26.0","go-nogo","true","0","","false","<div class = centerbox><div  id = stim2></div></div>","32","32","750","","test","go","26","random","","",""
"","-1","-1","1033","0","test_block","poldrack-single-stim","41","222359","0.0-5.0-27.0","go-nogo","true","0","","false","<div class = centerbox><div  id = stim2></div></div>","32","32","750","","test","go","27","random","","",""
"","-1","-1","1057","0","test_block","poldrack-single-stim","42","223426","0.0-5.0-28.0","go-nogo","true","0","","false","<div class = centerbox><div  id = stim2></div></div>","32","32","750","","test","go","28","random","","",""
"","-1","-1","1499","0","test_block","poldrack-single-stim","43","224934","0.0-5.0-29.0","go-nogo","true","0","","false","<div class = centerbox><div  id = stim2></div></div>","32","32","750","","test","go","29","random","","",""
"","-1","-1","1371","0","test_block","poldrack-single-stim","44","226319","0.0-5.0-30.0","go-nogo","true","0","","false","<div class = centerbox><div  id = stim2></div></div>","32","32","750","","test","go","30","random","","",""
"","-1","-1","1351","0","test_block","poldrack-single-stim","45","227680","0.0-5.0-31.0","go-nogo","true","0","","false","<div class = centerbox><div  id = stim2></div></div>","32","32","750","","test","go","31","random","","",""
"","-1","-1","1086","0","test_block","poldrack-single-stim","46","228774","0.0-5.0-32.0","go-nogo","true","0","","false","<div class = centerbox><div  id = stim2></div></div>","32","32","750","","test","go","32","random","","",""
"","-1","-1","1434","0","test_block","poldrack-single-stim","47","230217","0.0-5.0-33.0","go-nogo","true","0","","false","<div class = centerbox><div  id = stim2></div></div>","32","32","750","","test","go","33","random","","",""
"","-1","-1","1105","0","test_block","poldrack-single-stim","48","231337","0.0-5.0-34.0","go-nogo","true","0","","false","<div class = centerbox><div  id = stim2></div></div>","32","32","750","","test","go","34","random","","",""
"","-1","-1","1370","0","test_block","poldrack-single-stim","49","232732","0.0-5.0-35.0","go-nogo","true","0","","false","<div class = centerbox><div  id = stim2></div></div>","32","32","750","","test","go","35","random","","",""
"","-1","-1","1355","0","test_block","poldrack-single-stim","50","234096","0.0-5.0-36.0","go-nogo","true","0","","false","<div class = centerbox><div  id = stim2></div></div>","32","32","750","","test","go","36","random","","",""
"","-1","-1","1464","0","test_block","poldrack-single-stim","51","235568","0.0-5.0-37.0","go-nogo","true","0","","false","<div class = centerbox><div  id = stim2></div></div>","32","32","750","","test","go","37","random","","",""
"","-1","-1","1377","0","test_block","poldrack-single-stim","52","236953","0.0-5.0-38.0","go-nogo","true","0","","false","<div class = centerbox><div  id = stim2></div></div>","32","32","750","","test","go","38","random","","",""
"","-1","-1","1271","0","test_block","poldrack-single-stim","53","238238","0.0-5.0-39.0","go-nogo","true","0","","false","<div class = centerbox><div  id = stim2></div></div>","32","32","750","","test","go","39","random","","",""
"","-1","-1","1064","0","test_block","poldrack-single-stim","54","239319","0.0-5.0-40.0","go-nogo","true","0","","false","<div class = centerbox><div  id = stim2></div></div>","32","32","750","","test","go","40","random","","",""
"","-1","-1","1342","0","test_block","poldrack-single-stim","55","240677","0.0-5.0-41.0","go-nogo","true","0","","false","<div class = centerbox><div  id = stim2></div></div>","32","32","750","","test","go","41","random","","",""
"","-1","-1","1118","0","test_block","poldrack-single-stim","56","241805","0.0-5.0-42.0","go-nogo","true","0","","false","<div class = centerbox><div  id = stim2></div></div>","32","32","750","","test","go","42","random","","",""
"","-1","-1","1056","0","test_block","poldrack-single-stim","57","242870","0.0-5.0-43.0","go-nogo","true","0","","false","<div class = centerbox><div  id = stim2></div></div>","32","32","750","","test","go","43","random","","",""
"","-1","-1","1273","0","test_block","poldrack-single-stim","58","244152","0.0-5.0-44.0","go-nogo","true","0","","false","<div class = centerbox><div  id = stim2></div></div>","32","32","750","","test","go","44","random","","",""
"","-1","-1","1120","0","test_block","poldrack-single-stim","59","245298","0.0-5.0-45.0","go-nogo","true","0","","false","<div class = centerbox><div  id = stim2></div></div>","32","32","750","","test","go","45","random","","",""
"","-1","-1","1085","0","test_block","poldrack-single-stim","60","246417","0.0-5.0-46.0","go-nogo","true","0","","false","<div class = centerbox><div  id = stim2></div></div>","32","32","750","","test","go","46","random","","",""
"","-1","-1","1322","0","test_block","poldrack-single-stim","61","247755","0.0-5.0-47.0","go-nogo","true","0","","false","<div class = centerbox><div  id = stim2></div></div>","32","32","750","","test","go","47","random","","",""
"","-1","-1","1133","0","test_block","poldrack-single-stim","62","248913","0.0-5.0-48.0","go-nogo","true","0","","false","<div class = centerbox><div  id = stim2></div></div>","32","32","750","","test","go","48","random","","",""
"","-1","-1","1239","0","test_block","poldrack-single-stim","63","250161","0.0-5.0-49.0","go-nogo","true","0","","false","<div class = centerbox><div  id = stim2></div></div>","32","32","750","","test","go","49","random","","",""
"","-1","-1","1154","0","test_block","poldrack-single-stim","64","251323","0.0-5.0-50.0","go-nogo","true","0","","true","<div class = centerbox><div  id = stim1></div></div>","-1","32","750","","test","nogo","50","random","","",""
"","-1","-1","1293","0","test_block","poldrack-single-stim","65","252626","0.0-5.0-51.0","go-nogo","true","0","","false","<div class = centerbox><div  id = stim2></div></div>","32","32","750","","test","go","51","random","","",""
"","-1","-1","1083","0","test_block","poldrack-single-stim","66","253718","0.0-5.0-52.0","go-nogo","true","0","","false","<div class = centerbox><div  id = stim2></div></div>","32","32","750","","test","go","52","random","","",""
"","-1","-1","1101","0","test_block","poldrack-single-stim","67","254855","0.0-5.0-53.0","go-nogo","true","0","","false","<div class = centerbox><div  id = stim2></div></div>","32","32","750","","test","go","53","random","","",""
"","-1","-1","1279","0","test_block","poldrack-single-stim","68","256141","0.0-5.0-54.0","go-nogo","true","0","","false","<div class = centerbox><div  id = stim2></div></div>","32","32","750","","test","go","54","random","","",""
"","-1","-1","1460","0","test_block","poldrack-single-stim","69","257617","0.0-5.0-55.0","go-nogo","true","0","","false","<div class = centerbox><div  id = stim2></div></div>","32","32","750","","test","go","55","random","","",""
"","-1","-1","1271","0","test_block","poldrack-single-stim","70","258896","0.0-5.0-56.0","go-nogo","true","0","","false","<div class = centerbox><div  id = stim2></div></div>","32","32","750","","test","go","56","random","","",""
"","-1","-1","1417","0","test_block","poldrack-single-stim","71","260320","0.0-5.0-57.0","go-nogo","true","0","","false","<div class = centerbox><div  id = stim2></div></div>","32","32","750","","test","go","57","random","","",""
"","-1","-1","1156","0","test_block","poldrack-single-stim","72","261485","0.0-5.0-58.0","go-nogo","true","0","","false","<div class = centerbox><div  id = stim2></div></div>","32","32","750","","test","go","58","random","","",""
"","-1","-1","1163","0","test_block","poldrack-single-stim","73","262655","0.0-5.0-59.0","go-nogo","true","0","","false","<div class = centerbox><div  id = stim2></div></div>","32","32","750","","test","go","59","random","","",""
"","-1","-1","1494","0","test_block","poldrack-single-stim","74","264172","0.0-5.0-60.0","go-nogo","true","0","","false","<div class = centerbox><div  id = stim2></div></div>","32","32","750","","test","go","60","random","","",""
"","-1","-1","1460","0","test_block","poldrack-single-stim","75","265639","0.0-5.0-61.0","go-nogo","true","0","","false","<div class = centerbox><div  id = stim2></div></div>","32","32","750","","test","go","61","random","","",""
"","-1","-1","1023","0","test_block","poldrack-single-stim","76","266668","0.0-5.0-62.0","go-nogo","true","0","","false","<div class = centerbox><div  id = stim2></div></div>","32","32","750","","test","go","62","random","","",""
"","-1","-1","1022","0","test_block","poldrack-single-stim","77","267697","0.0-5.0-63.0","go-nogo","true","0","","false","<div class = centerbox><div  id = stim2></div></div>","32","32","750","","test","go","63","random","","",""
"","-1","-1","1203","0","test_block","poldrack-single-stim","78","268908","0.0-5.0-64.0","go-nogo","true","0","","true","<div class = centerbox><div  id = stim1></div></div>","-1","32","750","","test","nogo","64","random","","",""
"","-1","-1","1071","0","test_block","poldrack-single-stim","79","269987","0.0-5.0-65.0","go-nogo","true","0","","false","<div class = centerbox><div  id = stim2></div></div>","32","32","750","","test","go","65","random","","",""
"","-1","-1","1309","0","test_block","poldrack-single-stim","80","271309","0.0-5.0-66.0","go-nogo","true","0","","false","<div class = centerbox><div  id = stim2></div></div>","32","32","750","","test","go","66","random","","",""
"","-1","-1","1358","0","test_block","poldrack-single-stim","81","272682","0.0-5.0-67.0","go-nogo","true","0","","false","<div class = centerbox><div  id = stim2></div></div>","32","32","750","","test","go","67","random","","",""
"","-1","-1","1059","0","test_block","poldrack-single-stim","82","273753","0.0-5.0-68.0","go-nogo","true","0","","false","<div class = centerbox><div  id = stim2></div></div>","32","32","750","","test","go","68","random","","",""
"","-1","-1","1007","0","test_block","poldrack-single-stim","83","274768","0.0-5.0-69.0","go-nogo","true","0","","false","<div class = centerbox><div  id = stim2></div></div>","32","32","750","","test","go","69","random","","",""
"","-1","-1","1258","0","test_block","poldrack-single-stim","84","276063","0.0-5.0-70.0","go-nogo","true","0","","false","<div class = centerbox><div  id = stim2></div></div>","32","32","750","","test","go","70","random","","",""
"","-1","-1","1393","0","test_block","poldrack-single-stim","85","277464","0.0-5.0-71.0","go-nogo","true","0","","false","<div class = centerbox><div  id = stim2></div></div>","32","32","750","","test","go","71","random","","",""
"","-1","-1","1280","0","test_block","poldrack-single-stim","86","278756","0.0-5.0-72.0","go-nogo","true","0","","false","<div class = centerbox><div  id = stim2></div></div>","32","32","750","","test","go","72","random","","",""
"","-1","-1","1140","0","test_block","poldrack-single-stim","87","279907","0.0-5.0-73.0","go-nogo","true","0","","false","<div class = centerbox><div  id = stim2></div></div>","32","32","750","","test","go","73","random","","",""
"","-1","-1","1082","0","test_block","poldrack-single-stim","88","280997","0.0-5.0-74.0","go-nogo","true","0","","false","<div class = centerbox><div  id = stim2></div></div>","32","32","750","","test","go","74","random","","",""
"","-1","-1","1461","0","test_block","poldrack-single-stim","89","282463","0.0-5.0-75.0","go-nogo","true","0","","false","<div class = centerbox><div  id = stim2></div></div>","32","32","750","","test","go","75","random","","",""
"","-1","-1","1282","0","test_block","poldrack-single-stim","90","283753","0.0-5.0-76.0","go-nogo","true","0","","false","<div class = centerbox><div  id = stim2></div></div>","32","32","750","","test","go","76","random","","",""
"","-1","-1","1265","0","test_block","poldrack-single-stim","91","285026","0.0-5.0-77.0","go-nogo","true","0","","false","<div class = centerbox><div  id = stim2></div></div>","32","32","750","","test","go","77","random","","",""
"","-1","-1","1257","0","test_block","poldrack-single-stim","92","286322","0.0-5.0-78.0","go-nogo","true","0","","false","<div class = centerbox><div  id = stim2></div></div>","32","32","750","","test","go","78","random","","",""
"","-1","-1","1190","0","test_block","poldrack-single-stim","93","287523","0.0-5.0-79.0","go-nogo","true","0","","false","<div class = centerbox><div  id = stim2></div></div>","32","32","750","","test","go","79","random","","",""
"","-1","-1","1112","0","test_block","poldrack-single-stim","94","288643","0.0-5.0-80.0","go-nogo","true","0","","false","<div class = centerbox><div  id = stim2></div></div>","32","32","750","","test","go","80","random","","",""
"","-1","-1","1101","0","test_block","poldrack-single-stim","95","289752","0.0-5.0-81.0","go-nogo","true","0","","false","<div class = centerbox><div  id = stim2></div></div>","32","32","750","","test","go","81","random","","",""
"","-1","-1","1157","0","test_block","poldrack-single-stim","96","290917","0.0-5.0-82.0","go-nogo","true","0","","false","<div class = centerbox><div  id = stim2></div></div>","32","32","750","","test","go","82","random","","",""
"","-1","-1","1082","0","test_block","poldrack-single-stim","97","292006","0.0-5.0-83.0","go-nogo","true","0","","false","<div class = centerbox><div  id = stim2></div></div>","32","32","750","","test","go","83","random","","",""
"","-1","-1","1177","0","test_block","poldrack-single-stim","98","293262","0.0-5.0-84.0","go-nogo","true","0","","false","<div class = centerbox><div  id = stim2></div></div>","32","32","750","","test","go","84","random","","",""
"","-1","-1","1130","0","test_block","poldrack-single-stim","99","294401","0.0-5.0-85.0","go-nogo","true","0","","false","<div class = centerbox><div  id = stim2></div></div>","32","32","750","","test","go","85","random","","",""
"","-1","-1","1328","0","test_block","poldrack-single-stim","100","295737","0.0-5.0-86.0","go-nogo","true","0","","false","<div class = centerbox><div  id = stim2></div></div>","32","32","750","","test","go","86","random","","",""
"","-1","-1","1038","0","test_block","poldrack-single-stim","101","296781","0.0-5.0-87.0","go-nogo","true","0","","false","<div class = centerbox><div  id = stim2></div></div>","32","32","750","","test","go","87","random","","",""
"","-1","-1","1294","0","test_block","poldrack-single-stim","102","298082","0.0-5.0-88.0","go-nogo","true","0","","false","<div class = centerbox><div  id = stim2></div></div>","32","32","750","","test","go","88","random","","",""
"","-1","-1","1269","0","test_block","poldrack-single-stim","103","299357","0.0-5.0-89.0","go-nogo","true","0","","false","<div class = centerbox><div  id = stim2></div></div>","32","32","750","","test","go","89","random","","",""
"","-1","-1","1196","0","test_block","poldrack-single-stim","104","300560","0.0-5.0-90.0","go-nogo","true","0","","false","<div class = centerbox><div  id = stim2></div></div>","32","32","750","","test","go","90","random","","",""
"","-1","-1","1359","0","test_block","poldrack-single-stim","105","301925","0.0-5.0-91.0","go-nogo","true","0","","true","<div class = centerbox><div  id = stim1></div></div>","-1","32","750","","test","nogo","91","random","","",""
"","-1","-1","1235","0","test_block","poldrack-single-stim","106","303168","0.0-5.0-92.0","go-nogo","true","0","","false","<div class = centerbox><div  id = stim2></div></div>","32","32","750","","test","go","92","random","","",""
"","-1","-1","1467","0","test_block","poldrack-single-stim","107","304642","0.0-5.0-93.0","go-nogo","true","0","","false","<div class = centerbox><div  id = stim2></div></div>","32","32","750","","test","go","93","random","","",""
"","-1","-1","1260","0","test_block","poldrack-single-stim","108","305908","0.0-5.0-94.0","go-nogo","true","0","","false","<div class = centerbox><div  id = stim2></div></div>","32","32","750","","test","go","94","random","","",""
"","-1","-1","1128","0","test_block","poldrack-single-stim","109","307043","0.0-5.0-95.0","go-nogo","true","0","","false","<div class = centerbox><div  id = stim2></div></div>","32","32","750","","test","go","95","random","","",""
"","-1","-1","1259","0","test_block","poldrack-single-stim","110","308329","0.0-5.0-96.0","go-nogo","true","0","","true","<div class = centerbox><div  id = stim1></div></div>","-1","32","750","","test","nogo","96","random","","",""
"","-1","-1","1448","0","test_block","poldrack-single-stim","111","309785","0.0-5.0-97.0","go-nogo","true","0","","false","<div class = centerbox><div  id = stim2></div></div>","32","32","750","","test","go","97","random","","",""
"","-1","-1","1439","0","test_block","poldrack-single-stim","112","311231","0.0-5.0-98.0","go-nogo","true","0","","false","<div class = centerbox><div  id = stim2></div></div>","32","32","750","","test","go","98","random","","",""
"","-1","-1","1422","0","test_block","poldrack-single-stim","113","312660","0.0-5.0-99.0","go-nogo","true","0","","false","<div class = centerbox><div  id = stim2></div></div>","32","32","750","","test","go","99","random","","",""
"","-1","-1","1377","0","test_block","poldrack-single-stim","114","314045","0.0-5.0-100.0","go-nogo","true","0","","false","<div class = centerbox><div  id = stim2></div></div>","32","32","750","","test","go","100","random","","",""
"","-1","-1","1157","0","test_block","poldrack-single-stim","115","315210","0.0-5.0-101.0","go-nogo","true","0","","false","<div class = centerbox><div  id = stim2></div></div>","32","32","750","","test","go","101","random","","",""
"","-1","-1","1458","0","test_block","poldrack-single-stim","116","316675","0.0-5.0-102.0","go-nogo","true","0","","false","<div class = centerbox><div  id = stim2></div></div>","32","32","750","","test","go","102","random","","",""
"","-1","-1","1208","0","test_block","poldrack-single-stim","117","317894","0.0-5.0-103.0","go-nogo","true","0","","false","<div class = centerbox><div  id = stim2></div></div>","32","32","750","","test","go","103","random","","",""
"","-1","-1","1171","0","test_block","poldrack-single-stim","118","319071","0.0-5.0-104.0","go-nogo","true","0","","false","<div class = centerbox><div  id = stim2></div></div>","32","32","750","","test","go","104","random","","",""
"","-1","-1","1022","0","test_block","poldrack-single-stim","119","320100","0.0-5.0-105.0","go-nogo","true","0","","false","<div class = centerbox><div  id = stim2></div></div>","32","32","750","","test","go","105","random","","",""
"","-1","-1","1016","0","test_block","poldrack-single-stim","120","321124","0.0-5.0-106.0","go-nogo","true","0","","false","<div class = centerbox><div  id = stim2></div></div>","32","32","750","","test","go","106","random","","",""
"","-1","-1","1018","0","test_block","poldrack-single-stim","121","322151","0.0-5.0-107.0","go-nogo","true","0","","false","<div class = centerbox><div  id = stim2></div></div>","32","32","750","","test","go","107","random","","",""
"","-1","-1","1245","0","test_block","poldrack-single-stim","122","323405","0.0-5.0-108.0","go-nogo","true","0","","false","<div class = centerbox><div  id = stim2></div></div>","32","32","750","","test","go","108","random","","",""
"","-1","-1","1449","0","test_block","poldrack-single-stim","123","324875","0.0-5.0-109.0","go-nogo","true","0","","true","<div class = centerbox><div  id = stim1></div></div>","-1","32","750","","test","nogo","109","random","","",""
"","-1","-1","1035","0","test_block","poldrack-single-stim","124","325935","0.0-5.0-110.0","go-nogo","true","0","","false","<div class = centerbox><div  id = stim2></div></div>","32","32","750","","test","go","110","random","","",""
"","-1","-1","1408","0","test_block","poldrack-single-stim","125","327351","0.0-5.0-111.0","go-nogo","true","0","","false","<div class = centerbox><div  id = stim2></div></div>","32","32","750","","test","go","111","random","","",""
"","-1","-1","1177","0","test_block","poldrack-single-stim","126","328556","0.0-5.0-112.0","go-nogo","true","0","","false","<div class = centerbox><div  id = stim2></div></div>","32","32","750","","test","go","112","random","","",""
"","-1","-1","1225","0","test_block","poldrack-single-stim","127","329792","0.0-5.0-113.0","go-nogo","true","0","","false","<div class = centerbox><div  id = stim2></div></div>","32","32","750","","test","go","113","random","","",""
"","-1","-1","1100","0","test_block","poldrack-single-stim","128","330899","0.0-5.0-114.0","go-nogo","true","0","","false","<div class = centerbox><div  id = stim2></div></div>","32","32","750","","test","go","114","random","","",""
"","-1","-1","1228","0","test_block","poldrack-single-stim","129","332133","0.0-5.0-115.0","go-nogo","true","0","","false","<div class = centerbox><div  id = stim2></div></div>","32","32","750","","test","go","115","random","","",""
"","-1","-1","1419","0","test_block","poldrack-single-stim","130","333561","0.0-5.0-116.0","go-nogo","true","0","","false","<div class = centerbox><div  id = stim2></div></div>","32","32","750","","test","go","116","random","","",""
"","-1","-1","1378","0","test_block","poldrack-single-stim","131","334955","0.0-5.0-117.0","go-nogo","true","0","","false","<div class = centerbox><div  id = stim2></div></div>","32","32","750","","test","go","117","random","","",""
"","-1","-1","1295","0","test_block","poldrack-single-stim","132","336324","0.0-5.0-118.0","go-nogo","true","0","","false","<div class = centerbox><div  id = stim2></div></div>","32","32","750","","test","go","118","random","","",""
"","-1","-1","1209","0","test_block","poldrack-single-stim","133","337539","0.0-5.0-119.0","go-nogo","true","0","","false","<div class = centerbox><div  id = stim2></div></div>","32","32","750","","test","go","119","random","","",""
"","-1","-1","1349","0","test_block","poldrack-single-stim","134","338895","0.0-5.0-120.0","go-nogo","true","0","","false","<div class = centerbox><div  id = stim2></div></div>","32","32","750","","test","go","120","random","","",""
"","-1","-1","1147","0","test_block","poldrack-single-stim","135","340054","0.0-5.0-121.0","go-nogo","true","0","","false","<div class = centerbox><div  id = stim2></div></div>","32","32","750","","test","go","121","random","","",""
"","-1","-1","1074","0","test_block","poldrack-single-stim","136","341145","0.0-5.0-122.0","go-nogo","true","0","","false","<div class = centerbox><div  id = stim2></div></div>","32","32","750","","test","go","122","random","","",""
"","-1","-1","1275","0","test_block","poldrack-single-stim","137","342428","0.0-5.0-123.0","go-nogo","true","0","","false","<div class = centerbox><div  id = stim2></div></div>","32","32","750","","test","go","123","random","","",""
"","-1","-1","1037","0","test_block","poldrack-single-stim","138","343474","0.0-5.0-124.0","go-nogo","true","0","","false","<div class = centerbox><div  id = stim2></div></div>","32","32","750","","test","go","124","random","","",""
"","-1","-1","1385","0","test_block","poldrack-single-stim","139","344867","0.0-5.0-125.0","go-nogo","true","0","","false","<div class = centerbox><div  id = stim2></div></div>","32","32","750","","test","go","125","random","","",""
"","-1","-1","1349","0","test_block","poldrack-single-stim","140","346221","0.0-5.0-126.0","go-nogo","true","0","","false","<div class = centerbox><div  id = stim2></div></div>","32","32","750","","test","go","126","random","","",""
"","-1","-1","1177","0","test_block","poldrack-single-stim","141","347405","0.0-5.0-127.0","go-nogo","true","0","","true","<div class = centerbox><div  id = stim1></div></div>","-1","32","750","","test","nogo","127","random","","",""
"","-1","-1","1341","0","test_block","poldrack-single-stim","142","348754","0.0-5.0-128.0","go-nogo","true","0","","false","<div class = centerbox><div  id = stim2></div></div>","32","32","750","","test","go","128","random","","",""
"","-1","-1","1360","0","test_block","poldrack-single-stim","143","350122","0.0-5.0-129.0","go-nogo","true","0","","false","<div class = centerbox><div  id = stim2></div></div>","32","32","750","","test","go","129","random","","",""
"","-1","-1","1432","0","test_block","poldrack-single-stim","144","351561","0.0-5.0-130.0","go-nogo","true","0","","true","<div class = centerbox><div  id = stim1></div></div>","-1","32","750","","test","nogo","130","random","","",""
"","-1","-1","1474","0","test_block","poldrack-single-stim","145","353043","0.0-5.0-131.0","go-nogo","true","0","","false","<div class = centerbox><div  id = stim2></div></div>","32","32","750","","test","go","131","random","","",""
"","-1","-1","1341","0","test_block","poldrack-single-stim","146","354391","0.0-5.0-132.0","go-nogo","true","0","","false","<div class = centerbox><div  id = stim2></div></div>","32","32","750","","test","go","132","random","","",""
"","-1","-1","1013","0","test_block","poldrack-single-stim","147","355414","0.0-5.0-133.0","go-nogo","true","0","","false","<div class = centerbox><div  id = stim2></div></div>","32","32","750","","test","go","133","random","","",""
"","-1","-1","1441","0","test_block","poldrack-single-stim","148","356891","0.0-5.0-134.0","go-nogo","true","0","","false","<div class = centerbox><div  id = stim2></div></div>","32","32","750","","test","go","134","random","","",""
"","-1","-1","1498","0","test_block","poldrack-single-stim","149","358395","0.0-5.0-135.0","go-nogo","true","0","","false","<div class = centerbox><div  id = stim2></div></div>","32","32","750","","test","go","135","random","","",""
"","-1","-1","1183","0","test_block","poldrack-single-stim","150","359654","0.0-5.0-136.0","go-nogo","true","0","","false","<div class = centerbox><div  id = stim2></div></div>","32","32","750","","test","go","136","random","","",""
"","-1","-1","1463","0","test_block","poldrack-single-stim","151","361166","0.0-5.0-137.0","go-nogo","true","0","","true","<div class = centerbox><div  id = stim1></div></div>","-1","32","750","","test","nogo","137","random","","",""
"","-1","-1","1467","0","test_block","poldrack-single-stim","152","362654","0.0-5.0-138.0","go-nogo","true","0","","false","<div class = centerbox><div  id = stim2></div></div>","32","32","750","","test","go","138","random","","",""
"","-1","-1","1087","0","test_block","poldrack-single-stim","153","363749","0.0-5.0-139.0","go-nogo","true","0","","false","<div class = centerbox><div  id = stim2></div></div>","32","32","750","","test","go","139","random","","",""
"","-1","-1","1266","0","test_block","poldrack-single-stim","154","365021","0.0-5.0-140.0","go-nogo","true","0","","false","<div class = centerbox><div  id = stim2></div></div>","32","32","750","","test","go","140","random","","",""
"","-1","-1","1281","0","test_block","poldrack-single-stim","155","366310","0.0-5.0-141.0","go-nogo","true","0","","false","<div class = centerbox><div  id = stim2></div></div>","32","32","750","","test","go","141","random","","",""
"","-1","-1","1100","0","test_block","poldrack-single-stim","156","367416","0.0-5.0-142.0","go-nogo","true","0","","false","<div class = centerbox><div  id = stim2></div></div>","32","32","750","","test","go","142","random","","",""
"","-1","-1","1291","0","test_block","poldrack-single-stim","157","368715","0.0-5.0-143.0","go-nogo","true","0","","false","<div class = centerbox><div  id = stim2></div></div>","32","32","750","","test","go","143","random","","",""
"","-1","-1","1432","0","test_block","poldrack-single-stim","158","370155","0.0-5.0-144.0","go-nogo","true","0","","false","<div class = centerbox><div  id = stim2></div></div>","32","32","750","","test","go","144","random","","",""
"","-1","-1","1200","0","test_block","poldrack-single-stim","159","371361","0.0-5.0-145.0","go-nogo","true","0","","false","<div class = centerbox><div  id = stim2></div></div>","32","32","750","","test","go","145","random","","",""
"","-1","-1","1047","0","test_block","poldrack-single-stim","160","372415","0.0-5.0-146.0","go-nogo","true","0","","false","<div class = centerbox><div  id = stim2></div></div>","32","32","750","","test","go","146","random","","",""
"","-1","-1","1052","0","test_block","poldrack-single-stim","161","373475","0.0-5.0-147.0","go-nogo","true","0","","false","<div class = centerbox><div  id = stim2></div></div>","32","32","750","","test","go","147","random","","",""
"","-1","-1","1299","0","test_block","poldrack-single-stim","162","374782","0.0-5.0-148.0","go-nogo","true","0","","false","<div class = centerbox><div  id = stim2></div></div>","32","32","750","","test","go","148","random","","",""
"","-1","-1","1271","0","test_block","poldrack-single-stim","163","376061","0.0-5.0-149.0","go-nogo","true","0","","false","<div class = centerbox><div  id = stim2></div></div>","32","32","750","","test","go","149","random","","",""
"","-1","-1","1334","0","test_block","poldrack-single-stim","164","377446","0.0-5.0-150.0","go-nogo","true","0","","false","<div class = centerbox><div  id = stim2></div></div>","32","32","750","","test","go","150","random","","",""
"","-1","-1","1042","0","test_block","poldrack-single-stim","165","378535","0.0-5.0-151.0","go-nogo","true","0","","false","<div class = centerbox><div  id = stim2></div></div>","32","32","750","","test","go","151","random","","",""
"","-1","-1","1065","0","test_block","poldrack-single-stim","166","379606","0.0-5.0-152.0","go-nogo","true","0","","false","<div class = centerbox><div  id = stim2></div></div>","32","32","750","","test","go","152","random","","",""
"","-1","-1","1364","0","test_block","poldrack-single-stim","167","380977","0.0-5.0-153.0","go-nogo","true","0","","false","<div class = centerbox><div  id = stim2></div></div>","32","32","750","","test","go","153","random","","",""
"","-1","-1","1383","0","test_block","poldrack-single-stim","168","382364","0.0-5.0-154.0","go-nogo","true","0","","false","<div class = centerbox><div  id = stim2></div></div>","32","32","750","","test","go","154","random","","",""
"","-1","-1","1111","0","test_block","poldrack-single-stim","169","383482","0.0-5.0-155.0","go-nogo","true","0","","false","<div class = centerbox><div  id = stim2></div></div>","32","32","750","","test","go","155","random","","",""
"","-1","-1","1272","0","test_block","poldrack-single-stim","170","384762","0.0-5.0-156.0","go-nogo","true","0","","false","<div class = centerbox><div  id = stim2></div></div>","32","32","750","","test","go","156","random","","",""
"","-1","-1","1481","0","test_block","poldrack-single-stim","171","386251","0.0-5.0-157.0","go-nogo","true","0","","false","<div class = centerbox><div  id = stim2></div></div>","32","32","750","","test","go","157","random","","",""
"","-1","-1","1030","0","test_block","poldrack-single-stim","172","387288","0.0-5.0-158.0","go-nogo","true","0","","false","<div class = centerbox><div  id = stim2></div></div>","32","32","750","","test","go","158","random","","",""
"","-1","-1","1454","0","test_block","poldrack-single-stim","173","388756","0.0-5.0-159.0","go-nogo","true","0","","false","<div class = centerbox><div  id = stim2></div></div>","32","32","750","","test","go","159","random","","",""
"","-1","-1","1103","0","test_block","poldrack-single-stim","174","389867","0.0-5.0-160.0","go-nogo","true","0","","false","<div class = centerbox><div  id = stim2></div></div>","32","32","750","","test","go","160","random","","",""
"","-1","-1","1460","0","test_block","poldrack-single-stim","175","391364","0.0-5.0-161.0","go-nogo","true","0","","false","<div class = centerbox><div  id = stim2></div></div>","32","32","750","","test","go","161","random","","",""
"","-1","-1","1470","0","test_block","poldrack-single-stim","176","392842","0.0-5.0-162.0","go-nogo","true","0","","false","<div class = centerbox><div  id = stim2></div></div>","32","32","750","","test","go","162","random","","",""
"","-1","-1","1453","0","test_block","poldrack-single-stim","177","394306","0.0-5.0-163.0","go-nogo","true","0","","false","<div class = centerbox><div  id = stim2></div></div>","32","32","750","","test","go","163","random","","",""
"","-1","-1","1271","0","test_block","poldrack-single-stim","178","395584","0.0-5.0-164.0","go-nogo","true","0","","false","<div class = centerbox><div  id = stim2></div></div>","32","32","750","","test","go","164","random","","",""
"","-1","-1","1353","0","test_block","poldrack-single-stim","179","397001","0.0-5.0-165.0","go-nogo","true","0","","false","<div class = centerbox><div  id = stim2></div></div>","32","32","750","","test","go","165","random","","",""
"","-1","-1","1229","0","test_block","poldrack-single-stim","180","398285","0.0-5.0-166.0","go-nogo","true","0","","false","<div class = centerbox><div  id = stim2></div></div>","32","32","750","","test","go","166","random","","",""
"","-1","-1","1063","0","test_block","poldrack-single-stim","181","399371","0.0-5.0-167.0","go-nogo","true","0","","false","<div class = centerbox><div  id = stim2></div></div>","32","32","750","","test","go","167","random","","",""
"","-1","-1","1279","0","test_block","poldrack-single-stim","182","400657","0.0-5.0-168.0","go-nogo","true","0","","false","<div class = centerbox><div  id = stim2></div></div>","32","32","750","","test","go","168","random","","",""
"","-1","-1","1186","0","test_block","poldrack-single-stim","183","401850","0.0-5.0-169.0","go-nogo","true","0","","true","<div class = centerbox><div  id = stim1></div></div>","-1","32","750","","test","nogo","169","random","","",""
"","-1","-1","1111","0","test_block","poldrack-single-stim","184","402968","0.0-5.0-170.0","go-nogo","true","0","","false","<div class = centerbox><div  id = stim2></div></div>","32","32","750","","test","go","170","random","","",""
"","-1","-1","1221","0","test_block","poldrack-single-stim","185","404196","0.0-5.0-171.0","go-nogo","true","0","","false","<div class = centerbox><div  id = stim2></div></div>","32","32","750","","test","go","171","random","","",""
"","-1","-1","1416","0","test_block","poldrack-single-stim","186","405620","0.0-5.0-172.0","go-nogo","true","0","","false","<div class = centerbox><div  id = stim2></div></div>","32","32","750","","test","go","172","random","","",""
"","-1","-1","1049","0","test_block","poldrack-single-stim","187","406677","0.0-5.0-173.0","go-nogo","true","0","","true","<div class = centerbox><div  id = stim1></div></div>","-1","32","750","","test","nogo","173","random","","",""
"","-1","-1","1463","0","test_block","poldrack-single-stim","188","408146","0.0-5.0-174.0","go-nogo","true","0","","false","<div class = centerbox><div  id = stim2></div></div>","32","32","750","","test","go","174","random","","",""
"","-1","-1","1341","0","test_block","poldrack-single-stim","189","409495","0.0-5.0-175.0","go-nogo","true","0","","false","<div class = centerbox><div  id = stim2></div></div>","32","32","750","","test","go","175","random","","",""
"","-1","-1","1304","0","test_block","poldrack-single-stim","190","410806","0.0-5.0-176.0","go-nogo","true","0","","false","<div class = centerbox><div  id = stim2></div></div>","32","32","750","","test","go","176","random","","",""
"","-1","-1","1019","0","test_block","poldrack-single-stim","191","411832","0.0-5.0-177.0","go-nogo","true","0","","true","<div class = centerbox><div  id = stim1></div></div>","-1","32","750","","test","nogo","177","random","","",""
"","-1","-1","1378","0","test_block","poldrack-single-stim","192","413216","0.0-5.0-178.0","go-nogo","true","0","","false","<div class = centerbox><div  id = stim2></div></div>","32","32","750","","test","go","178","random","","",""
"","-1","-1","1034","0","test_block","poldrack-single-stim","193","414257","0.0-5.0-179.0","go-nogo","true","0","","true","<div class = centerbox><div  id = stim1></div></div>","-1","32","750","","test","nogo","179","random","","",""
"","-1","-1","1458","0","test_block","poldrack-single-stim","194","415722","0.0-5.0-180.0","go-nogo","true","0","","false","<div class = centerbox><div  id = stim2></div></div>","32","32","750","","test","go","180","random","","",""
"","-1","-1","1401","0","test_block","poldrack-single-stim","195","417128","0.0-5.0-181.0","go-nogo","true","0","","false","<div class = centerbox><div  id = stim2></div></div>","32","32","750","","test","go","181","random","","",""
"","-1","-1","1370","0","test_block","poldrack-single-stim","196","418504","0.0-5.0-182.0","go-nogo","true","0","","false","<div class = centerbox><div  id = stim2></div></div>","32","32","750","","test","go","182","random","","",""
"","-1","-1","1241","0","test_block","poldrack-single-stim","197","419772","0.0-5.0-183.0","go-nogo","true","0","","true","<div class = centerbox><div  id = stim1></div></div>","-1","32","750","","test","nogo","183","random","","",""
"","-1","-1","1346","0","test_block","poldrack-single-stim","198","421126","0.0-5.0-184.0","go-nogo","true","0","","false","<div class = centerbox><div  id = stim2></div></div>","32","32","750","","test","go","184","random","","",""
"","-1","-1","1008","0","test_block","poldrack-single-stim","199","422143","0.0-5.0-185.0","go-nogo","true","0","","false","<div class = centerbox><div  id = stim2></div></div>","32","32","750","","test","go","185","random","","",""
"","-1","-1","1476","0","test_block","poldrack-single-stim","200","423636","0.0-5.0-186.0","go-nogo","true","0","","false","<div class = centerbox><div  id = stim2></div></div>","32","32","750","","test","go","186","random","","",""
"","-1","-1","1360","0","test_block","poldrack-single-stim","201","425004","0.0-5.0-187.0","go-nogo","true","0","","false","<div class = centerbox><div  id = stim2></div></div>","32","32","750","","test","go","187","random","","",""
"","-1","-1","1160","0","test_block","poldrack-single-stim","202","426171","0.0-5.0-188.0","go-nogo","true","0","","false","<div class = centerbox><div  id = stim2></div></div>","32","32","750","","test","go","188","random","","",""
"","-1","-1","1025","0","test_block","poldrack-single-stim","203","427203","0.0-5.0-189.0","go-nogo","true","0","","true","<div class = centerbox><div  id = stim1></div></div>","-1","32","750","","test","nogo","189","random","","",""
"","-1","-1","1057","0","test_block","poldrack-single-stim","204","428268","0.0-5.0-190.0","go-nogo","true","0","","false","<div class = centerbox><div  id = stim2></div></div>","32","32","750","","test","go","190","random","","",""
"","-1","-1","1127","0","test_block","poldrack-single-stim","205","429401","0.0-5.0-191.0","go-nogo","true","0","","false","<div class = centerbox><div  id = stim2></div></div>","32","32","750","","test","go","191","random","","",""
"","-1","-1","1025","0","test_block","poldrack-single-stim","206","430441","0.0-5.0-192.0","go-nogo","true","0","","true","<div class = centerbox><div  id = stim1></div></div>","-1","32","750","","test","nogo","192","random","","",""
"","-1","-1","1067","0","test_block","poldrack-single-stim","207","431517","0.0-5.0-193.0","go-nogo","true","0","","false","<div class = centerbox><div  id = stim2></div></div>","32","32","750","","test","go","193","random","","",""
"","-1","-1","1235","0","test_block","poldrack-single-stim","208","432767","0.0-5.0-194.0","go-nogo","true","0","","false","<div class = centerbox><div  id = stim2></div></div>","32","32","750","","test","go","194","random","","",""
"","-1","-1","1149","0","test_block","poldrack-single-stim","209","433924","0.0-5.0-195.0","go-nogo","true","0","","false","<div class = centerbox><div  id = stim2></div></div>","32","32","750","","test","go","195","random","","",""
"","-1","-1","1496","0","test_block","poldrack-single-stim","210","435430","0.0-5.0-196.0","go-nogo","true","0","","true","<div class = centerbox><div  id = stim1></div></div>","-1","32","750","","test","nogo","196","random","","",""
"","-1","-1","1110","0","test_block","poldrack-single-stim","211","436589","0.0-5.0-197.0","go-nogo","true","0","","false","<div class = centerbox><div  id = stim2></div></div>","32","32","750","","test","go","197","random","","",""
"","-1","-1","1193","0","test_block","poldrack-single-stim","212","437789","0.0-5.0-198.0","go-nogo","true","0","","false","<div class = centerbox><div  id = stim2></div></div>","32","32","750","","test","go","198","random","","",""
"","-1","-1","1314","0","test_block","poldrack-single-stim","213","439141","0.0-5.0-199.0","go-nogo","true","0","","false","<div class = centerbox><div  id = stim2></div></div>","32","32","750","","test","go","199","random","","",""
"","-1","-1","1431","0","test_block","poldrack-single-stim","214","440579","0.0-5.0-200.0","go-nogo","true","0","","false","<div class = centerbox><div  id = stim2></div></div>","32","32","750","","test","go","200","random","","",""
"","-1","-1","1288","0","test_block","poldrack-single-stim","215","441904","0.0-5.0-201.0","go-nogo","true","0","","false","<div class = centerbox><div  id = stim2></div></div>","32","32","750","","test","go","201","random","","",""
"","-1","-1","1076","0","test_block","poldrack-single-stim","216","442985","0.0-5.0-202.0","go-nogo","true","0","","false","<div class = centerbox><div  id = stim2></div></div>","32","32","750","","test","go","202","random","","",""
"","-1","-1","1307","0","test_block","poldrack-single-stim","217","444298","0.0-5.0-203.0","go-nogo","true","0","","false","<div class = centerbox><div  id = stim2></div></div>","32","32","750","","test","go","203","random","","",""
"","-1","-1","1065","0","test_block","poldrack-single-stim","218","445370","0.0-5.0-204.0","go-nogo","true","0","","false","<div class = centerbox><div  id = stim2></div></div>","32","32","750","","test","go","204","random","","",""
"","-1","-1","1478","0","test_block","poldrack-single-stim","219","446854","0.0-5.0-205.0","go-nogo","true","0","","false","<div class = centerbox><div  id = stim2></div></div>","32","32","750","","test","go","205","random","","",""
"","-1","-1","1371","0","test_block","poldrack-single-stim","220","448231","0.0-5.0-206.0","go-nogo","true","0","","false","<div class = centerbox><div  id = stim2></div></div>","32","32","750","","test","go","206","random","","",""
"","-1","-1","1092","0","test_block","poldrack-single-stim","221","449331","0.0-5.0-207.0","go-nogo","true","0","","false","<div class = centerbox><div  id = stim2></div></div>","32","32","750","","test","go","207","random","","",""
"","-1","-1","1408","0","test_block","poldrack-single-stim","222","450749","0.0-5.0-208.0","go-nogo","true","0","","true","<div class = centerbox><div  id = stim1></div></div>","-1","32","750","","test","nogo","208","random","","",""
"","-1","-1","1132","0","test_block","poldrack-single-stim","223","451887","0.0-5.0-209.0","go-nogo","true","0","","false","<div class = centerbox><div  id = stim2></div></div>","32","32","750","","test","go","209","random","","",""
"","-1","-1","1299","0","test_block","poldrack-single-stim","224","453192","0.0-5.0-210.0","go-nogo","true","0","","false","<div class = centerbox><div  id = stim2></div></div>","32","32","750","","test","go","210","random","","",""
"","-1","-1","1005","0","test_block","poldrack-single-stim","225","454203","0.0-5.0-211.0","go-nogo","true","0","","false","<div class = centerbox><div  id = stim2></div></div>","32","32","750","","test","go","211","random","","",""
"","-1","-1","1481","0","test_block","poldrack-single-stim","226","455690","0.0-5.0-212.0","go-nogo","true","0","","false","<div class = centerbox><div  id = stim2></div></div>","32","32","750","","test","go","212","random","","",""
"","-1","-1","1333","0","test_block","poldrack-single-stim","227","457033","0.0-5.0-213.0","go-nogo","true","0","","false","<div class = centerbox><div  id = stim2></div></div>","32","32","750","","test","go","213","random","","",""
"","-1","-1","1123","0","test_block","poldrack-single-stim","228","458161","0.0-5.0-214.0","go-nogo","true","0","","false","<div class = centerbox><div  id = stim2></div></div>","32","32","750","","test","go","214","random","","",""
"","-1","-1","1396","0","test_block","poldrack-single-stim","229","459565","0.0-5.0-215.0","go-nogo","true","0","","false","<div class = centerbox><div  id = stim2></div></div>","32","32","750","","test","go","215","random","","",""
"","-1","-1","1285","0","test_block","poldrack-single-stim","230","460858","0.0-5.0-216.0","go-nogo","true","0","","false","<div class = centerbox><div  id = stim2></div></div>","32","32","750","","test","go","216","random","","",""
"","-1","-1","1118","0","test_block","poldrack-single-stim","231","461981","0.0-5.0-217.0","go-nogo","true","0","","false","<div class = centerbox><div  id = stim2></div></div>","32","32","750","","test","go","217","random","","",""
"","-1","-1","1201","0","test_block","poldrack-single-stim","232","463194","0.0-5.0-218.0","go-nogo","true","0","","false","<div class = centerbox><div  id = stim2></div></div>","32","32","750","","test","go","218","random","","",""
"","-1","-1","1309","0","test_block","poldrack-single-stim","233","464509","0.0-5.0-219.0","go-nogo","true","0","","false","<div class = centerbox><div  id = stim2></div></div>","32","32","750","","test","go","219","random","","",""
"","-1","-1","1480","0","test_block","poldrack-single-stim","234","465995","0.0-5.0-220.0","go-nogo","true","0","","false","<div class = centerbox><div  id = stim2></div></div>","32","32","750","","test","go","220","random","","",""
"","-1","-1","1195","0","test_block","poldrack-single-stim","235","467206","0.0-5.0-221.0","go-nogo","true","0","","true","<div class = centerbox><div  id = stim1></div></div>","-1","32","750","","test","nogo","221","random","","",""
"","-1","-1","1283","0","test_block","poldrack-single-stim","236","468495","0.0-5.0-222.0","go-nogo","true","0","","false","<div class = centerbox><div  id = stim2></div></div>","32","32","750","","test","go","222","random","","",""
"","-1","-1","1045","0","test_block","poldrack-single-stim","237","469546","0.0-5.0-223.0","go-nogo","true","0","","true","<div class = centerbox><div  id = stim1></div></div>","-1","32","750","","test","nogo","223","random","","",""
"","-1","-1","1436","0","test_block","poldrack-single-stim","238","470989","0.0-5.0-224.0","go-nogo","true","0","","false","<div class = centerbox><div  id = stim2></div></div>","32","32","750","","test","go","224","random","","",""
"","-1","-1","1182","0","test_block","poldrack-single-stim","239","472181","0.0-5.0-225.0","go-nogo","true","0","","false","<div class = centerbox><div  id = stim2></div></div>","32","32","750","","test","go","225","random","","",""
"","-1","-1","1093","0","test_block","poldrack-single-stim","240","473282","0.0-5.0-226.0","go-nogo","true","0","","false","<div class = centerbox><div  id = stim2></div></div>","32","32","750","","test","go","226","random","","",""
"","-1","-1","1182","0","test_block","poldrack-single-stim","241","474470","0.0-5.0-227.0","go-nogo","true","0","","false","<div class = centerbox><div  id = stim2></div></div>","32","32","750","","test","go","227","random","","",""
"","-1","-1","1171","0","test_block","poldrack-single-stim","242","475647","0.0-5.0-228.0","go-nogo","true","0","","false","<div class = centerbox><div  id = stim2></div></div>","32","32","750","","test","go","228","random","","",""
"","-1","-1","1116","0","test_block","poldrack-single-stim","243","476772","0.0-5.0-229.0","go-nogo","true","0","","false","<div class = centerbox><div  id = stim2></div></div>","32","32","750","","test","go","229","random","","",""
"","-1","-1","1260","0","test_block","poldrack-single-stim","244","478038","0.0-5.0-230.0","go-nogo","true","0","","false","<div class = centerbox><div  id = stim2></div></div>","32","32","750","","test","go","230","random","","",""
"","-1","-1","1123","0","test_block","poldrack-single-stim","245","479167","0.0-5.0-231.0","go-nogo","true","0","","false","<div class = centerbox><div  id = stim2></div></div>","32","32","750","","test","go","231","random","","",""
"","-1","-1","1115","0","test_block","poldrack-single-stim","246","480288","0.0-5.0-232.0","go-nogo","true","0","","false","<div class = centerbox><div  id = stim2></div></div>","32","32","750","","test","go","232","random","","",""
"","-1","-1","1364","0","test_block","poldrack-single-stim","247","481659","0.0-5.0-233.0","go-nogo","true","0","","false","<div class = centerbox><div  id = stim2></div></div>","32","32","750","","test","go","233","random","","",""
"","-1","-1","1230","0","test_block","poldrack-single-stim","248","482926","0.0-5.0-234.0","go-nogo","true","0","","false","<div class = centerbox><div  id = stim2></div></div>","32","32","750","","test","go","234","random","","",""
"","-1","-1","1407","0","test_block","poldrack-single-stim","249","484369","0.0-5.0-235.0","go-nogo","true","0","","true","<div class = centerbox><div  id = stim1></div></div>","-1","32","750","","test","nogo","235","random","","",""
"","-1","-1","1335","0","test_block","poldrack-single-stim","250","485711","0.0-5.0-236.0","go-nogo","true","0","","true","<div class = centerbox><div  id = stim1></div></div>","-1","32","750","","test","nogo","236","random","","",""
"","-1","-1","1456","0","test_block","poldrack-single-stim","251","487173","0.0-5.0-237.0","go-nogo","true","0","","true","<div class = centerbox><div  id = stim1></div></div>","-1","32","750","","test","nogo","237","random","","",""
"","-1","-1","1197","0","test_block","poldrack-single-stim","252","488376","0.0-5.0-238.0","go-nogo","true","0","","false","<div class = centerbox><div  id = stim2></div></div>","32","32","750","","test","go","238","random","","",""
"","-1","-1","1071","0","test_block","poldrack-single-stim","253","489454","0.0-5.0-239.0","go-nogo","true","0","","false","<div class = centerbox><div  id = stim2></div></div>","32","32","750","","test","go","239","random","","",""
"","-1","-1","1017","0","test_block","poldrack-single-stim","254","490477","0.0-5.0-240.0","go-nogo","true","0","","false","<div class = centerbox><div  id = stim2></div></div>","32","32","750","","test","go","240","random","","",""
"","-1","-1","1349","0","test_block","poldrack-single-stim","255","491837","0.0-5.0-241.0","go-nogo","true","0","","false","<div class = centerbox><div  id = stim2></div></div>","32","32","750","","test","go","241","random","","",""
"","-1","-1","1191","0","test_block","poldrack-single-stim","256","493036","0.0-5.0-242.0","go-nogo","true","0","","false","<div class = centerbox><div  id = stim2></div></div>","32","32","750","","test","go","242","random","","",""
"","-1","-1","1268","0","test_block","poldrack-single-stim","257","494311","0.0-5.0-243.0","go-nogo","true","0","","false","<div class = centerbox><div  id = stim2></div></div>","32","32","750","","test","go","243","random","","",""
"","-1","-1","1345","0","test_block","poldrack-single-stim","258","495661","0.0-5.0-244.0","go-nogo","true","0","","false","<div class = centerbox><div  id = stim2></div></div>","32","32","750","","test","go","244","random","","",""
"","-1","-1","1343","0","test_block","poldrack-single-stim","259","497010","0.0-5.0-245.0","go-nogo","true","0","","false","<div class = centerbox><div  id = stim2></div></div>","32","32","750","","test","go","245","random","","",""
"","-1","-1","1296","0","test_block","poldrack-single-stim","260","498320","0.0-5.0-246.0","go-nogo","true","0","","true","<div class = centerbox><div  id = stim1></div></div>","-1","32","750","","test","nogo","246","random","","",""
"","-1","-1","1017","0","test_block","poldrack-single-stim","261","499344","0.0-5.0-247.0","go-nogo","true","0","","true","<div class = centerbox><div  id = stim1></div></div>","-1","32","750","","test","nogo","247","random","","",""
"","-1","-1","1016","0","test_block","poldrack-single-stim","262","500366","0.0-5.0-248.0","go-nogo","true","0","","false","<div class = centerbox><div  id = stim2></div></div>","32","32","750","","test","go","248","random","","",""
"","-1","-1","1286","0","test_block","poldrack-single-stim","263","501659","0.0-5.0-249.0","go-nogo","true","0","","false","<div class = centerbox><div  id = stim2></div></div>","32","32","750","","test","go","249","random","","",""
"","-1","-1","1070","0","test_block","poldrack-single-stim","264","502736","0.0-5.0-250.0","go-nogo","true","0","","false","<div class = centerbox><div  id = stim2></div></div>","32","32","750","","test","go","250","random","","",""
"","-1","-1","1171","0","test_block","poldrack-single-stim","265","503920","0.0-5.0-251.0","go-nogo","true","0","","false","<div class = centerbox><div  id = stim2></div></div>","32","32","750","","test","go","251","random","","",""
"","-1","-1","1280","0","test_block","poldrack-single-stim","266","505207","0.0-5.0-252.0","go-nogo","true","0","","false","<div class = centerbox><div  id = stim2></div></div>","32","32","750","","test","go","252","random","","",""
"","-1","-1","1117","0","test_block","poldrack-single-stim","267","506349","0.0-5.0-253.0","go-nogo","true","0","","false","<div class = centerbox><div  id = stim2></div></div>","32","32","750","","test","go","253","random","","",""
"","-1","-1","1356","0","test_block","poldrack-single-stim","268","507716","0.0-5.0-254.0","go-nogo","true","0","","false","<div class = centerbox><div  id = stim2></div></div>","32","32","750","","test","go","254","random","","",""
"","-1","-1","1014","0","test_block","poldrack-single-stim","269","508737","0.0-5.0-255.0","go-nogo","true","0","","false","<div class = centerbox><div  id = stim2></div></div>","32","32","750","","test","go","255","random","","",""
"","-1","-1","1262","0","test_block","poldrack-single-stim","270","510030","0.0-5.0-256.0","go-nogo","true","0","","true","<div class = centerbox><div  id = stim1></div></div>","-1","32","750","","test","nogo","256","random","","",""
"","-1","-1","1217","0","test_block","poldrack-single-stim","271","511254","0.0-5.0-257.0","go-nogo","true","0","","false","<div class = centerbox><div  id = stim2></div></div>","32","32","750","","test","go","257","random","","",""
"","-1","-1","1307","0","test_block","poldrack-single-stim","272","512568","0.0-5.0-258.0","go-nogo","true","0","","true","<div class = centerbox><div  id = stim1></div></div>","-1","32","750","","test","nogo","258","random","","",""
"","-1","-1","1228","0","test_block","poldrack-single-stim","273","513803","0.0-5.0-259.0","go-nogo","true","0","","true","<div class = centerbox><div  id = stim1></div></div>","-1","32","750","","test","nogo","259","random","","",""
"","-1","-1","1369","0","test_block","poldrack-single-stim","274","515177","0.0-5.0-260.0","go-nogo","true","0","","false","<div class = centerbox><div  id = stim2></div></div>","32","32","750","","test","go","260","random","","",""
"","-1","-1","1044","0","test_block","poldrack-single-stim","275","516226","0.0-5.0-261.0","go-nogo","true","0","","false","<div class = centerbox><div  id = stim2></div></div>","32","32","750","","test","go","261","random","","",""
"","-1","-1","1189","0","test_block","poldrack-single-stim","276","517420","0.0-5.0-262.0","go-nogo","true","0","","false","<div class = centerbox><div  id = stim2></div></div>","32","32","750","","test","go","262","random","","",""
"","-1","-1","1206","0","test_block","poldrack-single-stim","277","518638","0.0-5.0-263.0","go-nogo","true","0","","false","<div class = centerbox><div  id = stim2></div></div>","32","32","750","","test","go","263","random","","",""
"","-1","-1","1071","0","test_block","poldrack-single-stim","278","519716","0.0-5.0-264.0","go-nogo","true","0","","false","<div class = centerbox><div  id = stim2></div></div>","32","32","750","","test","go","264","random","","",""
"","-1","-1","1231","0","test_block","poldrack-single-stim","279","520953","0.0-5.0-265.0","go-nogo","true","0","","false","<div class = centerbox><div  id = stim2></div></div>","32","32","750","","test","go","265","random","","",""
"","-1","-1","1241","0","test_block","poldrack-single-stim","280","522204","0.0-5.0-266.0","go-nogo","true","0","","false","<div class = centerbox><div  id = stim2></div></div>","32","32","750","","test","go","266","random","","",""
"","-1","-1","1223","0","test_block","poldrack-single-stim","281","523434","0.0-5.0-267.0","go-nogo","true","0","","false","<div class = centerbox><div  id = stim2></div></div>","32","32","750","","test","go","267","random","","",""
"","-1","-1","1422","0","test_block","poldrack-single-stim","282","524862","0.0-5.0-268.0","go-nogo","true","0","","false","<div class = centerbox><div  id = stim2></div></div>","32","32","750","","test","go","268","random","","",""
"","-1","-1","1402","0","test_block","poldrack-single-stim","283","526317","0.0-5.0-269.0","go-nogo","true","0","","false","<div class = centerbox><div  id = stim2></div></div>","32","32","750","","test","go","269","random","","",""
"","-1","-1","1373","0","test_block","poldrack-single-stim","284","527697","0.0-5.0-270.0","go-nogo","true","0","","false","<div class = centerbox><div  id = stim2></div></div>","32","32","750","","test","go","270","random","","",""
"","-1","-1","1495","0","test_block","poldrack-single-stim","285","529224","0.0-5.0-271.0","go-nogo","true","0","","false","<div class = centerbox><div  id = stim2></div></div>","32","32","750","","test","go","271","random","","",""
"","-1","-1","1497","0","test_block","poldrack-single-stim","286","530726","0.0-5.0-272.0","go-nogo","true","0","","false","<div class = centerbox><div  id = stim2></div></div>","32","32","750","","test","go","272","random","","",""
"","-1","-1","1292","0","test_block","poldrack-single-stim","287","532041","0.0-5.0-273.0","go-nogo","true","0","","false","<div class = centerbox><div  id = stim2></div></div>","32","32","750","","test","go","273","random","","",""
"","-1","-1","1104","0","test_block","poldrack-single-stim","288","533152","0.0-5.0-274.0","go-nogo","true","0","","false","<div class = centerbox><div  id = stim2></div></div>","32","32","750","","test","go","274","random","","",""
"","-1","-1","1307","0","test_block","poldrack-single-stim","289","534465","0.0-5.0-275.0","go-nogo","true","0","","true","<div class = centerbox><div  id = stim1></div></div>","-1","32","750","","test","nogo","275","random","","",""
"","-1","-1","1226","0","test_block","poldrack-single-stim","290","535698","0.0-5.0-276.0","go-nogo","true","0","","false","<div class = centerbox><div  id = stim2></div></div>","32","32","750","","test","go","276","random","","",""
"","-1","-1","1472","0","test_block","poldrack-single-stim","291","537176","0.0-5.0-277.0","go-nogo","true","0","","true","<div class = centerbox><div  id = stim1></div></div>","-1","32","750","","test","nogo","277","random","","",""
"","-1","-1","1355","0","test_block","poldrack-single-stim","292","538538","0.0-5.0-278.0","go-nogo","true","0","","true","<div class = centerbox><div  id = stim1></div></div>","-1","32","750","","test","nogo","278","random","","",""
"","-1","-1","1492","0","test_block","poldrack-single-stim","293","540036","0.0-5.0-279.0","go-nogo","true","0","","false","<div class = centerbox><div  id = stim2></div></div>","32","32","750","","test","go","279","random","","",""
"","-1","-1","1349","0","test_block","poldrack-single-stim","294","541413","0.0-5.0-280.0","go-nogo","true","0","","false","<div class = centerbox><div  id = stim2></div></div>","32","32","750","","test","go","280","random","","",""
"","-1","-1","1087","0","test_block","poldrack-single-stim","295","542508","0.0-5.0-281.0","go-nogo","true","0","","false","<div class = centerbox><div  id = stim2></div></div>","32","32","750","","test","go","281","random","","",""
"","-1","-1","1196","0","test_block","poldrack-single-stim","296","543711","0.0-5.0-282.0","go-nogo","true","0","","false","<div class = centerbox><div  id = stim2></div></div>","32","32","750","","test","go","282","random","","",""
"","-1","-1","1131","0","test_block","poldrack-single-stim","297","544847","0.0-5.0-283.0","go-nogo","true","0","","false","<div class = centerbox><div  id = stim2></div></div>","32","32","750","","test","go","283","random","","",""
"","-1","-1","1300","0","test_block","poldrack-single-stim","298","546155","0.0-5.0-284.0","go-nogo","true","0","","false","<div class = centerbox><div  id = stim2></div></div>","32","32","750","","test","go","284","random","","",""
"","-1","-1","1213","0","test_block","poldrack-single-stim","299","547376","0.0-5.0-285.0","go-nogo","true","0","","false","<div class = centerbox><div  id = stim2></div></div>","32","32","750","","test","go","285","random","","",""
"","-1","-1","1109","0","test_block","poldrack-single-stim","300","548493","0.0-5.0-286.0","go-nogo","true","0","","false","<div class = centerbox><div  id = stim2></div></div>","32","32","750","","test","go","286","random","","",""
"","-1","-1","1002","0","test_block","poldrack-single-stim","301","549502","0.0-5.0-287.0","go-nogo","true","0","","false","<div class = centerbox><div  id = stim2></div></div>","32","32","750","","test","go","287","random","","",""
"","-1","-1","1418","0","test_block","poldrack-single-stim","302","550961","0.0-5.0-288.0","go-nogo","true","0","","false","<div class = centerbox><div  id = stim2></div></div>","32","32","750","","test","go","288","random","","",""
"","-1","-1","1084","0","test_block","poldrack-single-stim","303","552051","0.0-5.0-289.0","go-nogo","true","0","","false","<div class = centerbox><div  id = stim2></div></div>","32","32","750","","test","go","289","random","","",""
"","-1","-1","1467","0","test_block","poldrack-single-stim","304","553524","0.0-5.0-290.0","go-nogo","true","0","","false","<div class = centerbox><div  id = stim2></div></div>","32","32","750","","test","go","290","random","","",""
"","-1","-1","1430","0","test_block","poldrack-single-stim","305","554961","0.0-5.0-291.0","go-nogo","true","0","","false","<div class = centerbox><div  id = stim2></div></div>","32","32","750","","test","go","291","random","","",""
"","-1","-1","1177","0","test_block","poldrack-single-stim","306","556144","0.0-5.0-292.0","go-nogo","true","0","","false","<div class = centerbox><div  id = stim2></div></div>","32","32","750","","test","go","292","random","","",""
"","-1","-1","1477","0","test_block","poldrack-single-stim","307","557665","0.0-5.0-293.0","go-nogo","true","0","","false","<div class = centerbox><div  id = stim2></div></div>","32","32","750","","test","go","293","random","","",""
"","-1","-1","1385","0","test_block","poldrack-single-stim","308","559083","0.0-5.0-294.0","go-nogo","true","0","","false","<div class = centerbox><div  id = stim2></div></div>","32","32","750","","test","go","294","random","","",""
"","-1","-1","1442","0","test_block","poldrack-single-stim","309","560531","0.0-5.0-295.0","go-nogo","true","0","","false","<div class = centerbox><div  id = stim2></div></div>","32","32","750","","test","go","295","random","","",""
"","-1","-1","1440","0","test_block","poldrack-single-stim","310","561978","0.0-5.0-296.0","go-nogo","true","0","","false","<div class = centerbox><div  id = stim2></div></div>","32","32","750","","test","go","296","random","","",""
"","-1","-1","1345","0","test_block","poldrack-single-stim","311","563330","0.0-5.0-297.0","go-nogo","true","0","","false","<div class = centerbox><div  id = stim2></div></div>","32","32","750","","test","go","297","random","","",""
"","-1","-1","1196","0","test_block","poldrack-single-stim","312","564533","0.0-5.0-298.0","go-nogo","true","0","","false","<div class = centerbox><div  id = stim2></div></div>","32","32","750","","test","go","298","random","","",""
"","-1","-1","1348","0","test_block","poldrack-single-stim","313","565887","0.0-5.0-299.0","go-nogo","true","0","","false","<div class = centerbox><div  id = stim2></div></div>","32","32","750","","test","go","299","random","","",""
"","-1","-1","1106","0","test_block","poldrack-single-stim","314","567000","0.0-5.0-300.0","go-nogo","true","0","","false","<div class = centerbox><div  id = stim2></div></div>","32","32","750","","test","go","300","random","","",""
"","-1","-1","1497","0","test_block","poldrack-single-stim","315","568504","0.0-5.0-301.0","go-nogo","true","0","","false","<div class = centerbox><div  id = stim2></div></div>","32","32","750","","test","go","301","random","","",""
"","-1","-1","1313","0","test_block","poldrack-single-stim","316","569852","0.0-5.0-302.0","go-nogo","true","0","","false","<div class = centerbox><div  id = stim2></div></div>","32","32","750","","test","go","302","random","","",""
"","-1","-1","1456","0","test_block","poldrack-single-stim","317","571314","0.0-5.0-303.0","go-nogo","true","0","","false","<div class = centerbox><div  id = stim2></div></div>","32","32","750","","test","go","303","random","","",""
"","-1","-1","1295","0","test_block","poldrack-single-stim","318","572615","0.0-5.0-304.0","go-nogo","true","0","","false","<div class = centerbox><div  id = stim2></div></div>","32","32","750","","test","go","304","random","","",""
"","-1","-1","1167","0","test_block","poldrack-single-stim","319","573788","0.0-5.0-305.0","go-nogo","true","0","","false","<div class = centerbox><div  id = stim2></div></div>","32","32","750","","test","go","305","random","","",""
"","-1","-1","1444","0","test_block","poldrack-single-stim","320","575315","0.0-5.0-306.0","go-nogo","true","0","","true","<div class = centerbox><div  id = stim1></div></div>","-1","32","750","","test","nogo","306","random","","",""
"","-1","-1","1020","0","test_block","poldrack-single-stim","321","576379","0.0-5.0-307.0","go-nogo","true","0","","false","<div class = centerbox><div  id = stim2></div></div>","32","32","750","","test","go","307","random","","",""
"","-1","-1","1060","0","test_block","poldrack-single-stim","322","577446","0.0-5.0-308.0","go-nogo","true","0","","false","<div class = centerbox><div  id = stim2></div></div>","32","32","750","","test","go","308","random","","",""
"","-1","-1","1311","0","test_block","poldrack-single-stim","323","578763","0.0-5.0-309.0","go-nogo","true","0","","false","<div class = centerbox><div  id = stim2></div></div>","32","32","750","","test","go","309","random","","",""
"","-1","-1","1131","0","test_block","poldrack-single-stim","324","579900","0.0-5.0-310.0","go-nogo","true","0","","false","<div class = centerbox><div  id = stim2></div></div>","32","32","750","","test","go","310","random","","",""
"","-1","-1","1076","0","test_block","poldrack-single-stim","325","580983","0.0-5.0-311.0","go-nogo","true","0","","false","<div class = centerbox><div  id = stim2></div></div>","32","32","750","","test","go","311","random","","",""
"","-1","-1","1381","0","test_block","poldrack-single-stim","326","582370","0.0-5.0-312.0","go-nogo","true","0","","false","<div class = centerbox><div  id = stim2></div></div>","32","32","750","","test","go","312","random","","",""
"","-1","-1","1252","0","test_block","poldrack-single-stim","327","583632","0.0-5.0-313.0","go-nogo","true","0","","true","<div class = centerbox><div  id = stim1></div></div>","-1","32","750","","test","nogo","313","random","","",""
"","-1","-1","1054","0","test_block","poldrack-single-stim","328","584693","0.0-5.0-314.0","go-nogo","true","0","","false","<div class = centerbox><div  id = stim2></div></div>","32","32","750","","test","go","314","random","","",""
"","-1","-1","1301","0","test_block","poldrack-single-stim","329","585999","0.0-5.0-315.0","go-nogo","true","0","","false","<div class = centerbox><div  id = stim2></div></div>","32","32","750","","test","go","315","random","","",""
"","-1","-1","1465","0","test_block","poldrack-single-stim","330","587470","0.0-5.0-316.0","go-nogo","true","0","","false","<div class = centerbox><div  id = stim2></div></div>","32","32","750","","test","go","316","random","","",""
"","-1","-1","1319","0","test_block","poldrack-single-stim","331","588796","0.0-5.0-317.0","go-nogo","true","0","","false","<div class = centerbox><div  id = stim2></div></div>","32","32","750","","test","go","317","random","","",""
"","-1","-1","1351","0","test_block","poldrack-single-stim","332","590157","0.0-5.0-318.0","go-nogo","true","0","","false","<div class = centerbox><div  id = stim2></div></div>","32","32","750","","test","go","318","random","","",""
"","-1","-1","1376","0","test_block","poldrack-single-stim","333","591539","0.0-5.0-319.0","go-nogo","true","0","","false","<div class = centerbox><div  id = stim2></div></div>","32","32","750","","test","go","319","random","","",""
"","-1","-1","1244","0","test_block","poldrack-single-stim","334","592789","0.0-5.0-320.0","go-nogo","true","0","","false","<div class = centerbox><div  id = stim2></div></div>","32","32","750","","test","go","320","random","","",""
"","-1","-1","1142","0","test_block","poldrack-single-stim","335","593939","0.0-5.0-321.0","go-nogo","true","0","","false","<div class = centerbox><div  id = stim2></div></div>","32","32","750","","test","go","321","random","","",""
"","-1","-1","1375","0","test_block","poldrack-single-stim","336","595320","0.0-5.0-322.0","go-nogo","true","0","","false","<div class = centerbox><div  id = stim2></div></div>","32","32","750","","test","go","322","random","","",""
"","-1","-1","1398","0","test_block","poldrack-single-stim","337","596724","0.0-5.0-323.0","go-nogo","true","0","","false","<div class = centerbox><div  id = stim2></div></div>","32","32","750","","test","go","323","random","","",""
"","-1","-1","1436","0","test_block","poldrack-single-stim","338","598166","0.0-5.0-324.0","go-nogo","true","0","","false","<div class = centerbox><div  id = stim2></div></div>","32","32","750","","test","go","324","random","","",""
"","-1","-1","1462","0","test_block","poldrack-single-stim","339","599634","0.0-5.0-325.0","go-nogo","true","0","","false","<div class = centerbox><div  id = stim2></div></div>","32","32","750","","test","go","325","random","","",""
"","-1","-1","1174","0","test_block","poldrack-single-stim","340","600815","0.0-5.0-326.0","go-nogo","true","0","","false","<div class = centerbox><div  id = stim2></div></div>","32","32","750","","test","go","326","random","","",""
"","-1","-1","1012","0","test_block","poldrack-single-stim","341","601834","0.0-5.0-327.0","go-nogo","true","0","","false","<div class = centerbox><div  id = stim2></div></div>","32","32","750","","test","go","327","random","","",""
"","-1","-1","1495","0","test_block","poldrack-single-stim","342","603335","0.0-5.0-328.0","go-nogo","true","0","","false","<div class = centerbox><div  id = stim2></div></div>","32","32","750","","test","go","328","random","","",""
"","-1","-1","1103","0","test_block","poldrack-single-stim","343","604450","0.0-5.0-329.0","go-nogo","true","0","","false","<div class = centerbox><div  id = stim2></div></div>","32","32","750","","test","go","329","random","","",""
"","-1","-1","1041","0","test_block","poldrack-single-stim","344","605496","0.0-5.0-330.0","go-nogo","true","0","","false","<div class = centerbox><div  id = stim2></div></div>","32","32","750","","test","go","330","random","","",""
"","-1","-1","1415","0","test_block","poldrack-single-stim","345","606917","0.0-5.0-331.0","go-nogo","true","0","","false","<div class = centerbox><div  id = stim2></div></div>","32","32","750","","test","go","331","random","","",""
"","-1","-1","1223","0","test_block","poldrack-single-stim","346","608151","0.0-5.0-332.0","go-nogo","true","0","","false","<div class = centerbox><div  id = stim2></div></div>","32","32","750","","test","go","332","random","","",""
"","-1","-1","1110","0","test_block","poldrack-single-stim","347","609268","0.0-5.0-333.0","go-nogo","true","0","","true","<div class = centerbox><div  id = stim1></div></div>","-1","32","750","","test","nogo","333","random","","",""
"","-1","-1","1359","0","test_block","poldrack-single-stim","348","610641","0.0-5.0-334.0","go-nogo","true","0","","false","<div class = centerbox><div  id = stim2></div></div>","32","32","750","","test","go","334","random","","",""
"","-1","-1","1174","0","test_block","poldrack-single-stim","349","611822","0.0-5.0-335.0","go-nogo","true","0","","true","<div class = centerbox><div  id = stim1></div></div>","-1","32","750","","test","nogo","335","random","","",""
"","-1","-1","1115","0","test_block","poldrack-single-stim","350","612952","0.0-5.0-336.0","go-nogo","true","0","","false","<div class = centerbox><div  id = stim2></div></div>","32","32","750","","test","go","336","random","","",""
"","-1","-1","1345","0","test_block","poldrack-single-stim","351","614303","0.0-5.0-337.0","go-nogo","true","0","","false","<div class = centerbox><div  id = stim2></div></div>","32","32","750","","test","go","337","random","","",""
"","-1","-1","1441","0","test_block","poldrack-single-stim","352","615754","0.0-5.0-338.0","go-nogo","true","0","","false","<div class = centerbox><div  id = stim2></div></div>","32","32","750","","test","go","338","random","","",""
"","-1","-1","1280","0","test_block","poldrack-single-stim","353","617040","0.0-5.0-339.0","go-nogo","true","0","","false","<div class = centerbox><div  id = stim2></div></div>","32","32","750","","test","go","339","random","","",""
"","-1","-1","1425","0","test_block","poldrack-single-stim","354","618478","0.0-5.0-340.0","go-nogo","true","0","","false","<div class = centerbox><div  id = stim2></div></div>","32","32","750","","test","go","340","random","","",""
"","-1","-1","1329","0","test_block","poldrack-single-stim","355","619827","0.0-5.0-341.0","go-nogo","true","0","","false","<div class = centerbox><div  id = stim2></div></div>","32","32","750","","test","go","341","random","","",""
"","-1","-1","1370","0","test_block","poldrack-single-stim","356","621202","0.0-5.0-342.0","go-nogo","true","0","","false","<div class = centerbox><div  id = stim2></div></div>","32","32","750","","test","go","342","random","","",""
"","-1","-1","1430","0","test_block","poldrack-single-stim","357","622666","0.0-5.0-343.0","go-nogo","true","0","","false","<div class = centerbox><div  id = stim2></div></div>","32","32","750","","test","go","343","random","","",""
"","-1","-1","1088","0","test_block","poldrack-single-stim","358","623760","0.0-5.0-344.0","go-nogo","true","0","","false","<div class = centerbox><div  id = stim2></div></div>","32","32","750","","test","go","344","random","","",""
"","-1","-1","1491","0","test_block","poldrack-single-stim","359","625257","0.0-5.0-345.0","go-nogo","true","0","","false","<div class = centerbox><div  id = stim2></div></div>","32","32","750","","test","go","345","random","","",""
"","-1","-1","1048","0","test_block","poldrack-single-stim","360","626311","0.0-5.0-346.0","go-nogo","true","0","","false","<div class = centerbox><div  id = stim2></div></div>","32","32","750","","test","go","346","random","","",""
"","-1","-1","1078","0","test_block","poldrack-single-stim","361","627395","0.0-5.0-347.0","go-nogo","true","0","","false","<div class = centerbox><div  id = stim2></div></div>","32","32","750","","test","go","347","random","","",""
"","-1","-1","1133","0","test_block","poldrack-single-stim","362","628534","0.0-5.0-348.0","go-nogo","true","0","","false","<div class = centerbox><div  id = stim2></div></div>","32","32","750","","test","go","348","random","","",""
"","-1","-1","1438","0","test_block","poldrack-single-stim","363","629978","0.0-5.0-349.0","go-nogo","true","0","","false","<div class = centerbox><div  id = stim2></div></div>","32","32","750","","test","go","349","random","","",""
"","25296","","","","post task questions","survey-text","364","655288","0.0-7.0","go-nogo","true","0","","","","","","","","","","","","{""Q0"":""ITS VERY APTITUDE"",""Q1"":""VERY EASY""}","",""
"<div class = centerbox><p class = center-block-text>Thanks for completing this task!</p><p class = center-block-text>Insert the following code to collect your payment at Amazon Mechanical Turk:</p><p class = center-block-text>157643317</p><p class = center-block-text>Press <strong>enter</strong> to continue.</p></div>","19643","13","19643","0","end","poldrack-text","365","675933","0.0-8.0","go-nogo","true","1","","","","","","","","","","","","","157643317","false"
