"text","rt","key_press","block_duration","timing_post_trial","trial_id","trial_type","trial_index","time_elapsed","internal_node_id","exp_id","full_screen","focus_shifts","view_history","correct","stimulus","correct_response","possible_responses","stim_duration","feedback_duration","exp_stage","condition","trial_num","mode","responses","payment_id","credit_var"
"<div class = centerbox><p class = center-block-text>Welcome to the experiment. This task will take around 10 minutes. Press <strong>enter</strong> to begin.</p></div>","2198","13","2198","0","instruction","poldrack-text","0","2200","0.0-0.0-0.0","go-nogo","true","0","","","","","","","","","","","","","",""
"","6999","","","","instruction","poldrack-instructions","1","9200","0.0-0.0-1.0","go-nogo","true","0","[{""page_index"":0,""viewing_time"":6998}]","","","","","","","","","","","","",""
"","418","32","1182","250","practice","poldrack-categorize","2","12400","0.0-1.0-0.0","go-nogo","true","0","","true","<div class = centerbox><div  id = stim2></div></div>","32","32","750","1000","practice","go","0","random","","",""
"","309","32","1148","250","practice","poldrack-categorize","3","14807","0.0-1.0-1.0","go-nogo","true","0","","true","<div class = centerbox><div  id = stim2></div></div>","32","32","750","1000","practice","go","1","random","","",""
"","-1","-1","1351","250","practice","poldrack-categorize","4","17416","0.0-1.0-2.0","go-nogo","true","0","","true","<div class = centerbox><div id = stim1></div></div>","-1","32","750","1000","practice","nogo","2","random","","",""
"","270","32","1310","250","practice","poldrack-categorize","5","19984","0.0-1.0-3.0","go-nogo","true","0","","true","<div class = centerbox><div  id = stim2></div></div>","32","32","750","1000","practice","go","3","random","","",""
"","-1","-1","1315","250","practice","poldrack-categorize","6","22557","0.0-1.0-4.0","go-nogo","true","0","","true","<div class = centerbox><div id = stim1></div></div>","-1","32","750","1000","practice","nogo","4","random","","",""
"","-1","-1","1117","250","practice","poldrack-categorize","7","24932","0.0-1.0-5.0","go-nogo","true","0","","true","<div class = centerbox><div id = stim1></div></div>","-1","32","750","1000","practice","nogo","5","random","","",""
"","-1","-1","1410","250","practice","poldrack-categorize","8","27600","0.0-1.0-6.0","go-nogo","true","0","","true","<div class = centerbox><div id = stim1></div></div>","-1","32","750","1000","practice","nogo","6","random","","",""
"","388","32","1486","250","practice","poldrack-categorize","9","30344","0.0-1.0-7.0","go-nogo","true","0","","true","<div class = centerbox><div  id = stim2></div></div>","32","32","750","1000","practice","go","7","random","","",""
"","306","32","1198","250","practice","poldrack-categorize","10","32799","0.0-1.0-8.0","go-nogo","true","0","","true","<div class = centerbox><div  id = stim2></div></div>","32","32","750","1000","practice","go","8","random","","",""
"","-1","-1","1061","250","practice","poldrack-categorize","11","35117","0.0-1.0-9.0","go-nogo","true","0","","true","<div class = centerbox><div id = stim1></div></div>","-1","32","750","1000","practice","nogo","9","random","","",""
"","","","","","reset_trial","call-function","12","35370","0.0-3.0","go-nogo","true","0","","","","","","","","","","","","","",""
"<div class = centerbox><p class = block-text>Practice is over, we will now begin the experiment. You will no longer get feedback about your responses.</p><p class = block-text>Remember, if you see the <font color=""blue"">blue</font> square you should <strong> respond by pressing the spacebar as quickly as possible</strong>. If you see the <font color=""orange"">orange</font> square you should <strong> not respond</strong>. Press <strong>enter</strong> to begin.</p></div>","4055","13","4055","1000","test_intro","poldrack-text","13","39426","0.0-4.0","go-nogo","true","0","","","","","","","","","","","","","",""
"","282","32","1217","0","test_block","poldrack-single-stim","14","41648","0.0-5.0-0.0","go-nogo","true","0","","true","<div class = centerbox><div  id = stim2></div></div>","32","32","750","","test","go","0","random","","",""
"","535","32","1485","0","test_block","poldrack-single-stim","15","43244","0.0-5.0-1.0","go-nogo","true","0","","true","<div class = centerbox><div  id = stim2></div></div>","32","32","750","","test","go","1","random","","",""
"","353","32","1495","0","test_block","poldrack-single-stim","16","44801","0.0-5.0-2.0","go-nogo","true","0","","true","<div class = centerbox><div  id = stim2></div></div>","32","32","750","","test","go","2","random","","",""
"","-1","-1","1433","0","test_block","poldrack-single-stim","17","46285","0.0-5.0-3.0","go-nogo","true","0","","true","<div class = centerbox><div  id = stim1></div></div>","-1","32","750","","test","nogo","3","random","","",""
"","347","32","1335","0","test_block","poldrack-single-stim","18","47689","0.0-5.0-4.0","go-nogo","true","0","","true","<div class = centerbox><div  id = stim2></div></div>","32","32","750","","test","go","4","random","","",""
"","339","32","1335","0","test_block","poldrack-single-stim","19","49118","0.0-5.0-5.0","go-nogo","true","0","","true","<div class = centerbox><div  id = stim2></div></div>","32","32","750","","test","go","5","random","","",""
"","-1","-1","1124","0","test_block","poldrack-single-stim","20","50320","0.0-5.0-6.0","go-nogo","true","0","","true","<div class = centerbox><div  id = stim1></div></div>","-1","32","750","","test","nogo","6","random","","",""
"","271","32","1093","0","test_block","poldrack-single-stim","21","51500","0.0-5.0-7.0","go-nogo","true","0","","true","<div class = centerbox><div  id = stim2></div></div>","32","32","750","","test","go","7","random","","",""
"","-1","-1","1039","0","test_block","poldrack-single-stim","22","52616","0.0-5.0-8.0","go-nogo","true","0","","true","<div class = centerbox><div  id = stim1></div></div>","-1","32","750","","test","nogo","8","random","","",""
"","223","32","1478","0","test_block","poldrack-single-stim","23","54183","0.0-5.0-9.0","go-nogo","true","0","","true","<div class = centerbox><div  id = stim2></div></div>","32","32","750","","test","go","9","random","","",""
"","248","32","1364","0","test_block","poldrack-single-stim","24","55593","0.0-5.0-10.0","go-nogo","true","0","","true","<div class = centerbox><div  id = stim2></div></div>","32","32","750","","test","go","10","random","","",""
"","362","32","1438","0","test_block","poldrack-single-stim","25","57117","0.0-5.0-11.0","go-nogo","true","0","","true","<div class = centerbox><div  id = stim2></div></div>","32","32","750","","test","go","11","random","","",""
"","342","32","1139","0","test_block","poldrack-single-stim","26","58290","0.0-5.0-12.0","go-nogo","true","0","","true","<div class = centerbox><div  id = stim2></div></div>","32","32","750","","test","go","12","random","","",""
"","363","32","1373","0","test_block","poldrack-single-stim","27","59693","0.0-5.0-13.0","go-nogo","true","0","","true","<div class = centerbox><div  id = stim2></div></div>","32","32","750","","test","go","13","random","","",""
"","316","32","1181","0","test_block","poldrack-single-stim","28","60945","0.0-5.0-14.0","go-nogo","true","0","","true","<div class = centerbox><div  id = stim2></div></div>","32","32","750","","test","go","14","random","","",""
"","326","32","1425","0","test_block","poldrack-single-stim","29","62439","0.0-5.0-15.0","go-nogo","true","0","","true","<div class = centerbox><div  id = stim2></div></div>","32","32","750","","test","go","15","random","","",""
"","287","32","1440","0","test_block","poldrack-single-stim","30","63953","0.0-5.0-16.0","go-nogo","true","0","","true","<div class = centerbox><div  id = stim2></div></div>","32","32","750","","test","go","16","random","","",""
"","274","32","1051","0","test_block","poldrack-single-stim","31","65076","0.0-5.0-17.0","go-nogo","true","0","","true","<div class = centerbox><div  id = stim2></div></div>","32","32","750","","test","go","17","random","","",""
"","881","32","1088","0","test_block","poldrack-single-stim","32","66234","0.0-5.0-18.0","go-nogo","true","0","","true","<div class = centerbox><div  id = stim2></div></div>","32","32","750","","test","go","18","random","","",""
"","638","32","1133","0","test_block","poldrack-single-stim","33","67442","0.0-5.0-19.0","go-nogo","true","0","","true","<div class = centerbox><div  id = stim2></div></div>","32","32","750","","test","go","19","random","","",""
"","298","32","1044","0","test_block","poldrack-single-stim","34","68553","0.0-5.0-20.0","go-nogo","true","0","","true","<div class = centerbox><div  id = stim2></div></div>","32","32","750","","test","go","20","random","","",""
"","-1","-1","1114","0","test_block","poldrack-single-stim","35","69745","0.0-5.0-21.0","go-nogo","true","0","","true","<div class = centerbox><div  id = stim1></div></div>","-1","32","750","","test","nogo","21","random","","",""
"","265","32","1123","0","test_block","poldrack-single-stim","36","70941","0.0-5.0-22.0","go-nogo","true","0","","true","<div class = centerbox><div  id = stim2></div></div>","32","32","750","","test","go","22","random","","",""
"","315","32","1439","0","test_block","poldrack-single-stim","37","72440","0.0-5.0-23.0","go-nogo","true","0","","true","<div class = centerbox><div  id = stim2></div></div>","32","32","750","","test","go","23","random","","",""
"","273","32","1338","0","test_block","poldrack-single-stim","38","73870","0.0-5.0-24.0","go-nogo","true","0","","true","<div class = centerbox><div  id = stim2></div></div>","32","32","750","","test","go","24","random","","",""
"","297","32","1193","0","test_block","poldrack-single-stim","39","75125","0.0-5.0-25.0","go-nogo","true","0","","true","<div class = centerbox><div  id = stim2></div></div>","32","32","750","","test","go","25","random","","",""
"","320","32","1135","0","test_block","poldrack-single-stim","40","76328","0.0-5.0-26.0","go-nogo","true","0","","true","<div class = centerbox><div  id = stim2></div></div>","32","32","750","","test","go","26","random","","",""
"","315","32","1319","0","test_block","poldrack-single-stim","41","77732","0.0-5.0-27.0","go-nogo","true","0","","true","<div class = centerbox><div  id = stim2></div></div>","32","32","750","","test","go","27","random","","",""
"","430","32","1379","0","test_block","poldrack-single-stim","42","79178","0.0-5.0-28.0","go-nogo","true","0","","true","<div class = centerbox><div  id = stim2></div></div>","32","32","750","","test","go","28","random","","",""
"","306","32","1073","0","test_block","poldrack-single-stim","43","80322","0.0-5.0-29.0","go-nogo","true","0","","true","<div class = centerbox><div  id = stim2></div></div>","32","32","750","","test","go","29","random","","",""
"","-1","-1","1406","0","test_block","poldrack-single-stim","44","81794","0.0-5.0-30.0","go-nogo","true","0","","true","<div class = centerbox><div  id = stim1></div></div>","-1","32","750","","test","nogo","30","random","","",""
"","284","32","1266","0","test_block","poldrack-single-stim","45","83127","0.0-5.0-31.0","go-nogo","true","0","","true","<div class = centerbox><div  id = stim2></div></div>","32","32","750","","test","go","31","random","","",""
"","327","32","1068","0","test_block","poldrack-single-stim","46","84257","0.0-5.0-32.0","go-nogo","true","0","","true","<div class = centerbox><div  id = stim2></div></div>","32","32","750","","test","go","32","random","","",""
"","358","32","1445","0","test_block","poldrack-single-stim","47","85778","0.0-5.0-33.0","go-nogo","true","0","","true","<div class = centerbox><div  id = stim2></div></div>","32","32","750","","test","go","33","random","","",""
"","-1","-1","1364","0","test_block","poldrack-single-stim","48","87209","0.0-5.0-34.0","go-nogo","true","0","","true","<div class = centerbox><div  id = stim1></div></div>","-1","32","750","","test","nogo","34","random","","",""
"","406","32","1010","0","test_block","poldrack-single-stim","49","88300","0.0-5.0-35.0","go-nogo","true","0","","true","<div class = centerbox><div  id = stim2></div></div>","32","32","750","","test","go","35","random","","",""
"","514","32","1035","0","test_block","poldrack-single-stim","50","89405","0.0-5.0-36.0","go-nogo","true","0","","true","<div class = centerbox><div  id = stim2></div></div>","32","32","750","","test","go","36","random","","",""
"","335","32","1388","0","test_block","poldrack-single-stim","51","90873","0.0-5.0-37.0","go-nogo","true","0","","true","<div class = centerbox><div  id = stim2></div></div>","32","32","750","","test","go","37","random","","",""
"","456","32","1301","0","test_block","poldrack-single-stim","52","92199","0.0-5.0-38.0","go-nogo","true","0","","true","<div class = centerbox><div  id = stim2></div></div>","32","32","750","","test","go","38","random","","",""
"","315","32","1443","0","test_block","poldrack-single-stim","53","93711","0.0-5.0-39.0","go-nogo","true","0","","true","<div class = centerbox><div  id = stim2></div></div>","32","32","750","","test","go","39","random","","",""
"","285","32","1472","0","test_block","poldrack-single-stim","54","95212","0.0-5.0-40.0","go-nogo","true","0","","true","<div class = centerbox><div  id = stim2></div></div>","32","32","750","","test","go","40","random","","",""
"","280","32","1168","0","test_block","poldrack-single-stim","55","96463","0.0-5.0-41.0","go-nogo","true","0","","true","<div class = centerbox><div  id = stim2></div></div>","32","32","750","","test","go","41","random","","",""
"","376","32","1145","0","test_block","poldrack-single-stim","56","97640","0.0-5.0-42.0","go-nogo","true","0","","true","<div class = centerbox><div  id = stim2></div></div>","32","32","750","","test","go","42","random","","",""
"","360","32","1301","0","test_block","poldrack-single-stim","57","99008","0.0-5.0-43.0","go-nogo","true","0","","true","<div class = centerbox><div  id = stim2></div></div>","32","32","750","","test","go","43","random","","",""
"","430","32","1365","0","test_block","poldrack-single-stim","58","100439","0.0-5.0-44.0","go-nogo","true","0","","true","<div class = centerbox><div  id = stim2></div></div>","32","32","750","","test","go","44","random","","",""
"","302","32","1148","0","test_block","poldrack-single-stim","59","101666","0.0-5.0-45.0","go-nogo","true","0","","true","<div class = centerbox><div  id = stim2></div></div>","32","32","750","","test","go","45","random","","",""
"","542","32","1483","0","test_block","poldrack-single-stim","60","103220","0.0-5.0-46.0","go-nogo","true","0","","true","<div class = centerbox><div  id = stim2></div></div>","32","32","750","","test","go","46","random","","",""
"","322","32","1229","0","test_block","poldrack-single-stim","61","104515","0.0-5.0-47.0","go-nogo","true","0","","true","<div class = centerbox><div  id = stim2></div></div>","32","32","750","","test","go","47","random","","",""
"","318","32","1491","0","test_block","poldrack-single-stim","62","106060","0.0-5.0-48.0","go-nogo","true","0","","true","<div class = centerbox><div  id = stim2></div></div>","32","32","750","","test","go","48","random","","",""
"","305","32","1090","0","test_block","poldrack-single-stim","63","107221","0.0-5.0-49.0","go-nogo","true","0","","true","<div class = centerbox><div  id = stim2></div></div>","32","32","750","","test","go","49","random","","",""
"","460","32","1284","0","test_block","poldrack-single-stim","64","108571","0.0-5.0-50.0","go-nogo","true","0","","true","<div class = centerbox><div  id = stim2></div></div>","32","32","750","","test","go","50","random","","",""
"","339","32","1484","0","test_block","poldrack-single-stim","65","110132","0.0-5.0-51.0","go-nogo","true","0","","true","<div class = centerbox><div  id = stim2></div></div>","32","32","750","","test","go","51","random","","",""
"","379","32","1493","0","test_block","poldrack-single-stim","66","111714","0.0-5.0-52.0","go-nogo","true","0","","true","<div class = centerbox><div  id = stim2></div></div>","32","32","750","","test","go","52","random","","",""
"","372","32","1043","0","test_block","poldrack-single-stim","67","112822","0.0-5.0-53.0","go-nogo","true","0","","true","<div class = centerbox><div  id = stim2></div></div>","32","32","750","","test","go","53","random","","",""
"","706","32","1171","0","test_block","poldrack-single-stim","68","114056","0.0-5.0-54.0","go-nogo","true","0","","true","<div class = centerbox><div  id = stim2></div></div>","32","32","750","","test","go","54","random","","",""
"","675","32","1222","0","test_block","poldrack-single-stim","69","115368","0.0-5.0-55.0","go-nogo","true","0","","true","<div class = centerbox><div  id = stim2></div></div>","32","32","750","","test","go","55","random","","",""
"","486","32","1387","0","test_block","poldrack-single-stim","70","116828","0.0-5.0-56.0","go-nogo","true","0","","true","<div class = centerbox><div  id = stim2></div></div>","32","32","750","","test","go","56","random","","",""
"","419","32","1053","0","test_block","poldrack-single-stim","71","117954","0.0-5.0-57.0","go-nogo","true","0","","true","<div class = centerbox><div  id = stim2></div></div>","32","32","750","","test","go","57","random","","",""
"","335","32","1436","0","test_block","poldrack-single-stim","72","119471","0.0-5.0-58.0","go-nogo","true","0","","true","<div class = centerbox><div  id = stim2></div></div>","32","32","750","","test","go","58","random","","",""
"","-1","-1","1231","0","test_block","poldrack-single-stim","73","120767","0.0-5.0-59.0","go-nogo","true","0","","true","<div class = centerbox><div  id = stim1></div></div>","-1","32","750","","test","nogo","59","random","","",""
"","349","32","1041","0","test_block","poldrack-single-stim","74","121871","0.0-5.0-60.0","go-nogo","true","0","","true","<div class = centerbox><div  id = stim2></div></div>","32","32","750","","test","go","60","random","","",""
"","460","32","1004","0","test_block","poldrack-single-stim","75","122942","0.0-5.0-61.0","go-nogo","true","0","","true","<div class = centerbox><div  id = stim2></div></div>","32","32","750","","test","go","61","random","","",""
"","425","32","1253","0","test_block","poldrack-single-stim","76","124269","0.0-5.0-62.0","go-nogo","true","0","","true","<div class = centerbox><div  id = stim2></div></div>","32","32","750","","test","go","62","random","","",""
"","348","32","1219","0","test_block","poldrack-single-stim","77","125568","0.0-5.0-63.0","go-nogo","true","0","","true","<div class = centerbox><div  id = stim2></div></div>","32","32","750","","test","go","63","random","","",""
"","364","32","1483","0","test_block","poldrack-single-stim","78","127113","0.0-5.0-64.0","go-nogo","true","0","","true","<div class = centerbox><div  id = stim2></div></div>","32","32","750","","test","go","64","random","","",""
"","352","32","1123","0","test_block","poldrack-single-stim","79","128291","0.0-5.0-65.0","go-nogo","true","0","","true","<div class = centerbox><div  id = stim2></div></div>","32","32","750","","test","go","65","random","","",""
"","627","32","1291","0","test_block","poldrack-single-stim","80","129644","0.0-5.0-66.0","go-nogo","true","0","","true","<div class = centerbox><div  id = stim2></div></div>","32","32","750","","test","go","66","random","","",""
"","491","32","1017","0","test_block","poldrack-single-stim","81","130729","0.0-5.0-67.0","go-nogo","true","0","","true","<div class = centerbox><div  id = stim2></div></div>","32","32","750","","test","go","67","random","","",""
"","376","32","1113","0","test_block","poldrack-single-stim","82","131926","0.0-5.0-68.0","go-nogo","true","0","","true","<div class = centerbox><div  id = stim2></div></div>","32","32","750","","test","go","68","random","","",""
"","-1","-1","1188","0","test_block","poldrack-single-stim","83","133181","0.0-5.0-69.0","go-nogo","true","0","","true","<div class = centerbox><div  id = stim1></div></div>","-1","32","750","","test","nogo","69","random","","",""
"","275","32","1050","0","test_block","poldrack-single-stim","84","134300","0.0-5.0-70.0","go-nogo","true","0","","true","<div class = centerbox><div  id = stim2></div></div>","32","32","750","","test","go","70","random","","",""
"","376","32","1400","0","test_block","poldrack-single-stim","85","135766","0.0-5.0-71.0","go-nogo","true","0","","true","<div class = centerbox><div  id = stim2></div></div>","32","32","750","","test","go","71","random","","",""
"","267","32","1084","0","test_block","poldrack-single-stim","86","136903","0.0-5.0-72.0","go-nogo","true","0","","true","<div class = centerbox><div  id = stim2></div></div>","32","32","750","","test","go","72","random","","",""
"","386","32","1037","0","test_block","poldrack-single-stim","87","138002","0.0-5.0-73.0","go-nogo","true","0","","true","<div class = centerbox><div  id = stim2></div></div>","32","32","750","","test","go","73","random","","",""
"","330","32","1099","0","test_block","poldrack-single-stim","88","139167","0.0-5.0-74.0","go-nogo","true","0","","true","<div class = centerbox><div  id = stim2></div></div>","32","32","750","","test","go","74","random","","",""
"","287","32","1180","0","test_block","poldrack-single-stim","89","140409","0.0-5.0-75.0","go-nogo","true","0","","true","<div class = centerbox><div  id = stim2></div></div>","32","32","750","","test","go","75","random","","",""
"","255","32","1453","0","test_block","poldrack-single-stim","90","141928","0.0-5.0-76.0","go-nogo","true","0","","true","<div class = centerbox><div  id = stim2></div></div>","32","32","750","","test","go","76","random","","",""
"","309","32","1404","0","test_block","poldrack-single-stim","91","143390","0.0-5.0-77.0","go-nogo","true","0","","true","<div class = centerbox><div  id = stim2></div></div>","32","32","750","","test","go","77","random","","",""
"","362","32","1315","0","test_block","poldrack-single-stim","92","144767","0.0-5.0-78.0","go-nogo","true","0","","true","<div class = centerbox><div  id = stim2></div></div>","32","32","750","","test","go","78","random","","",""
"","-1","-1","1191","0","test_block","poldrack-single-stim","93","146020","0.0-5.0-79.0","go-nogo","true","0","","true","<div class = centerbox><div  id = stim1></div></div>","-1","32","750","","test","nogo","79","random","","",""
"","310","32","1023","0","test_block","poldrack-single-stim","94","147110","0.0-5.0-80.0","go-nogo","true","0","","true","<div class = centerbox><div  id = stim2></div></div>","32","32","750","","test","go","80","random","","",""
"","348","32","1128","0","test_block","poldrack-single-stim","95","148299","0.0-5.0-81.0","go-nogo","true","0","","true","<div class = centerbox><div  id = stim2></div></div>","32","32","750","","test","go","81","random","","",""
"","320","32","1196","0","test_block","poldrack-single-stim","96","149567","0.0-5.0-82.0","go-nogo","true","0","","true","<div class = centerbox><div  id = stim2></div></div>","32","32","750","","test","go","82","random","","",""
"","320","32","1028","0","test_block","poldrack-single-stim","97","150663","0.0-5.0-83.0","go-nogo","true","0","","true","<div class = centerbox><div  id = stim2></div></div>","32","32","750","","test","go","83","random","","",""
"","386","32","1069","0","test_block","poldrack-single-stim","98","151795","0.0-5.0-84.0","go-nogo","true","0","","true","<div class = centerbox><div  id = stim2></div></div>","32","32","750","","test","go","84","random","","",""
"","344","32","1288","0","test_block","poldrack-single-stim","99","153138","0.0-5.0-85.0","go-nogo","true","0","","true","<div class = centerbox><div  id = stim2></div></div>","32","32","750","","test","go","85","random","","",""
"","342","32","1207","0","test_block","poldrack-single-stim","100","154397","0.0-5.0-86.0","go-nogo","true","0","","true","<div class = centerbox><div  id = stim2></div></div>","32","32","750","","test","go","86","random","","",""
"","511","32","1245","0","test_block","poldrack-single-stim","101","155698","0.0-5.0-87.0","go-nogo","true","0","","true","<div class = centerbox><div  id = stim2></div></div>","32","32","750","","test","go","87","random","","",""
"","533","32","1090","0","test_block","poldrack-single-stim","102","156845","0.0-5.0-88.0","go-nogo","true","0","","true","<div class = centerbox><div  id = stim2></div></div>","32","32","750","","test","go","88","random","","",""
"","386","32","1080","0","test_block","poldrack-single-stim","103","157986","0.0-5.0-89.0","go-nogo","true","0","","true","<div class = centerbox><div  id = stim2></div></div>","32","32","750","","test","go","89","random","","",""
"","316","32","1458","0","test_block","poldrack-single-stim","104","159505","0.0-5.0-90.0","go-nogo","true","0","","true","<div class = centerbox><div  id = stim2></div></div>","32","32","750","","test","go","90","random","","",""
"","341","32","1347","0","test_block","poldrack-single-stim","105","160913","0.0-5.0-91.0","go-nogo","true","0","","true","<div class = centerbox><div  id = stim2></div></div>","32","32","750","","test","go","91","random","","",""
"","271","32","1311","0","test_block","poldrack-single-stim","106","162287","0.0-5.0-92.0","go-nogo","true","0","","true","<div class = centerbox><div  id = stim2></div></div>","32","32","750","","test","go","92","random","","",""
"","244","32","1019","0","test_block","poldrack-single-stim","107","163367","0.0-5.0-93.0","go-nogo","true","0","","true","<div class = centerbox><div  id = stim2></div></div>","32","32","750","","test","go","93","random","","",""
"","-1","-1","1223","0","test_block","poldrack-single-stim","108","164649","0.0-5.0-94.0","go-nogo","true","0","","true","<div class = centerbox><div  id = stim1></div></div>","-1","32","750","","test","nogo","94","random","","",""
"","243","32","1007","0","test_block","poldrack-single-stim","109","165732","0.0-5.0-95.0","go-nogo","true","0","","true","<div class = centerbox><div  id = stim2></div></div>","32","32","750","","test","go","95","random","","",""
"","503","32","1016","0","test_block","poldrack-single-stim","110","166821","0.0-5.0-96.0","go-nogo","true","0","","true","<div class = centerbox><div  id = stim2></div></div>","32","32","750","","test","go","96","random","","",""
"","351","32","1042","0","test_block","poldrack-single-stim","111","167923","0.0-5.0-97.0","go-nogo","true","0","","true","<div class = centerbox><div  id = stim2></div></div>","32","32","750","","test","go","97","random","","",""
"","191","32","1034","0","test_block","poldrack-single-stim","112","169016","0.0-5.0-98.0","go-nogo","true","0","","true","<div class = centerbox><div  id = stim2></div></div>","32","32","750","","test","go","98","random","","",""
"","312","32","1286","0","test_block","poldrack-single-stim","113","170360","0.0-5.0-99.0","go-nogo","true","0","","true","<div class = centerbox><div  id = stim2></div></div>","32","32","750","","test","go","99","random","","",""
"","304","32","1356","0","test_block","poldrack-single-stim","114","171771","0.0-5.0-100.0","go-nogo","true","0","","true","<div class = centerbox><div  id = stim2></div></div>","32","32","750","","test","go","100","random","","",""
"","106","32","1137","0","test_block","poldrack-single-stim","115","172969","0.0-5.0-101.0","go-nogo","true","0","","true","<div class = centerbox><div  id = stim2></div></div>","32","32","750","","test","go","101","random","","",""
"","131","32","1487","0","test_block","poldrack-single-stim","116","174528","0.0-5.0-102.0","go-nogo","true","0","","true","<div class = centerbox><div  id = stim2></div></div>","32","32","750","","test","go","102","random","","",""
"","470","32","1435","0","test_block","poldrack-single-stim","117","175998","0.0-5.0-103.0","go-nogo","true","0","","true","<div class = centerbox><div  id = stim2></div></div>","32","32","750","","test","go","103","random","","",""
"","1","32","1116","0","test_block","poldrack-single-stim","118","177179","0.0-5.0-104.0","go-nogo","true","0","","true","<div class = centerbox><div  id = stim2></div></div>","32","32","750","","test","go","104","random","","",""
"","404","32","1409","0","test_block","poldrack-single-stim","119","178647","0.0-5.0-105.0","go-nogo","true","0","","true","<div class = centerbox><div  id = stim2></div></div>","32","32","750","","test","go","105","random","","",""
"","862","32","1172","0","test_block","poldrack-single-stim","120","179888","0.0-5.0-106.0","go-nogo","true","0","","true","<div class = centerbox><div  id = stim2></div></div>","32","32","750","","test","go","106","random","","",""
"","-1","-1","1218","0","test_block","poldrack-single-stim","121","181164","0.0-5.0-107.0","go-nogo","true","0","","false","<div class = centerbox><div  id = stim2></div></div>","32","32","750","","test","go","107","random","","",""
"","1","32","1181","0","test_block","poldrack-single-stim","122","182401","0.0-5.0-108.0","go-nogo","true","0","","true","<div class = centerbox><div  id = stim2></div></div>","32","32","750","","test","go","108","random","","",""
"","471","32","1018","0","test_block","poldrack-single-stim","123","183478","0.0-5.0-109.0","go-nogo","true","0","","true","<div class = centerbox><div  id = stim2></div></div>","32","32","750","","test","go","109","random","","",""
"","435","32","1096","0","test_block","poldrack-single-stim","124","184645","0.0-5.0-110.0","go-nogo","true","0","","true","<div class = centerbox><div  id = stim2></div></div>","32","32","750","","test","go","110","random","","",""
"","367","32","1308","0","test_block","poldrack-single-stim","125","186014","0.0-5.0-111.0","go-nogo","true","0","","true","<div class = centerbox><div  id = stim2></div></div>","32","32","750","","test","go","111","random","","",""
"","243","32","1289","0","test_block","poldrack-single-stim","126","187375","0.0-5.0-112.0","go-nogo","true","0","","true","<div class = centerbox><div  id = stim2></div></div>","32","32","750","","test","go","112","random","","",""
"","264","32","1305","0","test_block","poldrack-single-stim","127","188737","0.0-5.0-113.0","go-nogo","true","0","","true","<div class = centerbox><div  id = stim2></div></div>","32","32","750","","test","go","113","random","","",""
"","85","32","1011","0","test_block","poldrack-single-stim","128","189809","0.0-5.0-114.0","go-nogo","true","0","","true","<div class = centerbox><div  id = stim2></div></div>","32","32","750","","test","go","114","random","","",""
"","1004","32","1036","0","test_block","poldrack-single-stim","129","190909","0.0-5.0-115.0","go-nogo","true","0","","true","<div class = centerbox><div  id = stim2></div></div>","32","32","750","","test","go","115","random","","",""
"","1119","32","1453","0","test_block","poldrack-single-stim","130","192420","0.0-5.0-116.0","go-nogo","true","0","","true","<div class = centerbox><div  id = stim2></div></div>","32","32","750","","test","go","116","random","","",""
"","486","32","1155","0","test_block","poldrack-single-stim","131","193633","0.0-5.0-117.0","go-nogo","true","0","","true","<div class = centerbox><div  id = stim2></div></div>","32","32","750","","test","go","117","random","","",""
"","293","32","1063","0","test_block","poldrack-single-stim","132","194763","0.0-5.0-118.0","go-nogo","true","0","","true","<div class = centerbox><div  id = stim2></div></div>","32","32","750","","test","go","118","random","","",""
"","1379","32","1382","0","test_block","poldrack-single-stim","133","196201","0.0-5.0-119.0","go-nogo","true","0","","true","<div class = centerbox><div  id = stim2></div></div>","32","32","750","","test","go","119","random","","",""
"","1117","32","1456","0","test_block","poldrack-single-stim","134","197715","0.0-5.0-120.0","go-nogo","true","0","","true","<div class = centerbox><div  id = stim2></div></div>","32","32","750","","test","go","120","random","","",""
"","1318","32","1384","0","test_block","poldrack-single-stim","135","199166","0.0-5.0-121.0","go-nogo","true","0","","false","<div class = centerbox><div  id = stim1></div></div>","-1","32","750","","test","nogo","121","random","","",""
"","-1","-1","1022","0","test_block","poldrack-single-stim","136","200247","0.0-5.0-122.0","go-nogo","true","0","","false","<div class = centerbox><div  id = stim2></div></div>","32","32","750","","test","go","122","random","","",""
"","423","32","1231","0","test_block","poldrack-single-stim","137","201541","0.0-5.0-123.0","go-nogo","true","0","","true","<div class = centerbox><div  id = stim2></div></div>","32","32","750","","test","go","123","random","","",""
"","420","32","1446","0","test_block","poldrack-single-stim","138","203044","0.0-5.0-124.0","go-nogo","true","0","","true","<div class = centerbox><div  id = stim2></div></div>","32","32","750","","test","go","124","random","","",""
"","633","32","1005","0","test_block","poldrack-single-stim","139","204122","0.0-5.0-125.0","go-nogo","true","0","","true","<div class = centerbox><div  id = stim2></div></div>","32","32","750","","test","go","125","random","","",""
"","424","32","1343","0","test_block","poldrack-single-stim","140","205522","0.0-5.0-126.0","go-nogo","true","0","","true","<div class = centerbox><div  id = stim2></div></div>","32","32","750","","test","go","126","random","","",""
"","315","32","1263","0","test_block","poldrack-single-stim","141","206849","0.0-5.0-127.0","go-nogo","true","0","","true","<div class = centerbox><div  id = stim2></div></div>","32","32","750","","test","go","127","random","","",""
"","-1","-1","1053","0","test_block","poldrack-single-stim","142","207965","0.0-5.0-128.0","go-nogo","true","0","","false","<div class = centerbox><div  id = stim2></div></div>","32","32","750","","test","go","128","random","","",""
"","147","32","1103","0","test_block","poldrack-single-stim","143","209128","0.0-5.0-129.0","go-nogo","true","0","","true","<div class = centerbox><div  id = stim2></div></div>","32","32","750","","test","go","129","random","","",""
"","422","32","1272","0","test_block","poldrack-single-stim","144","210471","0.0-5.0-130.0","go-nogo","true","0","","true","<div class = centerbox><div  id = stim2></div></div>","32","32","750","","test","go","130","random","","",""
"","810","32","1163","0","test_block","poldrack-single-stim","145","211699","0.0-5.0-131.0","go-nogo","true","0","","true","<div class = centerbox><div  id = stim2></div></div>","32","32","750","","test","go","131","random","","",""
"","645","32","1388","0","test_block","poldrack-single-stim","146","213151","0.0-5.0-132.0","go-nogo","true","0","","true","<div class = centerbox><div  id = stim2></div></div>","32","32","750","","test","go","132","random","","",""
"","-1","-1","1423","0","test_block","poldrack-single-stim","147","214635","0.0-5.0-133.0","go-nogo","true","0","","false","<div class = centerbox><div  id = stim2></div></div>","32","32","750","","test","go","133","random","","",""
"","1","32","1336","0","test_block","poldrack-single-stim","148","216023","0.0-5.0-134.0","go-nogo","true","0","","true","<div class = centerbox><div  id = stim2></div></div>","32","32","750","","test","go","134","random","","",""
"","411","32","1147","0","test_block","poldrack-single-stim","149","217229","0.0-5.0-135.0","go-nogo","true","0","","true","<div class = centerbox><div  id = stim2></div></div>","32","32","750","","test","go","135","random","","",""
"","-1","-1","1356","0","test_block","poldrack-single-stim","150","218648","0.0-5.0-136.0","go-nogo","true","0","","false","<div class = centerbox><div  id = stim2></div></div>","32","32","750","","test","go","136","random","","",""
"","292","32","1041","0","test_block","poldrack-single-stim","151","219747","0.0-5.0-137.0","go-nogo","true","0","","true","<div class = centerbox><div  id = stim2></div></div>","32","32","750","","test","go","137","random","","",""
"","386","32","1450","0","test_block","poldrack-single-stim","152","221258","0.0-5.0-138.0","go-nogo","true","0","","true","<div class = centerbox><div  id = stim2></div></div>","32","32","750","","test","go","138","random","","",""
"","258","32","1467","0","test_block","poldrack-single-stim","153","222788","0.0-5.0-139.0","go-nogo","true","0","","true","<div class = centerbox><div  id = stim2></div></div>","32","32","750","","test","go","139","random","","",""
"","93","32","1130","0","test_block","poldrack-single-stim","154","223976","0.0-5.0-140.0","go-nogo","true","0","","true","<div class = centerbox><div  id = stim2></div></div>","32","32","750","","test","go","140","random","","",""
"","268","32","1292","0","test_block","poldrack-single-stim","155","225304","0.0-5.0-141.0","go-nogo","true","0","","true","<div class = centerbox><div  id = stim2></div></div>","32","32","750","","test","go","141","random","","",""
"","-1","-1","1043","0","test_block","poldrack-single-stim","156","226404","0.0-5.0-142.0","go-nogo","true","0","","false","<div class = centerbox><div  id = stim2></div></div>","32","32","750","","test","go","142","random","","",""
"","675","32","1037","0","test_block","poldrack-single-stim","157","227498","0.0-5.0-143.0","go-nogo","true","0","","true","<div class = centerbox><div  id = stim2></div></div>","32","32","750","","test","go","143","random","","",""
"","586","32","1009","0","test_block","poldrack-single-stim","158","228559","0.0-5.0-144.0","go-nogo","true","0","","true","<div class = centerbox><div  id = stim2></div></div>","32","32","750","","test","go","144","random","","",""
"","282","32","1135","0","test_block","poldrack-single-stim","159","229752","0.0-5.0-145.0","go-nogo","true","0","","true","<div class = centerbox><div  id = stim2></div></div>","32","32","750","","test","go","145","random","","",""
"","438","32","1376","0","test_block","poldrack-single-stim","160","231157","0.0-5.0-146.0","go-nogo","true","0","","true","<div class = centerbox><div  id = stim2></div></div>","32","32","750","","test","go","146","random","","",""
"","1","32","1255","0","test_block","poldrack-single-stim","161","232467","0.0-5.0-147.0","go-nogo","true","0","","true","<div class = centerbox><div  id = stim2></div></div>","32","32","750","","test","go","147","random","","",""
"","325","32","1098","0","test_block","poldrack-single-stim","162","233616","0.0-5.0-148.0","go-nogo","true","0","","true","<div class = centerbox><div  id = stim2></div></div>","32","32","750","","test","go","148","random","","",""
"","349","32","1373","0","test_block","poldrack-single-stim","163","235059","0.0-5.0-149.0","go-nogo","true","0","","true","<div class = centerbox><div  id = stim2></div></div>","32","32","750","","test","go","149","random","","",""
"","268","32","1018","0","test_block","poldrack-single-stim","164","236136","0.0-5.0-150.0","go-nogo","true","0","","true","<div class = centerbox><div  id = stim2></div></div>","32","32","750","","test","go","150","random","","",""
"","282","32","1002","0","test_block","poldrack-single-stim","165","237205","0.0-5.0-151.0","go-nogo","true","0","","true","<div class = centerbox><div  id = stim2></div></div>","32","32","750","","test","go","151","random","","",""
"","237","32","1373","0","test_block","poldrack-single-stim","166","238650","0.0-5.0-152.0","go-nogo","true","0","","true","<div class = centerbox><div  id = stim2></div></div>","32","32","750","","test","go","152","random","","",""
"","846","32","1093","0","test_block","poldrack-single-stim","167","239802","0.0-5.0-153.0","go-nogo","true","0","","true","<div class = centerbox><div  id = stim2></div></div>","32","32","750","","test","go","153","random","","",""
"","-1","-1","1299","0","test_block","poldrack-single-stim","168","241160","0.0-5.0-154.0","go-nogo","true","0","","false","<div class = centerbox><div  id = stim2></div></div>","32","32","750","","test","go","154","random","","",""
"","43","32","1489","0","test_block","poldrack-single-stim","169","242709","0.0-5.0-155.0","go-nogo","true","0","","true","<div class = centerbox><div  id = stim2></div></div>","32","32","750","","test","go","155","random","","",""
"","406","32","1242","0","test_block","poldrack-single-stim","170","244020","0.0-5.0-156.0","go-nogo","true","0","","true","<div class = centerbox><div  id = stim2></div></div>","32","32","750","","test","go","156","random","","",""
"","92","32","1335","0","test_block","poldrack-single-stim","171","245406","0.0-5.0-157.0","go-nogo","true","0","","true","<div class = centerbox><div  id = stim2></div></div>","32","32","750","","test","go","157","random","","",""
"","1000","32","1153","0","test_block","poldrack-single-stim","172","246613","0.0-5.0-158.0","go-nogo","true","0","","true","<div class = centerbox><div  id = stim2></div></div>","32","32","750","","test","go","158","random","","",""
"","-1","-1","1353","0","test_block","poldrack-single-stim","173","248031","0.0-5.0-159.0","go-nogo","true","0","","true","<div class = centerbox><div  id = stim1></div></div>","-1","32","750","","test","nogo","159","random","","",""
"","-1","-1","1281","0","test_block","poldrack-single-stim","174","249381","0.0-5.0-160.0","go-nogo","true","0","","false","<div class = centerbox><div  id = stim2></div></div>","32","32","750","","test","go","160","random","","",""
"","533","32","1116","0","test_block","poldrack-single-stim","175","250564","0.0-5.0-161.0","go-nogo","true","0","","true","<div class = centerbox><div  id = stim2></div></div>","32","32","750","","test","go","161","random","","",""
"","-1","-1","1112","0","test_block","poldrack-single-stim","176","251739","0.0-5.0-162.0","go-nogo","true","0","","false","<div class = centerbox><div  id = stim2></div></div>","32","32","750","","test","go","162","random","","",""
"","210","32","1241","0","test_block","poldrack-single-stim","177","253054","0.0-5.0-163.0","go-nogo","true","0","","true","<div class = centerbox><div  id = stim2></div></div>","32","32","750","","test","go","163","random","","",""
"","364","32","1438","0","test_block","poldrack-single-stim","178","254558","0.0-5.0-164.0","go-nogo","true","0","","true","<div class = centerbox><div  id = stim2></div></div>","32","32","750","","test","go","164","random","","",""
"","422","32","1038","0","test_block","poldrack-single-stim","179","255667","0.0-5.0-165.0","go-nogo","true","0","","true","<div class = centerbox><div  id = stim2></div></div>","32","32","750","","test","go","165","random","","",""
"","408","32","1333","0","test_block","poldrack-single-stim","180","257063","0.0-5.0-166.0","go-nogo","true","0","","true","<div class = centerbox><div  id = stim2></div></div>","32","32","750","","test","go","166","random","","",""
"","-1","-1","1314","0","test_block","poldrack-single-stim","181","258437","0.0-5.0-167.0","go-nogo","true","0","","false","<div class = centerbox><div  id = stim2></div></div>","32","32","750","","test","go","167","random","","",""
"","356","32","1412","0","test_block","poldrack-single-stim","182","259904","0.0-5.0-168.0","go-nogo","true","0","","true","<div class = centerbox><div  id = stim2></div></div>","32","32","750","","test","go","168","random","","",""
"","304","32","1303","0","test_block","poldrack-single-stim","183","261261","0.0-5.0-169.0","go-nogo","true","0","","true","<div class = centerbox><div  id = stim2></div></div>","32","32","750","","test","go","169","random","","",""
"","290","32","1236","0","test_block","poldrack-single-stim","184","262551","0.0-5.0-170.0","go-nogo","true","0","","true","<div class = centerbox><div  id = stim2></div></div>","32","32","750","","test","go","170","random","","",""
"","-1","-1","1032","0","test_block","poldrack-single-stim","185","263642","0.0-5.0-171.0","go-nogo","true","0","","true","<div class = centerbox><div  id = stim1></div></div>","-1","32","750","","test","nogo","171","random","","",""
"","363","32","1197","0","test_block","poldrack-single-stim","186","264905","0.0-5.0-172.0","go-nogo","true","0","","true","<div class = centerbox><div  id = stim2></div></div>","32","32","750","","test","go","172","random","","",""
"","352","32","1381","0","test_block","poldrack-single-stim","187","266340","0.0-5.0-173.0","go-nogo","true","0","","true","<div class = centerbox><div  id = stim2></div></div>","32","32","750","","test","go","173","random","","",""
"","259","32","1415","0","test_block","poldrack-single-stim","188","267815","0.0-5.0-174.0","go-nogo","true","0","","true","<div class = centerbox><div  id = stim2></div></div>","32","32","750","","test","go","174","random","","",""
"","-1","-1","1331","0","test_block","poldrack-single-stim","189","269204","0.0-5.0-175.0","go-nogo","true","0","","false","<div class = centerbox><div  id = stim2></div></div>","32","32","750","","test","go","175","random","","",""
"","338","32","1448","0","test_block","poldrack-single-stim","190","270706","0.0-5.0-176.0","go-nogo","true","0","","true","<div class = centerbox><div  id = stim2></div></div>","32","32","750","","test","go","176","random","","",""
"","157","32","1146","0","test_block","poldrack-single-stim","191","271925","0.0-5.0-177.0","go-nogo","true","0","","true","<div class = centerbox><div  id = stim2></div></div>","32","32","750","","test","go","177","random","","",""
"","199","32","1179","0","test_block","poldrack-single-stim","192","273163","0.0-5.0-178.0","go-nogo","true","0","","true","<div class = centerbox><div  id = stim2></div></div>","32","32","750","","test","go","178","random","","",""
"","27","32","1141","0","test_block","poldrack-single-stim","193","274368","0.0-5.0-179.0","go-nogo","true","0","","true","<div class = centerbox><div  id = stim2></div></div>","32","32","750","","test","go","179","random","","",""
"","973","32","1305","0","test_block","poldrack-single-stim","194","275733","0.0-5.0-180.0","go-nogo","true","0","","true","<div class = centerbox><div  id = stim2></div></div>","32","32","750","","test","go","180","random","","",""
"","551","32","1205","0","test_block","poldrack-single-stim","195","277003","0.0-5.0-181.0","go-nogo","true","0","","true","<div class = centerbox><div  id = stim2></div></div>","32","32","750","","test","go","181","random","","",""
"","463","32","1196","0","test_block","poldrack-single-stim","196","278256","0.0-5.0-182.0","go-nogo","true","0","","true","<div class = centerbox><div  id = stim2></div></div>","32","32","750","","test","go","182","random","","",""
"","324","32","1070","0","test_block","poldrack-single-stim","197","279393","0.0-5.0-183.0","go-nogo","true","0","","true","<div class = centerbox><div  id = stim2></div></div>","32","32","750","","test","go","183","random","","",""
"","318","32","1317","0","test_block","poldrack-single-stim","198","280760","0.0-5.0-184.0","go-nogo","true","0","","true","<div class = centerbox><div  id = stim2></div></div>","32","32","750","","test","go","184","random","","",""
"","-1","-1","1103","0","test_block","poldrack-single-stim","199","281923","0.0-5.0-185.0","go-nogo","true","0","","false","<div class = centerbox><div  id = stim2></div></div>","32","32","750","","test","go","185","random","","",""
"","509","32","1136","0","test_block","poldrack-single-stim","200","283113","0.0-5.0-186.0","go-nogo","true","0","","true","<div class = centerbox><div  id = stim2></div></div>","32","32","750","","test","go","186","random","","",""
"","414","32","1206","0","test_block","poldrack-single-stim","201","284375","0.0-5.0-187.0","go-nogo","true","0","","true","<div class = centerbox><div  id = stim2></div></div>","32","32","750","","test","go","187","random","","",""
"","227","32","1355","0","test_block","poldrack-single-stim","202","285786","0.0-5.0-188.0","go-nogo","true","0","","true","<div class = centerbox><div  id = stim2></div></div>","32","32","750","","test","go","188","random","","",""
"","246","32","1003","0","test_block","poldrack-single-stim","203","286844","0.0-5.0-189.0","go-nogo","true","0","","true","<div class = centerbox><div  id = stim2></div></div>","32","32","750","","test","go","189","random","","",""
"","509","32","1296","0","test_block","poldrack-single-stim","204","288196","0.0-5.0-190.0","go-nogo","true","0","","true","<div class = centerbox><div  id = stim2></div></div>","32","32","750","","test","go","190","random","","",""
"","-1","-1","1214","0","test_block","poldrack-single-stim","205","289465","0.0-5.0-191.0","go-nogo","true","0","","true","<div class = centerbox><div  id = stim1></div></div>","-1","32","750","","test","nogo","191","random","","",""
"","273","32","1319","0","test_block","poldrack-single-stim","206","290841","0.0-5.0-192.0","go-nogo","true","0","","true","<div class = centerbox><div  id = stim2></div></div>","32","32","750","","test","go","192","random","","",""
"","258","32","1234","0","test_block","poldrack-single-stim","207","292137","0.0-5.0-193.0","go-nogo","true","0","","true","<div class = centerbox><div  id = stim2></div></div>","32","32","750","","test","go","193","random","","",""
"","-1","-1","1354","0","test_block","poldrack-single-stim","208","293550","0.0-5.0-194.0","go-nogo","true","0","","true","<div class = centerbox><div  id = stim1></div></div>","-1","32","750","","test","nogo","194","random","","",""
"","-1","-1","1424","0","test_block","poldrack-single-stim","209","295030","0.0-5.0-195.0","go-nogo","true","0","","true","<div class = centerbox><div  id = stim1></div></div>","-1","32","750","","test","nogo","195","random","","",""
"","307","32","1021","0","test_block","poldrack-single-stim","210","296107","0.0-5.0-196.0","go-nogo","true","0","","true","<div class = centerbox><div  id = stim2></div></div>","32","32","750","","test","go","196","random","","",""
"","760","32","1275","0","test_block","poldrack-single-stim","211","297445","0.0-5.0-197.0","go-nogo","true","0","","true","<div class = centerbox><div  id = stim2></div></div>","32","32","750","","test","go","197","random","","",""
"","411","32","1046","0","test_block","poldrack-single-stim","212","298548","0.0-5.0-198.0","go-nogo","true","0","","true","<div class = centerbox><div  id = stim2></div></div>","32","32","750","","test","go","198","random","","",""
"","492","32","1449","0","test_block","poldrack-single-stim","213","300065","0.0-5.0-199.0","go-nogo","true","0","","true","<div class = centerbox><div  id = stim2></div></div>","32","32","750","","test","go","199","random","","",""
"","373","32","1388","0","test_block","poldrack-single-stim","214","301505","0.0-5.0-200.0","go-nogo","true","0","","true","<div class = centerbox><div  id = stim2></div></div>","32","32","750","","test","go","200","random","","",""
"","448","32","1374","0","test_block","poldrack-single-stim","215","302942","0.0-5.0-201.0","go-nogo","true","0","","true","<div class = centerbox><div  id = stim2></div></div>","32","32","750","","test","go","201","random","","",""
"","1229","32","1427","0","test_block","poldrack-single-stim","216","304428","0.0-5.0-202.0","go-nogo","true","0","","true","<div class = centerbox><div  id = stim2></div></div>","32","32","750","","test","go","202","random","","",""
"","-1","-1","1304","0","test_block","poldrack-single-stim","217","305781","0.0-5.0-203.0","go-nogo","true","0","","false","<div class = centerbox><div  id = stim2></div></div>","32","32","750","","test","go","203","random","","",""
"","-1","-1","1028","0","test_block","poldrack-single-stim","218","306859","0.0-5.0-204.0","go-nogo","true","0","","true","<div class = centerbox><div  id = stim1></div></div>","-1","32","750","","test","nogo","204","random","","",""
"","706","32","1249","0","test_block","poldrack-single-stim","219","308165","0.0-5.0-205.0","go-nogo","true","0","","true","<div class = centerbox><div  id = stim2></div></div>","32","32","750","","test","go","205","random","","",""
"","694","32","1064","0","test_block","poldrack-single-stim","220","309283","0.0-5.0-206.0","go-nogo","true","0","","true","<div class = centerbox><div  id = stim2></div></div>","32","32","750","","test","go","206","random","","",""
"","735","32","1282","0","test_block","poldrack-single-stim","221","310619","0.0-5.0-207.0","go-nogo","true","0","","true","<div class = centerbox><div  id = stim2></div></div>","32","32","750","","test","go","207","random","","",""
"","396","32","1207","0","test_block","poldrack-single-stim","222","311885","0.0-5.0-208.0","go-nogo","true","0","","true","<div class = centerbox><div  id = stim2></div></div>","32","32","750","","test","go","208","random","","",""
"","339","32","1432","0","test_block","poldrack-single-stim","223","313379","0.0-5.0-209.0","go-nogo","true","0","","true","<div class = centerbox><div  id = stim2></div></div>","32","32","750","","test","go","209","random","","",""
"","342","32","1368","0","test_block","poldrack-single-stim","224","314803","0.0-5.0-210.0","go-nogo","true","0","","true","<div class = centerbox><div  id = stim2></div></div>","32","32","750","","test","go","210","random","","",""
"","490","32","1137","0","test_block","poldrack-single-stim","225","315997","0.0-5.0-211.0","go-nogo","true","0","","true","<div class = centerbox><div  id = stim2></div></div>","32","32","750","","test","go","211","random","","",""
"","712","32","1228","0","test_block","poldrack-single-stim","226","317280","0.0-5.0-212.0","go-nogo","true","0","","true","<div class = centerbox><div  id = stim2></div></div>","32","32","750","","test","go","212","random","","",""
"","-1","-1","1104","0","test_block","poldrack-single-stim","227","318446","0.0-5.0-213.0","go-nogo","true","0","","false","<div class = centerbox><div  id = stim2></div></div>","32","32","750","","test","go","213","random","","",""
"","380","32","1261","0","test_block","poldrack-single-stim","228","319762","0.0-5.0-214.0","go-nogo","true","0","","true","<div class = centerbox><div  id = stim2></div></div>","32","32","750","","test","go","214","random","","",""
"","279","32","1347","0","test_block","poldrack-single-stim","229","321170","0.0-5.0-215.0","go-nogo","true","0","","true","<div class = centerbox><div  id = stim2></div></div>","32","32","750","","test","go","215","random","","",""
"","1163","32","1302","0","test_block","poldrack-single-stim","230","322525","0.0-5.0-216.0","go-nogo","true","0","","false","<div class = centerbox><div  id = stim1></div></div>","-1","32","750","","test","nogo","216","random","","",""
"","-1","-1","1214","0","test_block","poldrack-single-stim","231","323795","0.0-5.0-217.0","go-nogo","true","0","","false","<div class = centerbox><div  id = stim2></div></div>","32","32","750","","test","go","217","random","","",""
"","232","32","1163","0","test_block","poldrack-single-stim","232","325012","0.0-5.0-218.0","go-nogo","true","0","","true","<div class = centerbox><div  id = stim2></div></div>","32","32","750","","test","go","218","random","","",""
"","413","32","1257","0","test_block","poldrack-single-stim","233","326336","0.0-5.0-219.0","go-nogo","true","0","","true","<div class = centerbox><div  id = stim2></div></div>","32","32","750","","test","go","219","random","","",""
"","330","32","1212","0","test_block","poldrack-single-stim","234","327612","0.0-5.0-220.0","go-nogo","true","0","","true","<div class = centerbox><div  id = stim2></div></div>","32","32","750","","test","go","220","random","","",""
"","326","32","1240","0","test_block","poldrack-single-stim","235","328910","0.0-5.0-221.0","go-nogo","true","0","","true","<div class = centerbox><div  id = stim2></div></div>","32","32","750","","test","go","221","random","","",""
"","386","32","1024","0","test_block","poldrack-single-stim","236","329989","0.0-5.0-222.0","go-nogo","true","0","","false","<div class = centerbox><div  id = stim1></div></div>","-1","32","750","","test","nogo","222","random","","",""
"","521","32","1202","0","test_block","poldrack-single-stim","237","331245","0.0-5.0-223.0","go-nogo","true","0","","true","<div class = centerbox><div  id = stim2></div></div>","32","32","750","","test","go","223","random","","",""
"","636","32","1322","0","test_block","poldrack-single-stim","238","332624","0.0-5.0-224.0","go-nogo","true","0","","true","<div class = centerbox><div  id = stim2></div></div>","32","32","750","","test","go","224","random","","",""
"","348","32","1166","0","test_block","poldrack-single-stim","239","333848","0.0-5.0-225.0","go-nogo","true","0","","true","<div class = centerbox><div  id = stim2></div></div>","32","32","750","","test","go","225","random","","",""
"","433","32","1017","0","test_block","poldrack-single-stim","240","334924","0.0-5.0-226.0","go-nogo","true","0","","true","<div class = centerbox><div  id = stim2></div></div>","32","32","750","","test","go","226","random","","",""
"","449","32","1100","0","test_block","poldrack-single-stim","241","336080","0.0-5.0-227.0","go-nogo","true","0","","true","<div class = centerbox><div  id = stim2></div></div>","32","32","750","","test","go","227","random","","",""
"","286","32","1092","0","test_block","poldrack-single-stim","242","337228","0.0-5.0-228.0","go-nogo","true","0","","true","<div class = centerbox><div  id = stim2></div></div>","32","32","750","","test","go","228","random","","",""
"","177","32","1049","0","test_block","poldrack-single-stim","243","338338","0.0-5.0-229.0","go-nogo","true","0","","true","<div class = centerbox><div  id = stim2></div></div>","32","32","750","","test","go","229","random","","",""
"","1","32","1427","0","test_block","poldrack-single-stim","244","339824","0.0-5.0-230.0","go-nogo","true","0","","true","<div class = centerbox><div  id = stim2></div></div>","32","32","750","","test","go","230","random","","",""
"","707","32","1237","0","test_block","poldrack-single-stim","245","341122","0.0-5.0-231.0","go-nogo","true","0","","true","<div class = centerbox><div  id = stim2></div></div>","32","32","750","","test","go","231","random","","",""
"","265","32","1077","0","test_block","poldrack-single-stim","246","342232","0.0-5.0-232.0","go-nogo","true","0","","true","<div class = centerbox><div  id = stim2></div></div>","32","32","750","","test","go","232","random","","",""
"","233","32","1275","0","test_block","poldrack-single-stim","247","343581","0.0-5.0-233.0","go-nogo","true","0","","true","<div class = centerbox><div  id = stim2></div></div>","32","32","750","","test","go","233","random","","",""
"","221","32","1172","0","test_block","poldrack-single-stim","248","344790","0.0-5.0-234.0","go-nogo","true","0","","true","<div class = centerbox><div  id = stim2></div></div>","32","32","750","","test","go","234","random","","",""
"","210","32","1293","0","test_block","poldrack-single-stim","249","346114","0.0-5.0-235.0","go-nogo","true","0","","true","<div class = centerbox><div  id = stim2></div></div>","32","32","750","","test","go","235","random","","",""
"","236","32","1117","0","test_block","poldrack-single-stim","250","347266","0.0-5.0-236.0","go-nogo","true","0","","true","<div class = centerbox><div  id = stim2></div></div>","32","32","750","","test","go","236","random","","",""
"","227","32","1484","0","test_block","poldrack-single-stim","251","348784","0.0-5.0-237.0","go-nogo","true","0","","true","<div class = centerbox><div  id = stim2></div></div>","32","32","750","","test","go","237","random","","",""
"","-1","-1","1094","0","test_block","poldrack-single-stim","252","349905","0.0-5.0-238.0","go-nogo","true","0","","true","<div class = centerbox><div  id = stim1></div></div>","-1","32","750","","test","nogo","238","random","","",""
"","271","32","1083","0","test_block","poldrack-single-stim","253","351014","0.0-5.0-239.0","go-nogo","true","0","","true","<div class = centerbox><div  id = stim2></div></div>","32","32","750","","test","go","239","random","","",""
"","289","32","1433","0","test_block","poldrack-single-stim","254","352513","0.0-5.0-240.0","go-nogo","true","0","","true","<div class = centerbox><div  id = stim2></div></div>","32","32","750","","test","go","240","random","","",""
"","403","32","1384","0","test_block","poldrack-single-stim","255","353951","0.0-5.0-241.0","go-nogo","true","0","","true","<div class = centerbox><div  id = stim2></div></div>","32","32","750","","test","go","241","random","","",""
"","288","32","1008","0","test_block","poldrack-single-stim","256","355023","0.0-5.0-242.0","go-nogo","true","0","","true","<div class = centerbox><div  id = stim2></div></div>","32","32","750","","test","go","242","random","","",""
"","855","32","1470","0","test_block","poldrack-single-stim","257","356543","0.0-5.0-243.0","go-nogo","true","0","","true","<div class = centerbox><div  id = stim2></div></div>","32","32","750","","test","go","243","random","","",""
"","-1","-1","1017","0","test_block","poldrack-single-stim","258","357613","0.0-5.0-244.0","go-nogo","true","0","","true","<div class = centerbox><div  id = stim1></div></div>","-1","32","750","","test","nogo","244","random","","",""
"","307","32","1389","0","test_block","poldrack-single-stim","259","359063","0.0-5.0-245.0","go-nogo","true","0","","true","<div class = centerbox><div  id = stim2></div></div>","32","32","750","","test","go","245","random","","",""
"","376","32","1288","0","test_block","poldrack-single-stim","260","360403","0.0-5.0-246.0","go-nogo","true","0","","true","<div class = centerbox><div  id = stim2></div></div>","32","32","750","","test","go","246","random","","",""
"","295","32","1423","0","test_block","poldrack-single-stim","261","361880","0.0-5.0-247.0","go-nogo","true","0","","true","<div class = centerbox><div  id = stim2></div></div>","32","32","750","","test","go","247","random","","",""
"","-1","-1","1187","0","test_block","poldrack-single-stim","262","363121","0.0-5.0-248.0","go-nogo","true","0","","true","<div class = centerbox><div  id = stim1></div></div>","-1","32","750","","test","nogo","248","random","","",""
"","240","32","1337","0","test_block","poldrack-single-stim","263","364489","0.0-5.0-249.0","go-nogo","true","0","","true","<div class = centerbox><div  id = stim2></div></div>","32","32","750","","test","go","249","random","","",""
"","-1","-1","1398","0","test_block","poldrack-single-stim","264","365939","0.0-5.0-250.0","go-nogo","true","0","","true","<div class = centerbox><div  id = stim1></div></div>","-1","32","750","","test","nogo","250","random","","",""
"","0","32","1054","0","test_block","poldrack-single-stim","265","367024","0.0-5.0-251.0","go-nogo","true","0","","true","<div class = centerbox><div  id = stim2></div></div>","32","32","750","","test","go","251","random","","",""
"","415","32","1421","0","test_block","poldrack-single-stim","266","368498","0.0-5.0-252.0","go-nogo","true","0","","true","<div class = centerbox><div  id = stim2></div></div>","32","32","750","","test","go","252","random","","",""
"","274","32","1369","0","test_block","poldrack-single-stim","267","369922","0.0-5.0-253.0","go-nogo","true","0","","true","<div class = centerbox><div  id = stim2></div></div>","32","32","750","","test","go","253","random","","",""
"","312","32","1373","0","test_block","poldrack-single-stim","268","371320","0.0-5.0-254.0","go-nogo","true","0","","true","<div class = centerbox><div  id = stim2></div></div>","32","32","750","","test","go","254","random","","",""
"","302","32","1087","0","test_block","poldrack-single-stim","269","372473","0.0-5.0-255.0","go-nogo","true","0","","true","<div class = centerbox><div  id = stim2></div></div>","32","32","750","","test","go","255","random","","",""
"","1","32","1130","0","test_block","poldrack-single-stim","270","373677","0.0-5.0-256.0","go-nogo","true","0","","true","<div class = centerbox><div  id = stim2></div></div>","32","32","750","","test","go","256","random","","",""
"","707","32","1053","0","test_block","poldrack-single-stim","271","374760","0.0-5.0-257.0","go-nogo","true","0","","true","<div class = centerbox><div  id = stim2></div></div>","32","32","750","","test","go","257","random","","",""
"","-1","-1","1461","0","test_block","poldrack-single-stim","272","376279","0.0-5.0-258.0","go-nogo","true","0","","false","<div class = centerbox><div  id = stim2></div></div>","32","32","750","","test","go","258","random","","",""
"","603","32","1409","0","test_block","poldrack-single-stim","273","377741","0.0-5.0-259.0","go-nogo","true","0","","true","<div class = centerbox><div  id = stim2></div></div>","32","32","750","","test","go","259","random","","",""
"","480","32","1227","0","test_block","poldrack-single-stim","274","379019","0.0-5.0-260.0","go-nogo","true","0","","true","<div class = centerbox><div  id = stim2></div></div>","32","32","750","","test","go","260","random","","",""
"","320","32","1283","0","test_block","poldrack-single-stim","275","380360","0.0-5.0-261.0","go-nogo","true","0","","true","<div class = centerbox><div  id = stim2></div></div>","32","32","750","","test","go","261","random","","",""
"","180","32","1464","0","test_block","poldrack-single-stim","276","381877","0.0-5.0-262.0","go-nogo","true","0","","true","<div class = centerbox><div  id = stim2></div></div>","32","32","750","","test","go","262","random","","",""
"","340","32","1220","0","test_block","poldrack-single-stim","277","383134","0.0-5.0-263.0","go-nogo","true","0","","true","<div class = centerbox><div  id = stim2></div></div>","32","32","750","","test","go","263","random","","",""
"","323","32","1346","0","test_block","poldrack-single-stim","278","384531","0.0-5.0-264.0","go-nogo","true","0","","true","<div class = centerbox><div  id = stim2></div></div>","32","32","750","","test","go","264","random","","",""
"","-1","-1","1009","0","test_block","poldrack-single-stim","279","385593","0.0-5.0-265.0","go-nogo","true","0","","false","<div class = centerbox><div  id = stim2></div></div>","32","32","750","","test","go","265","random","","",""
"","941","32","1070","0","test_block","poldrack-single-stim","280","386703","0.0-5.0-266.0","go-nogo","true","0","","true","<div class = centerbox><div  id = stim2></div></div>","32","32","750","","test","go","266","random","","",""
"","413","32","1194","0","test_block","poldrack-single-stim","281","387927","0.0-5.0-267.0","go-nogo","true","0","","true","<div class = centerbox><div  id = stim2></div></div>","32","32","750","","test","go","267","random","","",""
"","266","32","1114","0","test_block","poldrack-single-stim","282","389079","0.0-5.0-268.0","go-nogo","true","0","","true","<div class = centerbox><div  id = stim2></div></div>","32","32","750","","test","go","268","random","","",""
"","308","32","1339","0","test_block","poldrack-single-stim","283","390479","0.0-5.0-269.0","go-nogo","true","0","","false","<div class = centerbox><div  id = stim1></div></div>","-1","32","750","","test","nogo","269","random","","",""
"","-1","-1","1383","0","test_block","poldrack-single-stim","284","391886","0.0-5.0-270.0","go-nogo","true","0","","true","<div class = centerbox><div  id = stim1></div></div>","-1","32","750","","test","nogo","270","random","","",""
"","254","32","1488","0","test_block","poldrack-single-stim","285","393429","0.0-5.0-271.0","go-nogo","true","0","","true","<div class = centerbox><div  id = stim2></div></div>","32","32","750","","test","go","271","random","","",""
"","-1","-1","1427","0","test_block","poldrack-single-stim","286","394905","0.0-5.0-272.0","go-nogo","true","0","","false","<div class = centerbox><div  id = stim2></div></div>","32","32","750","","test","go","272","random","","",""
"","-1","-1","1335","0","test_block","poldrack-single-stim","287","396274","0.0-5.0-273.0","go-nogo","true","0","","true","<div class = centerbox><div  id = stim1></div></div>","-1","32","750","","test","nogo","273","random","","",""
"","217","32","1143","0","test_block","poldrack-single-stim","288","397453","0.0-5.0-274.0","go-nogo","true","0","","true","<div class = centerbox><div  id = stim2></div></div>","32","32","750","","test","go","274","random","","",""
"","354","32","1221","0","test_block","poldrack-single-stim","289","398706","0.0-5.0-275.0","go-nogo","true","0","","true","<div class = centerbox><div  id = stim2></div></div>","32","32","750","","test","go","275","random","","",""
"","524","32","1005","0","test_block","poldrack-single-stim","290","399748","0.0-5.0-276.0","go-nogo","true","0","","true","<div class = centerbox><div  id = stim2></div></div>","32","32","750","","test","go","276","random","","",""
"","1016","32","1237","0","test_block","poldrack-single-stim","291","401026","0.0-5.0-277.0","go-nogo","true","0","","true","<div class = centerbox><div  id = stim2></div></div>","32","32","750","","test","go","277","random","","",""
"","622","32","1251","0","test_block","poldrack-single-stim","292","402313","0.0-5.0-278.0","go-nogo","true","0","","true","<div class = centerbox><div  id = stim2></div></div>","32","32","750","","test","go","278","random","","",""
"","-1","-1","1461","0","test_block","poldrack-single-stim","293","403800","0.0-5.0-279.0","go-nogo","true","0","","false","<div class = centerbox><div  id = stim2></div></div>","32","32","750","","test","go","279","random","","",""
"","697","32","1069","0","test_block","poldrack-single-stim","294","404901","0.0-5.0-280.0","go-nogo","true","0","","false","<div class = centerbox><div  id = stim1></div></div>","-1","32","750","","test","nogo","280","random","","",""
"","666","32","1344","0","test_block","poldrack-single-stim","295","406293","0.0-5.0-281.0","go-nogo","true","0","","true","<div class = centerbox><div  id = stim2></div></div>","32","32","750","","test","go","281","random","","",""
"","372","32","1448","0","test_block","poldrack-single-stim","296","407787","0.0-5.0-282.0","go-nogo","true","0","","true","<div class = centerbox><div  id = stim2></div></div>","32","32","750","","test","go","282","random","","",""
"","706","32","1157","0","test_block","poldrack-single-stim","297","408978","0.0-5.0-283.0","go-nogo","true","0","","true","<div class = centerbox><div  id = stim2></div></div>","32","32","750","","test","go","283","random","","",""
"","581","32","1212","0","test_block","poldrack-single-stim","298","410219","0.0-5.0-284.0","go-nogo","true","0","","true","<div class = centerbox><div  id = stim2></div></div>","32","32","750","","test","go","284","random","","",""
"","-1","-1","1170","0","test_block","poldrack-single-stim","299","411442","0.0-5.0-285.0","go-nogo","true","0","","true","<div class = centerbox><div  id = stim1></div></div>","-1","32","750","","test","nogo","285","random","","",""
"","300","32","1041","0","test_block","poldrack-single-stim","300","412518","0.0-5.0-286.0","go-nogo","true","0","","true","<div class = centerbox><div  id = stim2></div></div>","32","32","750","","test","go","286","random","","",""
"","699","32","1403","0","test_block","poldrack-single-stim","301","413949","0.0-5.0-287.0","go-nogo","true","0","","true","<div class = centerbox><div  id = stim2></div></div>","32","32","750","","test","go","287","random","","",""
"","1230","32","1370","0","test_block","poldrack-single-stim","302","415366","0.0-5.0-288.0","go-nogo","true","0","","true","<div class = centerbox><div  id = stim2></div></div>","32","32","750","","test","go","288","random","","",""
"","-1","-1","1020","0","test_block","poldrack-single-stim","303","416410","0.0-5.0-289.0","go-nogo","true","0","","true","<div class = centerbox><div  id = stim1></div></div>","-1","32","750","","test","nogo","289","random","","",""
"","572","32","1090","0","test_block","poldrack-single-stim","304","417527","0.0-5.0-290.0","go-nogo","true","0","","true","<div class = centerbox><div  id = stim2></div></div>","32","32","750","","test","go","290","random","","",""
"","778","32","1262","0","test_block","poldrack-single-stim","305","418839","0.0-5.0-291.0","go-nogo","true","0","","true","<div class = centerbox><div  id = stim2></div></div>","32","32","750","","test","go","291","random","","",""
"","-1","-1","1044","0","test_block","poldrack-single-stim","306","419936","0.0-5.0-292.0","go-nogo","true","0","","false","<div class = centerbox><div  id = stim2></div></div>","32","32","750","","test","go","292","random","","",""
"","410","32","1423","0","test_block","poldrack-single-stim","307","421385","0.0-5.0-293.0","go-nogo","true","0","","true","<div class = centerbox><div  id = stim2></div></div>","32","32","750","","test","go","293","random","","",""
"","395","32","1267","0","test_block","poldrack-single-stim","308","422708","0.0-5.0-294.0","go-nogo","true","0","","true","<div class = centerbox><div  id = stim2></div></div>","32","32","750","","test","go","294","random","","",""
"","340","32","1131","0","test_block","poldrack-single-stim","309","423863","0.0-5.0-295.0","go-nogo","true","0","","true","<div class = centerbox><div  id = stim2></div></div>","32","32","750","","test","go","295","random","","",""
"","476","32","1383","0","test_block","poldrack-single-stim","310","425301","0.0-5.0-296.0","go-nogo","true","0","","true","<div class = centerbox><div  id = stim2></div></div>","32","32","750","","test","go","296","random","","",""
"","337","32","1242","0","test_block","poldrack-single-stim","311","426566","0.0-5.0-297.0","go-nogo","true","0","","true","<div class = centerbox><div  id = stim2></div></div>","32","32","750","","test","go","297","random","","",""
"","462","32","1499","0","test_block","poldrack-single-stim","312","428094","0.0-5.0-298.0","go-nogo","true","0","","true","<div class = centerbox><div  id = stim2></div></div>","32","32","750","","test","go","298","random","","",""
"","426","32","1461","0","test_block","poldrack-single-stim","313","429604","0.0-5.0-299.0","go-nogo","true","0","","true","<div class = centerbox><div  id = stim2></div></div>","32","32","750","","test","go","299","random","","",""
"","631","32","1341","0","test_block","poldrack-single-stim","314","430970","0.0-5.0-300.0","go-nogo","true","0","","true","<div class = centerbox><div  id = stim2></div></div>","32","32","750","","test","go","300","random","","",""
"","656","32","1318","0","test_block","poldrack-single-stim","315","432339","0.0-5.0-301.0","go-nogo","true","0","","true","<div class = centerbox><div  id = stim2></div></div>","32","32","750","","test","go","301","random","","",""
"","774","32","1371","0","test_block","poldrack-single-stim","316","433737","0.0-5.0-302.0","go-nogo","true","0","","true","<div class = centerbox><div  id = stim2></div></div>","32","32","750","","test","go","302","random","","",""
"","630","32","1316","0","test_block","poldrack-single-stim","317","435110","0.0-5.0-303.0","go-nogo","true","0","","true","<div class = centerbox><div  id = stim2></div></div>","32","32","750","","test","go","303","random","","",""
"","1009","32","1357","0","test_block","poldrack-single-stim","318","436496","0.0-5.0-304.0","go-nogo","true","0","","true","<div class = centerbox><div  id = stim2></div></div>","32","32","750","","test","go","304","random","","",""
"","423","32","1010","0","test_block","poldrack-single-stim","319","437534","0.0-5.0-305.0","go-nogo","true","0","","true","<div class = centerbox><div  id = stim2></div></div>","32","32","750","","test","go","305","random","","",""
"","533","32","1128","0","test_block","poldrack-single-stim","320","438689","0.0-5.0-306.0","go-nogo","true","0","","true","<div class = centerbox><div  id = stim2></div></div>","32","32","750","","test","go","306","random","","",""
"","479","32","1315","0","test_block","poldrack-single-stim","321","440053","0.0-5.0-307.0","go-nogo","true","0","","true","<div class = centerbox><div  id = stim2></div></div>","32","32","750","","test","go","307","random","","",""
"","322","32","1343","0","test_block","poldrack-single-stim","322","441426","0.0-5.0-308.0","go-nogo","true","0","","true","<div class = centerbox><div  id = stim2></div></div>","32","32","750","","test","go","308","random","","",""
"","456","32","1173","0","test_block","poldrack-single-stim","323","442623","0.0-5.0-309.0","go-nogo","true","0","","true","<div class = centerbox><div  id = stim2></div></div>","32","32","750","","test","go","309","random","","",""
"","382","32","1415","0","test_block","poldrack-single-stim","324","444070","0.0-5.0-310.0","go-nogo","true","0","","true","<div class = centerbox><div  id = stim2></div></div>","32","32","750","","test","go","310","random","","",""
"","349","32","1112","0","test_block","poldrack-single-stim","325","445208","0.0-5.0-311.0","go-nogo","true","0","","true","<div class = centerbox><div  id = stim2></div></div>","32","32","750","","test","go","311","random","","",""
"","1000","32","1095","0","test_block","poldrack-single-stim","326","446330","0.0-5.0-312.0","go-nogo","true","0","","true","<div class = centerbox><div  id = stim2></div></div>","32","32","750","","test","go","312","random","","",""
"","-1","-1","1448","0","test_block","poldrack-single-stim","327","447807","0.0-5.0-313.0","go-nogo","true","0","","false","<div class = centerbox><div  id = stim2></div></div>","32","32","750","","test","go","313","random","","",""
"","438","32","1342","0","test_block","poldrack-single-stim","328","449180","0.0-5.0-314.0","go-nogo","true","0","","true","<div class = centerbox><div  id = stim2></div></div>","32","32","750","","test","go","314","random","","",""
"","626","32","1377","0","test_block","poldrack-single-stim","329","450584","0.0-5.0-315.0","go-nogo","true","0","","false","<div class = centerbox><div  id = stim1></div></div>","-1","32","750","","test","nogo","315","random","","",""
"","1045","32","1305","0","test_block","poldrack-single-stim","330","451913","0.0-5.0-316.0","go-nogo","true","0","","true","<div class = centerbox><div  id = stim2></div></div>","32","32","750","","test","go","316","random","","",""
"","1134","32","1394","0","test_block","poldrack-single-stim","331","453335","0.0-5.0-317.0","go-nogo","true","0","","true","<div class = centerbox><div  id = stim2></div></div>","32","32","750","","test","go","317","random","","",""
"","-1","-1","1201","0","test_block","poldrack-single-stim","332","454562","0.0-5.0-318.0","go-nogo","true","0","","false","<div class = centerbox><div  id = stim2></div></div>","32","32","750","","test","go","318","random","","",""
"","-1","-1","1338","0","test_block","poldrack-single-stim","333","455928","0.0-5.0-319.0","go-nogo","true","0","","false","<div class = centerbox><div  id = stim2></div></div>","32","32","750","","test","go","319","random","","",""
"","271","32","1099","0","test_block","poldrack-single-stim","334","457078","0.0-5.0-320.0","go-nogo","true","0","","true","<div class = centerbox><div  id = stim2></div></div>","32","32","750","","test","go","320","random","","",""
"","622","32","1115","0","test_block","poldrack-single-stim","335","458231","0.0-5.0-321.0","go-nogo","true","0","","true","<div class = centerbox><div  id = stim2></div></div>","32","32","750","","test","go","321","random","","",""
"","-1","-1","1269","0","test_block","poldrack-single-stim","336","459532","0.0-5.0-322.0","go-nogo","true","0","","false","<div class = centerbox><div  id = stim2></div></div>","32","32","750","","test","go","322","random","","",""
"","736","32","1194","0","test_block","poldrack-single-stim","337","460779","0.0-5.0-323.0","go-nogo","true","0","","false","<div class = centerbox><div  id = stim1></div></div>","-1","32","750","","test","nogo","323","random","","",""
"","534","32","1132","0","test_block","poldrack-single-stim","338","461978","0.0-5.0-324.0","go-nogo","true","0","","true","<div class = centerbox><div  id = stim2></div></div>","32","32","750","","test","go","324","random","","",""
"","-1","-1","1210","0","test_block","poldrack-single-stim","339","463246","0.0-5.0-325.0","go-nogo","true","0","","false","<div class = centerbox><div  id = stim2></div></div>","32","32","750","","test","go","325","random","","",""
"","1","32","1176","0","test_block","poldrack-single-stim","340","464474","0.0-5.0-326.0","go-nogo","true","0","","true","<div class = centerbox><div  id = stim2></div></div>","32","32","750","","test","go","326","random","","",""
"","-1","-1","1013","0","test_block","poldrack-single-stim","341","465522","0.0-5.0-327.0","go-nogo","true","0","","true","<div class = centerbox><div  id = stim1></div></div>","-1","32","750","","test","nogo","327","random","","",""
"","-1","-1","1242","0","test_block","poldrack-single-stim","342","466796","0.0-5.0-328.0","go-nogo","true","0","","true","<div class = centerbox><div  id = stim1></div></div>","-1","32","750","","test","nogo","328","random","","",""
"","281","32","1287","0","test_block","poldrack-single-stim","343","468123","0.0-5.0-329.0","go-nogo","true","0","","true","<div class = centerbox><div  id = stim2></div></div>","32","32","750","","test","go","329","random","","",""
"","-1","-1","1489","0","test_block","poldrack-single-stim","344","469647","0.0-5.0-330.0","go-nogo","true","0","","true","<div class = centerbox><div  id = stim1></div></div>","-1","32","750","","test","nogo","330","random","","",""
"","294","32","1273","0","test_block","poldrack-single-stim","345","470952","0.0-5.0-331.0","go-nogo","true","0","","true","<div class = centerbox><div  id = stim2></div></div>","32","32","750","","test","go","331","random","","",""
"","465","32","1067","0","test_block","poldrack-single-stim","346","472052","0.0-5.0-332.0","go-nogo","true","0","","true","<div class = centerbox><div  id = stim2></div></div>","32","32","750","","test","go","332","random","","",""
"","338","32","1154","0","test_block","poldrack-single-stim","347","473245","0.0-5.0-333.0","go-nogo","true","0","","true","<div class = centerbox><div  id = stim2></div></div>","32","32","750","","test","go","333","random","","",""
"","297","32","1008","0","test_block","poldrack-single-stim","348","474290","0.0-5.0-334.0","go-nogo","true","0","","true","<div class = centerbox><div  id = stim2></div></div>","32","32","750","","test","go","334","random","","",""
"","339","32","1193","0","test_block","poldrack-single-stim","349","475514","0.0-5.0-335.0","go-nogo","true","0","","true","<div class = centerbox><div  id = stim2></div></div>","32","32","750","","test","go","335","random","","",""
"","236","32","1020","0","test_block","poldrack-single-stim","350","476560","0.0-5.0-336.0","go-nogo","true","0","","true","<div class = centerbox><div  id = stim2></div></div>","32","32","750","","test","go","336","random","","",""
"","659","32","1360","0","test_block","poldrack-single-stim","351","477964","0.0-5.0-337.0","go-nogo","true","0","","true","<div class = centerbox><div  id = stim2></div></div>","32","32","750","","test","go","337","random","","",""
"","745","32","1474","0","test_block","poldrack-single-stim","352","479466","0.0-5.0-338.0","go-nogo","true","0","","true","<div class = centerbox><div  id = stim2></div></div>","32","32","750","","test","go","338","random","","",""
"","241","32","1403","0","test_block","poldrack-single-stim","353","480912","0.0-5.0-339.0","go-nogo","true","0","","true","<div class = centerbox><div  id = stim2></div></div>","32","32","750","","test","go","339","random","","",""
"","263","32","1431","0","test_block","poldrack-single-stim","354","482386","0.0-5.0-340.0","go-nogo","true","0","","true","<div class = centerbox><div  id = stim2></div></div>","32","32","750","","test","go","340","random","","",""
"","272","32","1433","0","test_block","poldrack-single-stim","355","483886","0.0-5.0-341.0","go-nogo","true","0","","true","<div class = centerbox><div  id = stim2></div></div>","32","32","750","","test","go","341","random","","",""
"","301","32","1232","0","test_block","poldrack-single-stim","356","485171","0.0-5.0-342.0","go-nogo","true","0","","true","<div class = centerbox><div  id = stim2></div></div>","32","32","750","","test","go","342","random","","",""
"","327","32","1266","0","test_block","poldrack-single-stim","357","486502","0.0-5.0-343.0","go-nogo","true","0","","true","<div class = centerbox><div  id = stim2></div></div>","32","32","750","","test","go","343","random","","",""
"","394","32","1472","0","test_block","poldrack-single-stim","358","488034","0.0-5.0-344.0","go-nogo","true","0","","true","<div class = centerbox><div  id = stim2></div></div>","32","32","750","","test","go","344","random","","",""
"","311","32","1432","0","test_block","poldrack-single-stim","359","489527","0.0-5.0-345.0","go-nogo","true","0","","true","<div class = centerbox><div  id = stim2></div></div>","32","32","750","","test","go","345","random","","",""
"","246","32","1308","0","test_block","poldrack-single-stim","360","490896","0.0-5.0-346.0","go-nogo","true","0","","true","<div class = centerbox><div  id = stim2></div></div>","32","32","750","","test","go","346","random","","",""
"","259","32","1151","0","test_block","poldrack-single-stim","361","492111","0.0-5.0-347.0","go-nogo","true","0","","true","<div class = centerbox><div  id = stim2></div></div>","32","32","750","","test","go","347","random","","",""
"","419","32","1010","0","test_block","poldrack-single-stim","362","493177","0.0-5.0-348.0","go-nogo","true","0","","true","<div class = centerbox><div  id = stim2></div></div>","32","32","750","","test","go","348","random","","",""
"","372","32","1085","0","test_block","poldrack-single-stim","363","494328","0.0-5.0-349.0","go-nogo","true","0","","false","<div class = centerbox><div  id = stim1></div></div>","-1","32","750","","test","nogo","349","random","","",""
"","15682","","","","post task questions","survey-text","364","510069","0.0-7.0","go-nogo","true","0","","","","","","","","","","","","{""Q0"":""click as fast as possible when a blue square appeared on the screen"",""Q1"":""none""}","",""
"<div class = centerbox><p class = center-block-text>Thanks for completing this task!</p><p class = center-block-text>Insert the following code to collect your payment at Amazon Mechanical Turk:</p><p class = center-block-text>22019317</p><p class = center-block-text>Press <strong>enter</strong> to continue.</p></div>","6531","13","6531","0","end","poldrack-text","365","517602","0.0-8.0","go-nogo","true","0","","","","","","","","","","","","","22019317","true"
