"text","rt","key_press","block_duration","timing_post_trial","trial_id","trial_type","trial_index","time_elapsed","internal_node_id","exp_id","full_screen","focus_shifts","view_history","correct","stimulus","correct_response","possible_responses","stim_duration","feedback_duration","exp_stage","condition","trial_num","mode","responses","payment_id","credit_var"
"<div class = centerbox><p class = center-block-text>Welcome to the experiment. This task will take around 10 minutes. Press <strong>enter</strong> to begin.</p></div>","4188","13","4188","0","instruction","poldrack-text","0","4190","0.0-0.0-0.0","go-nogo","true","0","","","","","","","","","","","","","",""
"","3136","","","","instruction","poldrack-instructions","1","7327","0.0-0.0-1.0","go-nogo","true","0","[{""page_index"":0,""viewing_time"":3134}]","","","","","","","","","","","","",""
"","-1","-1","1202","250","practice","poldrack-categorize","2","10534","0.0-1.0-0.0","go-nogo","true","0","","true","<div class = centerbox><div id = stim2></div></div>","-1","32","750","1000","practice","nogo","0","random","","",""
"","-1","-1","1226","250","practice","poldrack-categorize","3","13011","0.0-1.0-1.0","go-nogo","true","0","","false","<div class = centerbox><div  id = stim1></div></div>","32","32","750","1000","practice","go","1","random","","",""
"","-1","-1","1485","250","practice","poldrack-categorize","4","15747","0.0-1.0-2.0","go-nogo","true","0","","false","<div class = centerbox><div  id = stim1></div></div>","32","32","750","1000","practice","go","2","random","","",""
"","-1","-1","1388","250","practice","poldrack-categorize","5","18386","0.0-1.0-3.0","go-nogo","true","0","","true","<div class = centerbox><div id = stim2></div></div>","-1","32","750","1000","practice","nogo","3","random","","",""
"","-1","-1","1416","250","practice","poldrack-categorize","6","21054","0.0-1.0-4.0","go-nogo","true","0","","true","<div class = centerbox><div id = stim2></div></div>","-1","32","750","1000","practice","nogo","4","random","","",""
"","-1","-1","1449","250","practice","poldrack-categorize","7","23755","0.0-1.0-5.0","go-nogo","true","0","","false","<div class = centerbox><div  id = stim1></div></div>","32","32","750","1000","practice","go","5","random","","",""
"","-1","-1","1160","250","practice","poldrack-categorize","8","26165","0.0-1.0-6.0","go-nogo","true","0","","false","<div class = centerbox><div  id = stim1></div></div>","32","32","750","1000","practice","go","6","random","","",""
"","-1","-1","1295","250","practice","poldrack-categorize","9","28710","0.0-1.0-7.0","go-nogo","true","0","","false","<div class = centerbox><div  id = stim1></div></div>","32","32","750","1000","practice","go","7","random","","",""
"","-1","-1","1264","250","practice","poldrack-categorize","10","31225","0.0-1.0-8.0","go-nogo","true","0","","true","<div class = centerbox><div id = stim2></div></div>","-1","32","750","1000","practice","nogo","8","random","","",""
"","-1","-1","1391","250","practice","poldrack-categorize","11","33866","0.0-1.0-9.0","go-nogo","true","0","","true","<div class = centerbox><div id = stim2></div></div>","-1","32","750","1000","practice","nogo","9","random","","",""
"","","","","","reset_trial","call-function","12","34116","0.0-3.0","go-nogo","true","0","","","","","","","","","","","","","",""
"<div class = centerbox><p class = block-text>Practice is over, we will now begin the experiment. You will no longer get feedback about your responses.</p><p class = block-text>Remember, if you see the <font color=""orange"">orange</font> square you should <strong> respond by pressing the spacebar as quickly as possible</strong>. If you see the <font color=""blue"">blue</font> square you should <strong> not respond</strong>. Press <strong>enter</strong> to begin.</p></div>","16482","13","16482","1000","test_intro","poldrack-text","13","50598","0.0-4.0","go-nogo","true","0","","","","","","","","","","","","","",""
"","463","32","1002","0","test_block","poldrack-single-stim","14","52602","0.0-5.0-0.0","go-nogo","true","0","","true","<div class = centerbox><div  id = stim1></div></div>","32","32","750","","test","go","0","random","","",""
"","-1","-1","1305","0","test_block","poldrack-single-stim","15","53926","0.0-5.0-1.0","go-nogo","true","0","","true","<div class = centerbox><div  id = stim2></div></div>","-1","32","750","","test","nogo","1","random","","",""
"","374","32","1469","0","test_block","poldrack-single-stim","16","55406","0.0-5.0-2.0","go-nogo","true","0","","true","<div class = centerbox><div  id = stim1></div></div>","32","32","750","","test","go","2","random","","",""
"","-1","-1","1419","0","test_block","poldrack-single-stim","17","56835","0.0-5.0-3.0","go-nogo","true","0","","true","<div class = centerbox><div  id = stim2></div></div>","-1","32","750","","test","nogo","3","random","","",""
"","448","32","1472","0","test_block","poldrack-single-stim","18","58316","0.0-5.0-4.0","go-nogo","true","0","","true","<div class = centerbox><div  id = stim1></div></div>","32","32","750","","test","go","4","random","","",""
"","670","32","1248","0","test_block","poldrack-single-stim","19","59574","0.0-5.0-5.0","go-nogo","true","0","","true","<div class = centerbox><div  id = stim1></div></div>","32","32","750","","test","go","5","random","","",""
"","526","32","1192","0","test_block","poldrack-single-stim","20","60797","0.0-5.0-6.0","go-nogo","true","0","","true","<div class = centerbox><div  id = stim1></div></div>","32","32","750","","test","go","6","random","","",""
"","485","32","1145","0","test_block","poldrack-single-stim","21","61952","0.0-5.0-7.0","go-nogo","true","0","","true","<div class = centerbox><div  id = stim1></div></div>","32","32","750","","test","go","7","random","","",""
"","452","32","1059","0","test_block","poldrack-single-stim","22","63022","0.0-5.0-8.0","go-nogo","true","0","","true","<div class = centerbox><div  id = stim1></div></div>","32","32","750","","test","go","8","random","","",""
"","450","32","1138","0","test_block","poldrack-single-stim","23","64170","0.0-5.0-9.0","go-nogo","true","0","","true","<div class = centerbox><div  id = stim1></div></div>","32","32","750","","test","go","9","random","","",""
"","309","32","1405","0","test_block","poldrack-single-stim","24","65585","0.0-5.0-10.0","go-nogo","true","0","","true","<div class = centerbox><div  id = stim1></div></div>","32","32","750","","test","go","10","random","","",""
"","343","32","1228","0","test_block","poldrack-single-stim","25","66821","0.0-5.0-11.0","go-nogo","true","0","","true","<div class = centerbox><div  id = stim1></div></div>","32","32","750","","test","go","11","random","","",""
"","480","32","1414","0","test_block","poldrack-single-stim","26","68242","0.0-5.0-12.0","go-nogo","true","0","","true","<div class = centerbox><div  id = stim1></div></div>","32","32","750","","test","go","12","random","","",""
"","328","32","1075","0","test_block","poldrack-single-stim","27","69332","0.0-5.0-13.0","go-nogo","true","0","","true","<div class = centerbox><div  id = stim1></div></div>","32","32","750","","test","go","13","random","","",""
"","343","32","1398","0","test_block","poldrack-single-stim","28","70737","0.0-5.0-14.0","go-nogo","true","0","","true","<div class = centerbox><div  id = stim1></div></div>","32","32","750","","test","go","14","random","","",""
"","-1","-1","1402","0","test_block","poldrack-single-stim","29","72145","0.0-5.0-15.0","go-nogo","true","0","","true","<div class = centerbox><div  id = stim2></div></div>","-1","32","750","","test","nogo","15","random","","",""
"","329","32","1283","0","test_block","poldrack-single-stim","30","73437","0.0-5.0-16.0","go-nogo","true","0","","true","<div class = centerbox><div  id = stim1></div></div>","32","32","750","","test","go","16","random","","",""
"","320","32","1265","0","test_block","poldrack-single-stim","31","74708","0.0-5.0-17.0","go-nogo","true","0","","true","<div class = centerbox><div  id = stim1></div></div>","32","32","750","","test","go","17","random","","",""
"","320","32","1069","0","test_block","poldrack-single-stim","32","75784","0.0-5.0-18.0","go-nogo","true","0","","true","<div class = centerbox><div  id = stim1></div></div>","32","32","750","","test","go","18","random","","",""
"","326","32","1436","0","test_block","poldrack-single-stim","33","77227","0.0-5.0-19.0","go-nogo","true","0","","true","<div class = centerbox><div  id = stim1></div></div>","32","32","750","","test","go","19","random","","",""
"","332","32","1492","0","test_block","poldrack-single-stim","34","78727","0.0-5.0-20.0","go-nogo","true","0","","true","<div class = centerbox><div  id = stim1></div></div>","32","32","750","","test","go","20","random","","",""
"","375","32","1108","0","test_block","poldrack-single-stim","35","79841","0.0-5.0-21.0","go-nogo","true","0","","true","<div class = centerbox><div  id = stim1></div></div>","32","32","750","","test","go","21","random","","",""
"","378","32","1204","0","test_block","poldrack-single-stim","36","81053","0.0-5.0-22.0","go-nogo","true","0","","true","<div class = centerbox><div  id = stim1></div></div>","32","32","750","","test","go","22","random","","",""
"","376","32","1429","0","test_block","poldrack-single-stim","37","82488","0.0-5.0-23.0","go-nogo","true","0","","true","<div class = centerbox><div  id = stim1></div></div>","32","32","750","","test","go","23","random","","",""
"","342","32","1471","0","test_block","poldrack-single-stim","38","83966","0.0-5.0-24.0","go-nogo","true","0","","true","<div class = centerbox><div  id = stim1></div></div>","32","32","750","","test","go","24","random","","",""
"","493","32","1052","0","test_block","poldrack-single-stim","39","85023","0.0-5.0-25.0","go-nogo","true","0","","true","<div class = centerbox><div  id = stim1></div></div>","32","32","750","","test","go","25","random","","",""
"","413","32","1039","0","test_block","poldrack-single-stim","40","86067","0.0-5.0-26.0","go-nogo","true","0","","true","<div class = centerbox><div  id = stim1></div></div>","32","32","750","","test","go","26","random","","",""
"","338","32","1410","0","test_block","poldrack-single-stim","41","87482","0.0-5.0-27.0","go-nogo","true","0","","false","<div class = centerbox><div  id = stim2></div></div>","-1","32","750","","test","nogo","27","random","","",""
"","627","32","1381","0","test_block","poldrack-single-stim","42","88868","0.0-5.0-28.0","go-nogo","true","0","","true","<div class = centerbox><div  id = stim1></div></div>","32","32","750","","test","go","28","random","","",""
"","452","32","1449","0","test_block","poldrack-single-stim","43","90323","0.0-5.0-29.0","go-nogo","true","0","","true","<div class = centerbox><div  id = stim1></div></div>","32","32","750","","test","go","29","random","","",""
"","-1","-1","1359","0","test_block","poldrack-single-stim","44","91687","0.0-5.0-30.0","go-nogo","true","0","","true","<div class = centerbox><div  id = stim2></div></div>","-1","32","750","","test","nogo","30","random","","",""
"","575","32","1411","0","test_block","poldrack-single-stim","45","93104","0.0-5.0-31.0","go-nogo","true","0","","true","<div class = centerbox><div  id = stim1></div></div>","32","32","750","","test","go","31","random","","",""
"","598","32","1020","0","test_block","poldrack-single-stim","46","94129","0.0-5.0-32.0","go-nogo","true","0","","true","<div class = centerbox><div  id = stim1></div></div>","32","32","750","","test","go","32","random","","",""
"","532","32","1267","0","test_block","poldrack-single-stim","47","95402","0.0-5.0-33.0","go-nogo","true","0","","true","<div class = centerbox><div  id = stim1></div></div>","32","32","750","","test","go","33","random","","",""
"","-1","-1","1175","0","test_block","poldrack-single-stim","48","96584","0.0-5.0-34.0","go-nogo","true","0","","true","<div class = centerbox><div  id = stim2></div></div>","-1","32","750","","test","nogo","34","random","","",""
"","612","32","1255","0","test_block","poldrack-single-stim","49","97846","0.0-5.0-35.0","go-nogo","true","0","","true","<div class = centerbox><div  id = stim1></div></div>","32","32","750","","test","go","35","random","","",""
"","-1","-1","1282","0","test_block","poldrack-single-stim","50","99133","0.0-5.0-36.0","go-nogo","true","0","","true","<div class = centerbox><div  id = stim2></div></div>","-1","32","750","","test","nogo","36","random","","",""
"","736","32","1098","0","test_block","poldrack-single-stim","51","100237","0.0-5.0-37.0","go-nogo","true","0","","true","<div class = centerbox><div  id = stim1></div></div>","32","32","750","","test","go","37","random","","",""
"","605","32","1393","0","test_block","poldrack-single-stim","52","101635","0.0-5.0-38.0","go-nogo","true","0","","true","<div class = centerbox><div  id = stim1></div></div>","32","32","750","","test","go","38","random","","",""
"","389","32","1008","0","test_block","poldrack-single-stim","53","102649","0.0-5.0-39.0","go-nogo","true","0","","true","<div class = centerbox><div  id = stim1></div></div>","32","32","750","","test","go","39","random","","",""
"","412","32","1088","0","test_block","poldrack-single-stim","54","103743","0.0-5.0-40.0","go-nogo","true","0","","true","<div class = centerbox><div  id = stim1></div></div>","32","32","750","","test","go","40","random","","",""
"","343","32","1415","0","test_block","poldrack-single-stim","55","105164","0.0-5.0-41.0","go-nogo","true","0","","true","<div class = centerbox><div  id = stim1></div></div>","32","32","750","","test","go","41","random","","",""
"","478","32","1117","0","test_block","poldrack-single-stim","56","106285","0.0-5.0-42.0","go-nogo","true","0","","true","<div class = centerbox><div  id = stim1></div></div>","32","32","750","","test","go","42","random","","",""
"","394","32","1182","0","test_block","poldrack-single-stim","57","107471","0.0-5.0-43.0","go-nogo","true","0","","true","<div class = centerbox><div  id = stim1></div></div>","32","32","750","","test","go","43","random","","",""
"","-1","-1","1424","0","test_block","poldrack-single-stim","58","108903","0.0-5.0-44.0","go-nogo","true","0","","true","<div class = centerbox><div  id = stim2></div></div>","-1","32","750","","test","nogo","44","random","","",""
"","473","32","1428","0","test_block","poldrack-single-stim","59","110336","0.0-5.0-45.0","go-nogo","true","0","","true","<div class = centerbox><div  id = stim1></div></div>","32","32","750","","test","go","45","random","","",""
"","355","32","1033","0","test_block","poldrack-single-stim","60","111374","0.0-5.0-46.0","go-nogo","true","0","","true","<div class = centerbox><div  id = stim1></div></div>","32","32","750","","test","go","46","random","","",""
"","387","32","1264","0","test_block","poldrack-single-stim","61","112645","0.0-5.0-47.0","go-nogo","true","0","","true","<div class = centerbox><div  id = stim1></div></div>","32","32","750","","test","go","47","random","","",""
"","326","32","1497","0","test_block","poldrack-single-stim","62","114146","0.0-5.0-48.0","go-nogo","true","0","","true","<div class = centerbox><div  id = stim1></div></div>","32","32","750","","test","go","48","random","","",""
"","400","32","1400","0","test_block","poldrack-single-stim","63","115551","0.0-5.0-49.0","go-nogo","true","0","","true","<div class = centerbox><div  id = stim1></div></div>","32","32","750","","test","go","49","random","","",""
"","386","32","1326","0","test_block","poldrack-single-stim","64","116887","0.0-5.0-50.0","go-nogo","true","0","","true","<div class = centerbox><div  id = stim1></div></div>","32","32","750","","test","go","50","random","","",""
"","366","32","1043","0","test_block","poldrack-single-stim","65","117935","0.0-5.0-51.0","go-nogo","true","0","","true","<div class = centerbox><div  id = stim1></div></div>","32","32","750","","test","go","51","random","","",""
"","395","32","1054","0","test_block","poldrack-single-stim","66","118997","0.0-5.0-52.0","go-nogo","true","0","","true","<div class = centerbox><div  id = stim1></div></div>","32","32","750","","test","go","52","random","","",""
"","1090","32","1494","0","test_block","poldrack-single-stim","67","120510","0.0-5.0-53.0","go-nogo","true","0","","true","<div class = centerbox><div  id = stim1></div></div>","32","32","750","","test","go","53","random","","",""
"","623","32","1475","0","test_block","poldrack-single-stim","68","121991","0.0-5.0-54.0","go-nogo","true","0","","true","<div class = centerbox><div  id = stim1></div></div>","32","32","750","","test","go","54","random","","",""
"","-1","-1","1023","0","test_block","poldrack-single-stim","69","123018","0.0-5.0-55.0","go-nogo","true","0","","true","<div class = centerbox><div  id = stim2></div></div>","-1","32","750","","test","nogo","55","random","","",""
"","567","32","1189","0","test_block","poldrack-single-stim","70","124212","0.0-5.0-56.0","go-nogo","true","0","","true","<div class = centerbox><div  id = stim1></div></div>","32","32","750","","test","go","56","random","","",""
"","488","32","1127","0","test_block","poldrack-single-stim","71","125347","0.0-5.0-57.0","go-nogo","true","0","","true","<div class = centerbox><div  id = stim1></div></div>","32","32","750","","test","go","57","random","","",""
"","360","32","1103","0","test_block","poldrack-single-stim","72","126454","0.0-5.0-58.0","go-nogo","true","0","","true","<div class = centerbox><div  id = stim1></div></div>","32","32","750","","test","go","58","random","","",""
"","371","32","1017","0","test_block","poldrack-single-stim","73","127476","0.0-5.0-59.0","go-nogo","true","0","","true","<div class = centerbox><div  id = stim1></div></div>","32","32","750","","test","go","59","random","","",""
"","400","32","1363","0","test_block","poldrack-single-stim","74","128847","0.0-5.0-60.0","go-nogo","true","0","","true","<div class = centerbox><div  id = stim1></div></div>","32","32","750","","test","go","60","random","","",""
"","390","32","1213","0","test_block","poldrack-single-stim","75","130064","0.0-5.0-61.0","go-nogo","true","0","","true","<div class = centerbox><div  id = stim1></div></div>","32","32","750","","test","go","61","random","","",""
"","406","32","1359","0","test_block","poldrack-single-stim","76","131428","0.0-5.0-62.0","go-nogo","true","0","","true","<div class = centerbox><div  id = stim1></div></div>","32","32","750","","test","go","62","random","","",""
"","391","32","1444","0","test_block","poldrack-single-stim","77","132877","0.0-5.0-63.0","go-nogo","true","0","","true","<div class = centerbox><div  id = stim1></div></div>","32","32","750","","test","go","63","random","","",""
"","395","32","1202","0","test_block","poldrack-single-stim","78","134083","0.0-5.0-64.0","go-nogo","true","0","","true","<div class = centerbox><div  id = stim1></div></div>","32","32","750","","test","go","64","random","","",""
"","404","32","1145","0","test_block","poldrack-single-stim","79","135233","0.0-5.0-65.0","go-nogo","true","0","","true","<div class = centerbox><div  id = stim1></div></div>","32","32","750","","test","go","65","random","","",""
"","316","32","1492","0","test_block","poldrack-single-stim","80","136731","0.0-5.0-66.0","go-nogo","true","0","","true","<div class = centerbox><div  id = stim1></div></div>","32","32","750","","test","go","66","random","","",""
"","507","32","1212","0","test_block","poldrack-single-stim","81","137948","0.0-5.0-67.0","go-nogo","true","0","","true","<div class = centerbox><div  id = stim1></div></div>","32","32","750","","test","go","67","random","","",""
"","396","32","1322","0","test_block","poldrack-single-stim","82","139274","0.0-5.0-68.0","go-nogo","true","0","","true","<div class = centerbox><div  id = stim1></div></div>","32","32","750","","test","go","68","random","","",""
"","432","32","1109","0","test_block","poldrack-single-stim","83","140387","0.0-5.0-69.0","go-nogo","true","0","","true","<div class = centerbox><div  id = stim1></div></div>","32","32","750","","test","go","69","random","","",""
"","498","32","1487","0","test_block","poldrack-single-stim","84","141882","0.0-5.0-70.0","go-nogo","true","0","","true","<div class = centerbox><div  id = stim1></div></div>","32","32","750","","test","go","70","random","","",""
"","531","32","1103","0","test_block","poldrack-single-stim","85","142989","0.0-5.0-71.0","go-nogo","true","0","","true","<div class = centerbox><div  id = stim1></div></div>","32","32","750","","test","go","71","random","","",""
"","760","32","1211","0","test_block","poldrack-single-stim","86","144205","0.0-5.0-72.0","go-nogo","true","0","","false","<div class = centerbox><div  id = stim2></div></div>","-1","32","750","","test","nogo","72","random","","",""
"","507","32","1438","0","test_block","poldrack-single-stim","87","145647","0.0-5.0-73.0","go-nogo","true","0","","true","<div class = centerbox><div  id = stim1></div></div>","32","32","750","","test","go","73","random","","",""
"","578","32","1295","0","test_block","poldrack-single-stim","88","146946","0.0-5.0-74.0","go-nogo","true","0","","true","<div class = centerbox><div  id = stim1></div></div>","32","32","750","","test","go","74","random","","",""
"","401","32","1264","0","test_block","poldrack-single-stim","89","148214","0.0-5.0-75.0","go-nogo","true","0","","true","<div class = centerbox><div  id = stim1></div></div>","32","32","750","","test","go","75","random","","",""
"","341","32","1119","0","test_block","poldrack-single-stim","90","149337","0.0-5.0-76.0","go-nogo","true","0","","true","<div class = centerbox><div  id = stim1></div></div>","32","32","750","","test","go","76","random","","",""
"","332","32","1067","0","test_block","poldrack-single-stim","91","150408","0.0-5.0-77.0","go-nogo","true","0","","true","<div class = centerbox><div  id = stim1></div></div>","32","32","750","","test","go","77","random","","",""
"","302","32","1482","0","test_block","poldrack-single-stim","92","151894","0.0-5.0-78.0","go-nogo","true","0","","true","<div class = centerbox><div  id = stim1></div></div>","32","32","750","","test","go","78","random","","",""
"","-1","-1","1029","0","test_block","poldrack-single-stim","93","152928","0.0-5.0-79.0","go-nogo","true","0","","true","<div class = centerbox><div  id = stim2></div></div>","-1","32","750","","test","nogo","79","random","","",""
"","536","32","1321","0","test_block","poldrack-single-stim","94","154254","0.0-5.0-80.0","go-nogo","true","0","","true","<div class = centerbox><div  id = stim1></div></div>","32","32","750","","test","go","80","random","","",""
"","355","32","1114","0","test_block","poldrack-single-stim","95","155372","0.0-5.0-81.0","go-nogo","true","0","","true","<div class = centerbox><div  id = stim1></div></div>","32","32","750","","test","go","81","random","","",""
"","308","32","1336","0","test_block","poldrack-single-stim","96","156712","0.0-5.0-82.0","go-nogo","true","0","","true","<div class = centerbox><div  id = stim1></div></div>","32","32","750","","test","go","82","random","","",""
"","352","32","1401","0","test_block","poldrack-single-stim","97","158122","0.0-5.0-83.0","go-nogo","true","0","","true","<div class = centerbox><div  id = stim1></div></div>","32","32","750","","test","go","83","random","","",""
"","333","32","1397","0","test_block","poldrack-single-stim","98","159523","0.0-5.0-84.0","go-nogo","true","0","","true","<div class = centerbox><div  id = stim1></div></div>","32","32","750","","test","go","84","random","","",""
"","401","32","1030","0","test_block","poldrack-single-stim","99","160557","0.0-5.0-85.0","go-nogo","true","0","","true","<div class = centerbox><div  id = stim1></div></div>","32","32","750","","test","go","85","random","","",""
"","-1","-1","1001","0","test_block","poldrack-single-stim","100","161562","0.0-5.0-86.0","go-nogo","true","0","","true","<div class = centerbox><div  id = stim2></div></div>","-1","32","750","","test","nogo","86","random","","",""
"","614","32","1073","0","test_block","poldrack-single-stim","101","162641","0.0-5.0-87.0","go-nogo","true","0","","true","<div class = centerbox><div  id = stim1></div></div>","32","32","750","","test","go","87","random","","",""
"","515","32","1154","0","test_block","poldrack-single-stim","102","163799","0.0-5.0-88.0","go-nogo","true","0","","true","<div class = centerbox><div  id = stim1></div></div>","32","32","750","","test","go","88","random","","",""
"","445","32","1162","0","test_block","poldrack-single-stim","103","164965","0.0-5.0-89.0","go-nogo","true","0","","true","<div class = centerbox><div  id = stim1></div></div>","32","32","750","","test","go","89","random","","",""
"","337","32","1397","0","test_block","poldrack-single-stim","104","166368","0.0-5.0-90.0","go-nogo","true","0","","true","<div class = centerbox><div  id = stim1></div></div>","32","32","750","","test","go","90","random","","",""
"","810","32","1350","0","test_block","poldrack-single-stim","105","167725","0.0-5.0-91.0","go-nogo","true","0","","true","<div class = centerbox><div  id = stim1></div></div>","32","32","750","","test","go","91","random","","",""
"","524","32","1244","0","test_block","poldrack-single-stim","106","168973","0.0-5.0-92.0","go-nogo","true","0","","true","<div class = centerbox><div  id = stim1></div></div>","32","32","750","","test","go","92","random","","",""
"","440","32","1111","0","test_block","poldrack-single-stim","107","170089","0.0-5.0-93.0","go-nogo","true","0","","true","<div class = centerbox><div  id = stim1></div></div>","32","32","750","","test","go","93","random","","",""
"","422","32","1309","0","test_block","poldrack-single-stim","108","171402","0.0-5.0-94.0","go-nogo","true","0","","true","<div class = centerbox><div  id = stim1></div></div>","32","32","750","","test","go","94","random","","",""
"","310","32","1279","0","test_block","poldrack-single-stim","109","172685","0.0-5.0-95.0","go-nogo","true","0","","true","<div class = centerbox><div  id = stim1></div></div>","32","32","750","","test","go","95","random","","",""
"","350","32","1243","0","test_block","poldrack-single-stim","110","173932","0.0-5.0-96.0","go-nogo","true","0","","true","<div class = centerbox><div  id = stim1></div></div>","32","32","750","","test","go","96","random","","",""
"","208","32","1087","0","test_block","poldrack-single-stim","111","175024","0.0-5.0-97.0","go-nogo","true","0","","true","<div class = centerbox><div  id = stim1></div></div>","32","32","750","","test","go","97","random","","",""
"","397","32","1296","0","test_block","poldrack-single-stim","112","176324","0.0-5.0-98.0","go-nogo","true","0","","true","<div class = centerbox><div  id = stim1></div></div>","32","32","750","","test","go","98","random","","",""
"","-1","-1","1451","0","test_block","poldrack-single-stim","113","177779","0.0-5.0-99.0","go-nogo","true","0","","true","<div class = centerbox><div  id = stim2></div></div>","-1","32","750","","test","nogo","99","random","","",""
"","596","32","1121","0","test_block","poldrack-single-stim","114","178905","0.0-5.0-100.0","go-nogo","true","0","","true","<div class = centerbox><div  id = stim1></div></div>","32","32","750","","test","go","100","random","","",""
"","568","32","1338","0","test_block","poldrack-single-stim","115","180247","0.0-5.0-101.0","go-nogo","true","0","","true","<div class = centerbox><div  id = stim1></div></div>","32","32","750","","test","go","101","random","","",""
"","339","32","1016","0","test_block","poldrack-single-stim","116","181268","0.0-5.0-102.0","go-nogo","true","0","","true","<div class = centerbox><div  id = stim1></div></div>","32","32","750","","test","go","102","random","","",""
"","348","32","1135","0","test_block","poldrack-single-stim","117","182407","0.0-5.0-103.0","go-nogo","true","0","","true","<div class = centerbox><div  id = stim1></div></div>","32","32","750","","test","go","103","random","","",""
"","445","32","1476","0","test_block","poldrack-single-stim","118","183888","0.0-5.0-104.0","go-nogo","true","0","","true","<div class = centerbox><div  id = stim1></div></div>","32","32","750","","test","go","104","random","","",""
"","367","32","1053","0","test_block","poldrack-single-stim","119","184945","0.0-5.0-105.0","go-nogo","true","0","","true","<div class = centerbox><div  id = stim1></div></div>","32","32","750","","test","go","105","random","","",""
"","367","32","1062","0","test_block","poldrack-single-stim","120","186011","0.0-5.0-106.0","go-nogo","true","0","","true","<div class = centerbox><div  id = stim1></div></div>","32","32","750","","test","go","106","random","","",""
"","462","32","1451","0","test_block","poldrack-single-stim","121","187466","0.0-5.0-107.0","go-nogo","true","0","","true","<div class = centerbox><div  id = stim1></div></div>","32","32","750","","test","go","107","random","","",""
"","386","32","1062","0","test_block","poldrack-single-stim","122","188533","0.0-5.0-108.0","go-nogo","true","0","","true","<div class = centerbox><div  id = stim1></div></div>","32","32","750","","test","go","108","random","","",""
"","-1","-1","1146","0","test_block","poldrack-single-stim","123","189686","0.0-5.0-109.0","go-nogo","true","0","","true","<div class = centerbox><div  id = stim2></div></div>","-1","32","750","","test","nogo","109","random","","",""
"","659","32","1258","0","test_block","poldrack-single-stim","124","190950","0.0-5.0-110.0","go-nogo","true","0","","true","<div class = centerbox><div  id = stim1></div></div>","32","32","750","","test","go","110","random","","",""
"","368","32","1368","0","test_block","poldrack-single-stim","125","192323","0.0-5.0-111.0","go-nogo","true","0","","true","<div class = centerbox><div  id = stim1></div></div>","32","32","750","","test","go","111","random","","",""
"","-1","-1","1087","0","test_block","poldrack-single-stim","126","193414","0.0-5.0-112.0","go-nogo","true","0","","false","<div class = centerbox><div  id = stim1></div></div>","32","32","750","","test","go","112","random","","",""
"","498","32","1440","0","test_block","poldrack-single-stim","127","194858","0.0-5.0-113.0","go-nogo","true","0","","true","<div class = centerbox><div  id = stim1></div></div>","32","32","750","","test","go","113","random","","",""
"","327","32","1364","0","test_block","poldrack-single-stim","128","196227","0.0-5.0-114.0","go-nogo","true","0","","true","<div class = centerbox><div  id = stim1></div></div>","32","32","750","","test","go","114","random","","",""
"","-1","-1","1154","0","test_block","poldrack-single-stim","129","197389","0.0-5.0-115.0","go-nogo","true","0","","false","<div class = centerbox><div  id = stim1></div></div>","32","32","750","","test","go","115","random","","",""
"","-1","-1","1232","0","test_block","poldrack-single-stim","130","198625","0.0-5.0-116.0","go-nogo","true","0","","false","<div class = centerbox><div  id = stim1></div></div>","32","32","750","","test","go","116","random","","",""
"","455","32","1230","0","test_block","poldrack-single-stim","131","199859","0.0-5.0-117.0","go-nogo","true","0","","true","<div class = centerbox><div  id = stim1></div></div>","32","32","750","","test","go","117","random","","",""
"","391","32","1130","0","test_block","poldrack-single-stim","132","200994","0.0-5.0-118.0","go-nogo","true","0","","true","<div class = centerbox><div  id = stim1></div></div>","32","32","750","","test","go","118","random","","",""
"","383","32","1062","0","test_block","poldrack-single-stim","133","202060","0.0-5.0-119.0","go-nogo","true","0","","true","<div class = centerbox><div  id = stim1></div></div>","32","32","750","","test","go","119","random","","",""
"","337","32","1242","0","test_block","poldrack-single-stim","134","203307","0.0-5.0-120.0","go-nogo","true","0","","true","<div class = centerbox><div  id = stim1></div></div>","32","32","750","","test","go","120","random","","",""
"","388","32","1418","0","test_block","poldrack-single-stim","135","204730","0.0-5.0-121.0","go-nogo","true","0","","true","<div class = centerbox><div  id = stim1></div></div>","32","32","750","","test","go","121","random","","",""
"","446","32","1335","0","test_block","poldrack-single-stim","136","206071","0.0-5.0-122.0","go-nogo","true","0","","true","<div class = centerbox><div  id = stim1></div></div>","32","32","750","","test","go","122","random","","",""
"","375","32","1065","0","test_block","poldrack-single-stim","137","207140","0.0-5.0-123.0","go-nogo","true","0","","true","<div class = centerbox><div  id = stim1></div></div>","32","32","750","","test","go","123","random","","",""
"","369","32","1480","0","test_block","poldrack-single-stim","138","208624","0.0-5.0-124.0","go-nogo","true","0","","true","<div class = centerbox><div  id = stim1></div></div>","32","32","750","","test","go","124","random","","",""
"","-1","-1","1301","0","test_block","poldrack-single-stim","139","209931","0.0-5.0-125.0","go-nogo","true","0","","false","<div class = centerbox><div  id = stim1></div></div>","32","32","750","","test","go","125","random","","",""
"","427","32","1025","0","test_block","poldrack-single-stim","140","210961","0.0-5.0-126.0","go-nogo","true","0","","true","<div class = centerbox><div  id = stim1></div></div>","32","32","750","","test","go","126","random","","",""
"","422","32","1270","0","test_block","poldrack-single-stim","141","212235","0.0-5.0-127.0","go-nogo","true","0","","true","<div class = centerbox><div  id = stim1></div></div>","32","32","750","","test","go","127","random","","",""
"","347","32","1205","0","test_block","poldrack-single-stim","142","213446","0.0-5.0-128.0","go-nogo","true","0","","true","<div class = centerbox><div  id = stim1></div></div>","32","32","750","","test","go","128","random","","",""
"","370","32","1102","0","test_block","poldrack-single-stim","143","214552","0.0-5.0-129.0","go-nogo","true","0","","true","<div class = centerbox><div  id = stim1></div></div>","32","32","750","","test","go","129","random","","",""
"","529","32","1161","0","test_block","poldrack-single-stim","144","215717","0.0-5.0-130.0","go-nogo","true","0","","true","<div class = centerbox><div  id = stim1></div></div>","32","32","750","","test","go","130","random","","",""
"","938","32","1215","0","test_block","poldrack-single-stim","145","216936","0.0-5.0-131.0","go-nogo","true","0","","true","<div class = centerbox><div  id = stim1></div></div>","32","32","750","","test","go","131","random","","",""
"","816","32","1323","0","test_block","poldrack-single-stim","146","218268","0.0-5.0-132.0","go-nogo","true","0","","true","<div class = centerbox><div  id = stim1></div></div>","32","32","750","","test","go","132","random","","",""
"","725","32","1378","0","test_block","poldrack-single-stim","147","219653","0.0-5.0-133.0","go-nogo","true","0","","true","<div class = centerbox><div  id = stim1></div></div>","32","32","750","","test","go","133","random","","",""
"","323","32","1379","0","test_block","poldrack-single-stim","148","221036","0.0-5.0-134.0","go-nogo","true","0","","true","<div class = centerbox><div  id = stim1></div></div>","32","32","750","","test","go","134","random","","",""
"","332","32","1169","0","test_block","poldrack-single-stim","149","222214","0.0-5.0-135.0","go-nogo","true","0","","true","<div class = centerbox><div  id = stim1></div></div>","32","32","750","","test","go","135","random","","",""
"","382","32","1467","0","test_block","poldrack-single-stim","150","223688","0.0-5.0-136.0","go-nogo","true","0","","true","<div class = centerbox><div  id = stim1></div></div>","32","32","750","","test","go","136","random","","",""
"","63","32","1007","0","test_block","poldrack-single-stim","151","224699","0.0-5.0-137.0","go-nogo","true","0","","true","<div class = centerbox><div  id = stim1></div></div>","32","32","750","","test","go","137","random","","",""
"","808","32","1457","0","test_block","poldrack-single-stim","152","226160","0.0-5.0-138.0","go-nogo","true","0","","true","<div class = centerbox><div  id = stim1></div></div>","32","32","750","","test","go","138","random","","",""
"","615","32","1307","0","test_block","poldrack-single-stim","153","227471","0.0-5.0-139.0","go-nogo","true","0","","true","<div class = centerbox><div  id = stim1></div></div>","32","32","750","","test","go","139","random","","",""
"","464","32","1333","0","test_block","poldrack-single-stim","154","228808","0.0-5.0-140.0","go-nogo","true","0","","true","<div class = centerbox><div  id = stim1></div></div>","32","32","750","","test","go","140","random","","",""
"","464","32","1117","0","test_block","poldrack-single-stim","155","229929","0.0-5.0-141.0","go-nogo","true","0","","true","<div class = centerbox><div  id = stim1></div></div>","32","32","750","","test","go","141","random","","",""
"","465","32","1249","0","test_block","poldrack-single-stim","156","231182","0.0-5.0-142.0","go-nogo","true","0","","true","<div class = centerbox><div  id = stim1></div></div>","32","32","750","","test","go","142","random","","",""
"","-1","-1","1181","0","test_block","poldrack-single-stim","157","232367","0.0-5.0-143.0","go-nogo","true","0","","false","<div class = centerbox><div  id = stim1></div></div>","32","32","750","","test","go","143","random","","",""
"","425","32","1246","0","test_block","poldrack-single-stim","158","233617","0.0-5.0-144.0","go-nogo","true","0","","true","<div class = centerbox><div  id = stim1></div></div>","32","32","750","","test","go","144","random","","",""
"","407","32","1270","0","test_block","poldrack-single-stim","159","234891","0.0-5.0-145.0","go-nogo","true","0","","true","<div class = centerbox><div  id = stim1></div></div>","32","32","750","","test","go","145","random","","",""
"","477","32","1093","0","test_block","poldrack-single-stim","160","235989","0.0-5.0-146.0","go-nogo","true","0","","true","<div class = centerbox><div  id = stim1></div></div>","32","32","750","","test","go","146","random","","",""
"","439","32","1467","0","test_block","poldrack-single-stim","161","237460","0.0-5.0-147.0","go-nogo","true","0","","true","<div class = centerbox><div  id = stim1></div></div>","32","32","750","","test","go","147","random","","",""
"","283","32","1020","0","test_block","poldrack-single-stim","162","238484","0.0-5.0-148.0","go-nogo","true","0","","false","<div class = centerbox><div  id = stim2></div></div>","-1","32","750","","test","nogo","148","random","","",""
"","525","32","1381","0","test_block","poldrack-single-stim","163","239871","0.0-5.0-149.0","go-nogo","true","0","","true","<div class = centerbox><div  id = stim1></div></div>","32","32","750","","test","go","149","random","","",""
"","-1","-1","1402","0","test_block","poldrack-single-stim","164","241277","0.0-5.0-150.0","go-nogo","true","0","","true","<div class = centerbox><div  id = stim2></div></div>","-1","32","750","","test","nogo","150","random","","",""
"","595","32","1043","0","test_block","poldrack-single-stim","165","242324","0.0-5.0-151.0","go-nogo","true","0","","true","<div class = centerbox><div  id = stim1></div></div>","32","32","750","","test","go","151","random","","",""
"","437","32","1286","0","test_block","poldrack-single-stim","166","243614","0.0-5.0-152.0","go-nogo","true","0","","true","<div class = centerbox><div  id = stim1></div></div>","32","32","750","","test","go","152","random","","",""
"","430","32","1497","0","test_block","poldrack-single-stim","167","245116","0.0-5.0-153.0","go-nogo","true","0","","true","<div class = centerbox><div  id = stim1></div></div>","32","32","750","","test","go","153","random","","",""
"","-1","-1","1318","0","test_block","poldrack-single-stim","168","246439","0.0-5.0-154.0","go-nogo","true","0","","true","<div class = centerbox><div  id = stim2></div></div>","-1","32","750","","test","nogo","154","random","","",""
"","-1","-1","1114","0","test_block","poldrack-single-stim","169","247559","0.0-5.0-155.0","go-nogo","true","0","","false","<div class = centerbox><div  id = stim1></div></div>","32","32","750","","test","go","155","random","","",""
"","437","32","1332","0","test_block","poldrack-single-stim","170","248895","0.0-5.0-156.0","go-nogo","true","0","","true","<div class = centerbox><div  id = stim1></div></div>","32","32","750","","test","go","156","random","","",""
"","431","32","1438","0","test_block","poldrack-single-stim","171","250339","0.0-5.0-157.0","go-nogo","true","0","","true","<div class = centerbox><div  id = stim1></div></div>","32","32","750","","test","go","157","random","","",""
"","407","32","1091","0","test_block","poldrack-single-stim","172","251436","0.0-5.0-158.0","go-nogo","true","0","","true","<div class = centerbox><div  id = stim1></div></div>","32","32","750","","test","go","158","random","","",""
"","370","32","1392","0","test_block","poldrack-single-stim","173","252832","0.0-5.0-159.0","go-nogo","true","0","","true","<div class = centerbox><div  id = stim1></div></div>","32","32","750","","test","go","159","random","","",""
"","328","32","1000","0","test_block","poldrack-single-stim","174","253836","0.0-5.0-160.0","go-nogo","true","0","","true","<div class = centerbox><div  id = stim1></div></div>","32","32","750","","test","go","160","random","","",""
"","372","32","1393","0","test_block","poldrack-single-stim","175","255236","0.0-5.0-161.0","go-nogo","true","0","","true","<div class = centerbox><div  id = stim1></div></div>","32","32","750","","test","go","161","random","","",""
"","391","32","1221","0","test_block","poldrack-single-stim","176","256461","0.0-5.0-162.0","go-nogo","true","0","","true","<div class = centerbox><div  id = stim1></div></div>","32","32","750","","test","go","162","random","","",""
"","401","32","1250","0","test_block","poldrack-single-stim","177","257715","0.0-5.0-163.0","go-nogo","true","0","","true","<div class = centerbox><div  id = stim1></div></div>","32","32","750","","test","go","163","random","","",""
"","469","32","1205","0","test_block","poldrack-single-stim","178","258925","0.0-5.0-164.0","go-nogo","true","0","","true","<div class = centerbox><div  id = stim1></div></div>","32","32","750","","test","go","164","random","","",""
"","465","32","1313","0","test_block","poldrack-single-stim","179","260246","0.0-5.0-165.0","go-nogo","true","0","","true","<div class = centerbox><div  id = stim1></div></div>","32","32","750","","test","go","165","random","","",""
"","339","32","1444","0","test_block","poldrack-single-stim","180","261693","0.0-5.0-166.0","go-nogo","true","0","","false","<div class = centerbox><div  id = stim2></div></div>","-1","32","750","","test","nogo","166","random","","",""
"","-1","-1","1254","0","test_block","poldrack-single-stim","181","262950","0.0-5.0-167.0","go-nogo","true","0","","true","<div class = centerbox><div  id = stim2></div></div>","-1","32","750","","test","nogo","167","random","","",""
"","469","32","1150","0","test_block","poldrack-single-stim","182","264103","0.0-5.0-168.0","go-nogo","true","0","","true","<div class = centerbox><div  id = stim1></div></div>","32","32","750","","test","go","168","random","","",""
"","354","32","1392","0","test_block","poldrack-single-stim","183","265498","0.0-5.0-169.0","go-nogo","true","0","","true","<div class = centerbox><div  id = stim1></div></div>","32","32","750","","test","go","169","random","","",""
"","349","32","1203","0","test_block","poldrack-single-stim","184","266706","0.0-5.0-170.0","go-nogo","true","0","","true","<div class = centerbox><div  id = stim1></div></div>","32","32","750","","test","go","170","random","","",""
"","1077","32","1198","0","test_block","poldrack-single-stim","185","267907","0.0-5.0-171.0","go-nogo","true","0","","true","<div class = centerbox><div  id = stim1></div></div>","32","32","750","","test","go","171","random","","",""
"","503","32","1265","0","test_block","poldrack-single-stim","186","269175","0.0-5.0-172.0","go-nogo","true","0","","true","<div class = centerbox><div  id = stim1></div></div>","32","32","750","","test","go","172","random","","",""
"","400","32","1318","0","test_block","poldrack-single-stim","187","270497","0.0-5.0-173.0","go-nogo","true","0","","true","<div class = centerbox><div  id = stim1></div></div>","32","32","750","","test","go","173","random","","",""
"","388","32","1471","0","test_block","poldrack-single-stim","188","271973","0.0-5.0-174.0","go-nogo","true","0","","true","<div class = centerbox><div  id = stim1></div></div>","32","32","750","","test","go","174","random","","",""
"","506","32","1249","0","test_block","poldrack-single-stim","189","273228","0.0-5.0-175.0","go-nogo","true","0","","true","<div class = centerbox><div  id = stim1></div></div>","32","32","750","","test","go","175","random","","",""
"","456","32","1454","0","test_block","poldrack-single-stim","190","274688","0.0-5.0-176.0","go-nogo","true","0","","true","<div class = centerbox><div  id = stim1></div></div>","32","32","750","","test","go","176","random","","",""
"","460","32","1064","0","test_block","poldrack-single-stim","191","275755","0.0-5.0-177.0","go-nogo","true","0","","true","<div class = centerbox><div  id = stim1></div></div>","32","32","750","","test","go","177","random","","",""
"","379","32","1060","0","test_block","poldrack-single-stim","192","276819","0.0-5.0-178.0","go-nogo","true","0","","true","<div class = centerbox><div  id = stim1></div></div>","32","32","750","","test","go","178","random","","",""
"","376","32","1343","0","test_block","poldrack-single-stim","193","278168","0.0-5.0-179.0","go-nogo","true","0","","true","<div class = centerbox><div  id = stim1></div></div>","32","32","750","","test","go","179","random","","",""
"","366","32","1274","0","test_block","poldrack-single-stim","194","279445","0.0-5.0-180.0","go-nogo","true","0","","true","<div class = centerbox><div  id = stim1></div></div>","32","32","750","","test","go","180","random","","",""
"","535","32","1276","0","test_block","poldrack-single-stim","195","280725","0.0-5.0-181.0","go-nogo","true","0","","true","<div class = centerbox><div  id = stim1></div></div>","32","32","750","","test","go","181","random","","",""
"","388","32","1499","0","test_block","poldrack-single-stim","196","282227","0.0-5.0-182.0","go-nogo","true","0","","true","<div class = centerbox><div  id = stim1></div></div>","32","32","750","","test","go","182","random","","",""
"","174","32","1394","0","test_block","poldrack-single-stim","197","283638","0.0-5.0-183.0","go-nogo","true","0","","true","<div class = centerbox><div  id = stim1></div></div>","32","32","750","","test","go","183","random","","",""
"","-1","-1","1477","0","test_block","poldrack-single-stim","198","285119","0.0-5.0-184.0","go-nogo","true","0","","false","<div class = centerbox><div  id = stim1></div></div>","32","32","750","","test","go","184","random","","",""
"","898","32","1023","0","test_block","poldrack-single-stim","199","286146","0.0-5.0-185.0","go-nogo","true","0","","true","<div class = centerbox><div  id = stim1></div></div>","32","32","750","","test","go","185","random","","",""
"","549","32","1484","0","test_block","poldrack-single-stim","200","287633","0.0-5.0-186.0","go-nogo","true","0","","true","<div class = centerbox><div  id = stim1></div></div>","32","32","750","","test","go","186","random","","",""
"","-1","-1","1323","0","test_block","poldrack-single-stim","201","288960","0.0-5.0-187.0","go-nogo","true","0","","true","<div class = centerbox><div  id = stim2></div></div>","-1","32","750","","test","nogo","187","random","","",""
"","346","32","1374","0","test_block","poldrack-single-stim","202","290338","0.0-5.0-188.0","go-nogo","true","0","","true","<div class = centerbox><div  id = stim1></div></div>","32","32","750","","test","go","188","random","","",""
"","365","32","1381","0","test_block","poldrack-single-stim","203","291723","0.0-5.0-189.0","go-nogo","true","0","","true","<div class = centerbox><div  id = stim1></div></div>","32","32","750","","test","go","189","random","","",""
"","432","32","1229","0","test_block","poldrack-single-stim","204","292955","0.0-5.0-190.0","go-nogo","true","0","","true","<div class = centerbox><div  id = stim1></div></div>","32","32","750","","test","go","190","random","","",""
"","778","32","1228","0","test_block","poldrack-single-stim","205","294188","0.0-5.0-191.0","go-nogo","true","0","","true","<div class = centerbox><div  id = stim1></div></div>","32","32","750","","test","go","191","random","","",""
"","-1","-1","1196","0","test_block","poldrack-single-stim","206","295391","0.0-5.0-192.0","go-nogo","true","0","","true","<div class = centerbox><div  id = stim2></div></div>","-1","32","750","","test","nogo","192","random","","",""
"","356","32","1284","0","test_block","poldrack-single-stim","207","296678","0.0-5.0-193.0","go-nogo","true","0","","true","<div class = centerbox><div  id = stim1></div></div>","32","32","750","","test","go","193","random","","",""
"","329","32","1136","0","test_block","poldrack-single-stim","208","297817","0.0-5.0-194.0","go-nogo","true","0","","true","<div class = centerbox><div  id = stim1></div></div>","32","32","750","","test","go","194","random","","",""
"","439","32","1399","0","test_block","poldrack-single-stim","209","299220","0.0-5.0-195.0","go-nogo","true","0","","true","<div class = centerbox><div  id = stim1></div></div>","32","32","750","","test","go","195","random","","",""
"","367","32","1130","0","test_block","poldrack-single-stim","210","300355","0.0-5.0-196.0","go-nogo","true","0","","true","<div class = centerbox><div  id = stim1></div></div>","32","32","750","","test","go","196","random","","",""
"","416","32","1379","0","test_block","poldrack-single-stim","211","301738","0.0-5.0-197.0","go-nogo","true","0","","true","<div class = centerbox><div  id = stim1></div></div>","32","32","750","","test","go","197","random","","",""
"","349","32","1336","0","test_block","poldrack-single-stim","212","303077","0.0-5.0-198.0","go-nogo","true","0","","true","<div class = centerbox><div  id = stim1></div></div>","32","32","750","","test","go","198","random","","",""
"","-1","-1","1254","0","test_block","poldrack-single-stim","213","304339","0.0-5.0-199.0","go-nogo","true","0","","true","<div class = centerbox><div  id = stim2></div></div>","-1","32","750","","test","nogo","199","random","","",""
"","838","32","1090","0","test_block","poldrack-single-stim","214","305434","0.0-5.0-200.0","go-nogo","true","0","","true","<div class = centerbox><div  id = stim1></div></div>","32","32","750","","test","go","200","random","","",""
"","911","32","1119","0","test_block","poldrack-single-stim","215","306559","0.0-5.0-201.0","go-nogo","true","0","","true","<div class = centerbox><div  id = stim1></div></div>","32","32","750","","test","go","201","random","","",""
"","783","32","1465","0","test_block","poldrack-single-stim","216","308028","0.0-5.0-202.0","go-nogo","true","0","","true","<div class = centerbox><div  id = stim1></div></div>","32","32","750","","test","go","202","random","","",""
"","-1","-1","1135","0","test_block","poldrack-single-stim","217","309167","0.0-5.0-203.0","go-nogo","true","0","","false","<div class = centerbox><div  id = stim1></div></div>","32","32","750","","test","go","203","random","","",""
"","-1","-1","1330","0","test_block","poldrack-single-stim","218","310500","0.0-5.0-204.0","go-nogo","true","0","","false","<div class = centerbox><div  id = stim1></div></div>","32","32","750","","test","go","204","random","","",""
"","1326","32","1461","0","test_block","poldrack-single-stim","219","311964","0.0-5.0-205.0","go-nogo","true","0","","true","<div class = centerbox><div  id = stim1></div></div>","32","32","750","","test","go","205","random","","",""
"","796","32","1144","0","test_block","poldrack-single-stim","220","313112","0.0-5.0-206.0","go-nogo","true","0","","true","<div class = centerbox><div  id = stim1></div></div>","32","32","750","","test","go","206","random","","",""
"","1138","32","1281","0","test_block","poldrack-single-stim","221","314397","0.0-5.0-207.0","go-nogo","true","0","","true","<div class = centerbox><div  id = stim1></div></div>","32","32","750","","test","go","207","random","","",""
"","1048","32","1316","0","test_block","poldrack-single-stim","222","315717","0.0-5.0-208.0","go-nogo","true","0","","true","<div class = centerbox><div  id = stim1></div></div>","32","32","750","","test","go","208","random","","",""
"","-1","-1","1412","0","test_block","poldrack-single-stim","223","317132","0.0-5.0-209.0","go-nogo","true","0","","false","<div class = centerbox><div  id = stim1></div></div>","32","32","750","","test","go","209","random","","",""
"","1089","32","1192","0","test_block","poldrack-single-stim","224","318327","0.0-5.0-210.0","go-nogo","true","0","","true","<div class = centerbox><div  id = stim1></div></div>","32","32","750","","test","go","210","random","","",""
"","839","32","1356","0","test_block","poldrack-single-stim","225","319690","0.0-5.0-211.0","go-nogo","true","0","","true","<div class = centerbox><div  id = stim1></div></div>","32","32","750","","test","go","211","random","","",""
"","812","32","1313","0","test_block","poldrack-single-stim","226","321006","0.0-5.0-212.0","go-nogo","true","0","","true","<div class = centerbox><div  id = stim1></div></div>","32","32","750","","test","go","212","random","","",""
"","422","32","1378","0","test_block","poldrack-single-stim","227","322387","0.0-5.0-213.0","go-nogo","true","0","","true","<div class = centerbox><div  id = stim1></div></div>","32","32","750","","test","go","213","random","","",""
"","1243","32","1432","0","test_block","poldrack-single-stim","228","323823","0.0-5.0-214.0","go-nogo","true","0","","true","<div class = centerbox><div  id = stim1></div></div>","32","32","750","","test","go","214","random","","",""
"","355","32","1426","0","test_block","poldrack-single-stim","229","325256","0.0-5.0-215.0","go-nogo","true","0","","true","<div class = centerbox><div  id = stim1></div></div>","32","32","750","","test","go","215","random","","",""
"","508","32","1398","0","test_block","poldrack-single-stim","230","326658","0.0-5.0-216.0","go-nogo","true","0","","true","<div class = centerbox><div  id = stim1></div></div>","32","32","750","","test","go","216","random","","",""
"","363","32","1329","0","test_block","poldrack-single-stim","231","327993","0.0-5.0-217.0","go-nogo","true","0","","true","<div class = centerbox><div  id = stim1></div></div>","32","32","750","","test","go","217","random","","",""
"","877","32","1025","0","test_block","poldrack-single-stim","232","329021","0.0-5.0-218.0","go-nogo","true","0","","true","<div class = centerbox><div  id = stim1></div></div>","32","32","750","","test","go","218","random","","",""
"","800","32","1301","0","test_block","poldrack-single-stim","233","330329","0.0-5.0-219.0","go-nogo","true","0","","true","<div class = centerbox><div  id = stim1></div></div>","32","32","750","","test","go","219","random","","",""
"","-1","-1","1115","0","test_block","poldrack-single-stim","234","331453","0.0-5.0-220.0","go-nogo","true","0","","true","<div class = centerbox><div  id = stim2></div></div>","-1","32","750","","test","nogo","220","random","","",""
"","306","32","1326","0","test_block","poldrack-single-stim","235","332783","0.0-5.0-221.0","go-nogo","true","0","","true","<div class = centerbox><div  id = stim1></div></div>","32","32","750","","test","go","221","random","","",""
"","-1","-1","1144","0","test_block","poldrack-single-stim","236","333932","0.0-5.0-222.0","go-nogo","true","0","","false","<div class = centerbox><div  id = stim1></div></div>","32","32","750","","test","go","222","random","","",""
"","18","32","1000","0","test_block","poldrack-single-stim","237","334936","0.0-5.0-223.0","go-nogo","true","0","","true","<div class = centerbox><div  id = stim1></div></div>","32","32","750","","test","go","223","random","","",""
"","308","32","1125","0","test_block","poldrack-single-stim","238","336065","0.0-5.0-224.0","go-nogo","true","0","","true","<div class = centerbox><div  id = stim1></div></div>","32","32","750","","test","go","224","random","","",""
"","361","32","1151","0","test_block","poldrack-single-stim","239","337220","0.0-5.0-225.0","go-nogo","true","0","","true","<div class = centerbox><div  id = stim1></div></div>","32","32","750","","test","go","225","random","","",""
"","586","32","1061","0","test_block","poldrack-single-stim","240","338285","0.0-5.0-226.0","go-nogo","true","0","","true","<div class = centerbox><div  id = stim1></div></div>","32","32","750","","test","go","226","random","","",""
"","369","32","1165","0","test_block","poldrack-single-stim","241","339455","0.0-5.0-227.0","go-nogo","true","0","","true","<div class = centerbox><div  id = stim1></div></div>","32","32","750","","test","go","227","random","","",""
"","596","32","1472","0","test_block","poldrack-single-stim","242","340931","0.0-5.0-228.0","go-nogo","true","0","","true","<div class = centerbox><div  id = stim1></div></div>","32","32","750","","test","go","228","random","","",""
"","1007","32","1230","0","test_block","poldrack-single-stim","243","342165","0.0-5.0-229.0","go-nogo","true","0","","true","<div class = centerbox><div  id = stim1></div></div>","32","32","750","","test","go","229","random","","",""
"","-1","-1","1087","0","test_block","poldrack-single-stim","244","343256","0.0-5.0-230.0","go-nogo","true","0","","true","<div class = centerbox><div  id = stim2></div></div>","-1","32","750","","test","nogo","230","random","","",""
"","316","32","1448","0","test_block","poldrack-single-stim","245","344709","0.0-5.0-231.0","go-nogo","true","0","","true","<div class = centerbox><div  id = stim1></div></div>","32","32","750","","test","go","231","random","","",""
"","-1","-1","1212","0","test_block","poldrack-single-stim","246","345926","0.0-5.0-232.0","go-nogo","true","0","","false","<div class = centerbox><div  id = stim1></div></div>","32","32","750","","test","go","232","random","","",""
"","231","32","1436","0","test_block","poldrack-single-stim","247","347367","0.0-5.0-233.0","go-nogo","true","0","","true","<div class = centerbox><div  id = stim1></div></div>","32","32","750","","test","go","233","random","","",""
"","-1","-1","1253","0","test_block","poldrack-single-stim","248","348628","0.0-5.0-234.0","go-nogo","true","0","","false","<div class = centerbox><div  id = stim1></div></div>","32","32","750","","test","go","234","random","","",""
"","-1","-1","1437","0","test_block","poldrack-single-stim","249","350069","0.0-5.0-235.0","go-nogo","true","0","","false","<div class = centerbox><div  id = stim1></div></div>","32","32","750","","test","go","235","random","","",""
"","-1","-1","1049","0","test_block","poldrack-single-stim","250","351123","0.0-5.0-236.0","go-nogo","true","0","","true","<div class = centerbox><div  id = stim2></div></div>","-1","32","750","","test","nogo","236","random","","",""
"","-1","-1","1383","0","test_block","poldrack-single-stim","251","352510","0.0-5.0-237.0","go-nogo","true","0","","false","<div class = centerbox><div  id = stim1></div></div>","32","32","750","","test","go","237","random","","",""
"","639","32","1235","0","test_block","poldrack-single-stim","252","353749","0.0-5.0-238.0","go-nogo","true","0","","true","<div class = centerbox><div  id = stim1></div></div>","32","32","750","","test","go","238","random","","",""
"","318","32","1238","0","test_block","poldrack-single-stim","253","354994","0.0-5.0-239.0","go-nogo","true","0","","true","<div class = centerbox><div  id = stim1></div></div>","32","32","750","","test","go","239","random","","",""
"","809","32","1046","0","test_block","poldrack-single-stim","254","356044","0.0-5.0-240.0","go-nogo","true","0","","true","<div class = centerbox><div  id = stim1></div></div>","32","32","750","","test","go","240","random","","",""
"","562","32","1037","0","test_block","poldrack-single-stim","255","357088","0.0-5.0-241.0","go-nogo","true","0","","true","<div class = centerbox><div  id = stim1></div></div>","32","32","750","","test","go","241","random","","",""
"","18","32","1188","0","test_block","poldrack-single-stim","256","358281","0.0-5.0-242.0","go-nogo","true","0","","true","<div class = centerbox><div  id = stim1></div></div>","32","32","750","","test","go","242","random","","",""
"","1360","32","1384","0","test_block","poldrack-single-stim","257","359668","0.0-5.0-243.0","go-nogo","true","0","","true","<div class = centerbox><div  id = stim1></div></div>","32","32","750","","test","go","243","random","","",""
"","663","32","1114","0","test_block","poldrack-single-stim","258","360786","0.0-5.0-244.0","go-nogo","true","0","","true","<div class = centerbox><div  id = stim1></div></div>","32","32","750","","test","go","244","random","","",""
"","-1","-1","1146","0","test_block","poldrack-single-stim","259","361935","0.0-5.0-245.0","go-nogo","true","0","","false","<div class = centerbox><div  id = stim1></div></div>","32","32","750","","test","go","245","random","","",""
"","477","32","1033","0","test_block","poldrack-single-stim","260","362972","0.0-5.0-246.0","go-nogo","true","0","","true","<div class = centerbox><div  id = stim1></div></div>","32","32","750","","test","go","246","random","","",""
"","1076","32","1490","0","test_block","poldrack-single-stim","261","364466","0.0-5.0-247.0","go-nogo","true","0","","true","<div class = centerbox><div  id = stim1></div></div>","32","32","750","","test","go","247","random","","",""
"","338","32","1293","0","test_block","poldrack-single-stim","262","365762","0.0-5.0-248.0","go-nogo","true","0","","true","<div class = centerbox><div  id = stim1></div></div>","32","32","750","","test","go","248","random","","",""
"","1079","32","1147","0","test_block","poldrack-single-stim","263","366912","0.0-5.0-249.0","go-nogo","true","0","","true","<div class = centerbox><div  id = stim1></div></div>","32","32","750","","test","go","249","random","","",""
"","-1","-1","1005","0","test_block","poldrack-single-stim","264","367922","0.0-5.0-250.0","go-nogo","true","0","","false","<div class = centerbox><div  id = stim1></div></div>","32","32","750","","test","go","250","random","","",""
"","290","32","1384","0","test_block","poldrack-single-stim","265","369309","0.0-5.0-251.0","go-nogo","true","0","","true","<div class = centerbox><div  id = stim1></div></div>","32","32","750","","test","go","251","random","","",""
"","348","32","1184","0","test_block","poldrack-single-stim","266","370498","0.0-5.0-252.0","go-nogo","true","0","","true","<div class = centerbox><div  id = stim1></div></div>","32","32","750","","test","go","252","random","","",""
"","885","32","1089","0","test_block","poldrack-single-stim","267","371591","0.0-5.0-253.0","go-nogo","true","0","","true","<div class = centerbox><div  id = stim1></div></div>","32","32","750","","test","go","253","random","","",""
"","817","32","1258","0","test_block","poldrack-single-stim","268","372853","0.0-5.0-254.0","go-nogo","true","0","","true","<div class = centerbox><div  id = stim1></div></div>","32","32","750","","test","go","254","random","","",""
"","446","32","1494","0","test_block","poldrack-single-stim","269","374353","0.0-5.0-255.0","go-nogo","true","0","","true","<div class = centerbox><div  id = stim1></div></div>","32","32","750","","test","go","255","random","","",""
"","779","32","1320","0","test_block","poldrack-single-stim","270","375676","0.0-5.0-256.0","go-nogo","true","0","","true","<div class = centerbox><div  id = stim1></div></div>","32","32","750","","test","go","256","random","","",""
"","261","32","1191","0","test_block","poldrack-single-stim","271","376871","0.0-5.0-257.0","go-nogo","true","0","","true","<div class = centerbox><div  id = stim1></div></div>","32","32","750","","test","go","257","random","","",""
"","-1","-1","1227","0","test_block","poldrack-single-stim","272","378105","0.0-5.0-258.0","go-nogo","true","0","","false","<div class = centerbox><div  id = stim1></div></div>","32","32","750","","test","go","258","random","","",""
"","657","32","1360","0","test_block","poldrack-single-stim","273","379485","0.0-5.0-259.0","go-nogo","true","0","","true","<div class = centerbox><div  id = stim1></div></div>","32","32","750","","test","go","259","random","","",""
"","485","32","1268","0","test_block","poldrack-single-stim","274","380757","0.0-5.0-260.0","go-nogo","true","0","","true","<div class = centerbox><div  id = stim1></div></div>","32","32","750","","test","go","260","random","","",""
"","49","32","1089","0","test_block","poldrack-single-stim","275","381850","0.0-5.0-261.0","go-nogo","true","0","","true","<div class = centerbox><div  id = stim1></div></div>","32","32","750","","test","go","261","random","","",""
"","201","32","1015","0","test_block","poldrack-single-stim","276","382871","0.0-5.0-262.0","go-nogo","true","0","","false","<div class = centerbox><div  id = stim2></div></div>","-1","32","750","","test","nogo","262","random","","",""
"","293","32","1083","0","test_block","poldrack-single-stim","277","383957","0.0-5.0-263.0","go-nogo","true","0","","true","<div class = centerbox><div  id = stim1></div></div>","32","32","750","","test","go","263","random","","",""
"","336","32","1398","0","test_block","poldrack-single-stim","278","385360","0.0-5.0-264.0","go-nogo","true","0","","true","<div class = centerbox><div  id = stim1></div></div>","32","32","750","","test","go","264","random","","",""
"","-1","-1","1074","0","test_block","poldrack-single-stim","279","386439","0.0-5.0-265.0","go-nogo","true","0","","false","<div class = centerbox><div  id = stim1></div></div>","32","32","750","","test","go","265","random","","",""
"","333","32","1235","0","test_block","poldrack-single-stim","280","387682","0.0-5.0-266.0","go-nogo","true","0","","true","<div class = centerbox><div  id = stim1></div></div>","32","32","750","","test","go","266","random","","",""
"","49","32","1373","0","test_block","poldrack-single-stim","281","389059","0.0-5.0-267.0","go-nogo","true","0","","true","<div class = centerbox><div  id = stim1></div></div>","32","32","750","","test","go","267","random","","",""
"","194","32","1210","0","test_block","poldrack-single-stim","282","390272","0.0-5.0-268.0","go-nogo","true","0","","true","<div class = centerbox><div  id = stim1></div></div>","32","32","750","","test","go","268","random","","",""
"","169","32","1215","0","test_block","poldrack-single-stim","283","391490","0.0-5.0-269.0","go-nogo","true","0","","true","<div class = centerbox><div  id = stim1></div></div>","32","32","750","","test","go","269","random","","",""
"","545","32","1195","0","test_block","poldrack-single-stim","284","392689","0.0-5.0-270.0","go-nogo","true","0","","true","<div class = centerbox><div  id = stim1></div></div>","32","32","750","","test","go","270","random","","",""
"","126","32","1197","0","test_block","poldrack-single-stim","285","393894","0.0-5.0-271.0","go-nogo","true","0","","true","<div class = centerbox><div  id = stim1></div></div>","32","32","750","","test","go","271","random","","",""
"","71","32","1342","0","test_block","poldrack-single-stim","286","395239","0.0-5.0-272.0","go-nogo","true","0","","true","<div class = centerbox><div  id = stim1></div></div>","32","32","750","","test","go","272","random","","",""
"","342","32","1207","0","test_block","poldrack-single-stim","287","396449","0.0-5.0-273.0","go-nogo","true","0","","true","<div class = centerbox><div  id = stim1></div></div>","32","32","750","","test","go","273","random","","",""
"","340","32","1300","0","test_block","poldrack-single-stim","288","397752","0.0-5.0-274.0","go-nogo","true","0","","true","<div class = centerbox><div  id = stim1></div></div>","32","32","750","","test","go","274","random","","",""
"","244","32","1491","0","test_block","poldrack-single-stim","289","399247","0.0-5.0-275.0","go-nogo","true","0","","true","<div class = centerbox><div  id = stim1></div></div>","32","32","750","","test","go","275","random","","",""
"","397","32","1436","0","test_block","poldrack-single-stim","290","400687","0.0-5.0-276.0","go-nogo","true","0","","true","<div class = centerbox><div  id = stim1></div></div>","32","32","750","","test","go","276","random","","",""
"","378","32","1491","0","test_block","poldrack-single-stim","291","402181","0.0-5.0-277.0","go-nogo","true","0","","true","<div class = centerbox><div  id = stim1></div></div>","32","32","750","","test","go","277","random","","",""
"","-1","-1","1081","0","test_block","poldrack-single-stim","292","403267","0.0-5.0-278.0","go-nogo","true","0","","true","<div class = centerbox><div  id = stim2></div></div>","-1","32","750","","test","nogo","278","random","","",""
"","135","32","1476","0","test_block","poldrack-single-stim","293","404756","0.0-5.0-279.0","go-nogo","true","0","","true","<div class = centerbox><div  id = stim1></div></div>","32","32","750","","test","go","279","random","","",""
"","1114","32","1209","0","test_block","poldrack-single-stim","294","405968","0.0-5.0-280.0","go-nogo","true","0","","true","<div class = centerbox><div  id = stim1></div></div>","32","32","750","","test","go","280","random","","",""
"","727","32","1067","0","test_block","poldrack-single-stim","295","407040","0.0-5.0-281.0","go-nogo","true","0","","true","<div class = centerbox><div  id = stim1></div></div>","32","32","750","","test","go","281","random","","",""
"","652","32","1341","0","test_block","poldrack-single-stim","296","408384","0.0-5.0-282.0","go-nogo","true","0","","true","<div class = centerbox><div  id = stim1></div></div>","32","32","750","","test","go","282","random","","",""
"","345","32","1362","0","test_block","poldrack-single-stim","297","409749","0.0-5.0-283.0","go-nogo","true","0","","true","<div class = centerbox><div  id = stim1></div></div>","32","32","750","","test","go","283","random","","",""
"","74","32","1198","0","test_block","poldrack-single-stim","298","410953","0.0-5.0-284.0","go-nogo","true","0","","true","<div class = centerbox><div  id = stim1></div></div>","32","32","750","","test","go","284","random","","",""
"","55","32","1334","0","test_block","poldrack-single-stim","299","412291","0.0-5.0-285.0","go-nogo","true","0","","false","<div class = centerbox><div  id = stim2></div></div>","-1","32","750","","test","nogo","285","random","","",""
"","787","32","1112","0","test_block","poldrack-single-stim","300","413408","0.0-5.0-286.0","go-nogo","true","0","","true","<div class = centerbox><div  id = stim1></div></div>","32","32","750","","test","go","286","random","","",""
"","777","32","1408","0","test_block","poldrack-single-stim","301","414820","0.0-5.0-287.0","go-nogo","true","0","","true","<div class = centerbox><div  id = stim1></div></div>","32","32","750","","test","go","287","random","","",""
"","610","32","1012","0","test_block","poldrack-single-stim","302","415839","0.0-5.0-288.0","go-nogo","true","0","","true","<div class = centerbox><div  id = stim1></div></div>","32","32","750","","test","go","288","random","","",""
"","647","32","1358","0","test_block","poldrack-single-stim","303","417202","0.0-5.0-289.0","go-nogo","true","0","","true","<div class = centerbox><div  id = stim1></div></div>","32","32","750","","test","go","289","random","","",""
"","955","32","1288","0","test_block","poldrack-single-stim","304","418493","0.0-5.0-290.0","go-nogo","true","0","","true","<div class = centerbox><div  id = stim1></div></div>","32","32","750","","test","go","290","random","","",""
"","535","32","1074","0","test_block","poldrack-single-stim","305","419570","0.0-5.0-291.0","go-nogo","true","0","","true","<div class = centerbox><div  id = stim1></div></div>","32","32","750","","test","go","291","random","","",""
"","451","32","1216","0","test_block","poldrack-single-stim","306","420790","0.0-5.0-292.0","go-nogo","true","0","","true","<div class = centerbox><div  id = stim1></div></div>","32","32","750","","test","go","292","random","","",""
"","177","32","1481","0","test_block","poldrack-single-stim","307","422274","0.0-5.0-293.0","go-nogo","true","0","","true","<div class = centerbox><div  id = stim1></div></div>","32","32","750","","test","go","293","random","","",""
"","433","32","1279","0","test_block","poldrack-single-stim","308","423556","0.0-5.0-294.0","go-nogo","true","0","","true","<div class = centerbox><div  id = stim1></div></div>","32","32","750","","test","go","294","random","","",""
"","106","32","1352","0","test_block","poldrack-single-stim","309","424912","0.0-5.0-295.0","go-nogo","true","0","","true","<div class = centerbox><div  id = stim1></div></div>","32","32","750","","test","go","295","random","","",""
"","808","32","1388","0","test_block","poldrack-single-stim","310","426303","0.0-5.0-296.0","go-nogo","true","0","","true","<div class = centerbox><div  id = stim1></div></div>","32","32","750","","test","go","296","random","","",""
"","389","32","1248","0","test_block","poldrack-single-stim","311","427555","0.0-5.0-297.0","go-nogo","true","0","","true","<div class = centerbox><div  id = stim1></div></div>","32","32","750","","test","go","297","random","","",""
"","312","32","1154","0","test_block","poldrack-single-stim","312","428712","0.0-5.0-298.0","go-nogo","true","0","","true","<div class = centerbox><div  id = stim1></div></div>","32","32","750","","test","go","298","random","","",""
"","278","32","1118","0","test_block","poldrack-single-stim","313","429833","0.0-5.0-299.0","go-nogo","true","0","","true","<div class = centerbox><div  id = stim1></div></div>","32","32","750","","test","go","299","random","","",""
"","330","32","1305","0","test_block","poldrack-single-stim","314","431142","0.0-5.0-300.0","go-nogo","true","0","","true","<div class = centerbox><div  id = stim1></div></div>","32","32","750","","test","go","300","random","","",""
"","158","32","1167","0","test_block","poldrack-single-stim","315","432312","0.0-5.0-301.0","go-nogo","true","0","","true","<div class = centerbox><div  id = stim1></div></div>","32","32","750","","test","go","301","random","","",""
"","758","32","1201","0","test_block","poldrack-single-stim","316","433517","0.0-5.0-302.0","go-nogo","true","0","","true","<div class = centerbox><div  id = stim1></div></div>","32","32","750","","test","go","302","random","","",""
"","590","32","1246","0","test_block","poldrack-single-stim","317","434767","0.0-5.0-303.0","go-nogo","true","0","","true","<div class = centerbox><div  id = stim1></div></div>","32","32","750","","test","go","303","random","","",""
"","239","32","1397","0","test_block","poldrack-single-stim","318","436167","0.0-5.0-304.0","go-nogo","true","0","","true","<div class = centerbox><div  id = stim1></div></div>","32","32","750","","test","go","304","random","","",""
"","354","32","1269","0","test_block","poldrack-single-stim","319","437440","0.0-5.0-305.0","go-nogo","true","0","","true","<div class = centerbox><div  id = stim1></div></div>","32","32","750","","test","go","305","random","","",""
"","749","32","1189","0","test_block","poldrack-single-stim","320","438632","0.0-5.0-306.0","go-nogo","true","0","","true","<div class = centerbox><div  id = stim1></div></div>","32","32","750","","test","go","306","random","","",""
"","598","32","1102","0","test_block","poldrack-single-stim","321","439741","0.0-5.0-307.0","go-nogo","true","0","","true","<div class = centerbox><div  id = stim1></div></div>","32","32","750","","test","go","307","random","","",""
"","375","32","1352","0","test_block","poldrack-single-stim","322","441098","0.0-5.0-308.0","go-nogo","true","0","","true","<div class = centerbox><div  id = stim1></div></div>","32","32","750","","test","go","308","random","","",""
"","889","32","1062","0","test_block","poldrack-single-stim","323","442163","0.0-5.0-309.0","go-nogo","true","0","","true","<div class = centerbox><div  id = stim1></div></div>","32","32","750","","test","go","309","random","","",""
"","741","32","1073","0","test_block","poldrack-single-stim","324","443240","0.0-5.0-310.0","go-nogo","true","0","","false","<div class = centerbox><div  id = stim2></div></div>","-1","32","750","","test","nogo","310","random","","",""
"","428","32","1287","0","test_block","poldrack-single-stim","325","444531","0.0-5.0-311.0","go-nogo","true","0","","true","<div class = centerbox><div  id = stim1></div></div>","32","32","750","","test","go","311","random","","",""
"","656","32","1187","0","test_block","poldrack-single-stim","326","445721","0.0-5.0-312.0","go-nogo","true","0","","true","<div class = centerbox><div  id = stim1></div></div>","32","32","750","","test","go","312","random","","",""
"","114","32","1235","0","test_block","poldrack-single-stim","327","446960","0.0-5.0-313.0","go-nogo","true","0","","true","<div class = centerbox><div  id = stim1></div></div>","32","32","750","","test","go","313","random","","",""
"","125","32","1314","0","test_block","poldrack-single-stim","328","448277","0.0-5.0-314.0","go-nogo","true","0","","true","<div class = centerbox><div  id = stim1></div></div>","32","32","750","","test","go","314","random","","",""
"","143","32","1152","0","test_block","poldrack-single-stim","329","449432","0.0-5.0-315.0","go-nogo","true","0","","true","<div class = centerbox><div  id = stim1></div></div>","32","32","750","","test","go","315","random","","",""
"","421","32","1408","0","test_block","poldrack-single-stim","330","450844","0.0-5.0-316.0","go-nogo","true","0","","true","<div class = centerbox><div  id = stim1></div></div>","32","32","750","","test","go","316","random","","",""
"","589","32","1483","0","test_block","poldrack-single-stim","331","452330","0.0-5.0-317.0","go-nogo","true","0","","true","<div class = centerbox><div  id = stim1></div></div>","32","32","750","","test","go","317","random","","",""
"","663","32","1037","0","test_block","poldrack-single-stim","332","453372","0.0-5.0-318.0","go-nogo","true","0","","true","<div class = centerbox><div  id = stim1></div></div>","32","32","750","","test","go","318","random","","",""
"","325","32","1219","0","test_block","poldrack-single-stim","333","454595","0.0-5.0-319.0","go-nogo","true","0","","true","<div class = centerbox><div  id = stim1></div></div>","32","32","750","","test","go","319","random","","",""
"","-1","-1","1470","0","test_block","poldrack-single-stim","334","456068","0.0-5.0-320.0","go-nogo","true","0","","true","<div class = centerbox><div  id = stim2></div></div>","-1","32","750","","test","nogo","320","random","","",""
"","41","32","1225","0","test_block","poldrack-single-stim","335","457299","0.0-5.0-321.0","go-nogo","true","0","","true","<div class = centerbox><div  id = stim1></div></div>","32","32","750","","test","go","321","random","","",""
"","506","32","1068","0","test_block","poldrack-single-stim","336","458371","0.0-5.0-322.0","go-nogo","true","0","","true","<div class = centerbox><div  id = stim1></div></div>","32","32","750","","test","go","322","random","","",""
"","562","32","1024","0","test_block","poldrack-single-stim","337","459398","0.0-5.0-323.0","go-nogo","true","0","","true","<div class = centerbox><div  id = stim1></div></div>","32","32","750","","test","go","323","random","","",""
"","747","32","1350","0","test_block","poldrack-single-stim","338","460752","0.0-5.0-324.0","go-nogo","true","0","","true","<div class = centerbox><div  id = stim1></div></div>","32","32","750","","test","go","324","random","","",""
"","581","32","1030","0","test_block","poldrack-single-stim","339","461785","0.0-5.0-325.0","go-nogo","true","0","","true","<div class = centerbox><div  id = stim1></div></div>","32","32","750","","test","go","325","random","","",""
"","-1","-1","1106","0","test_block","poldrack-single-stim","340","462894","0.0-5.0-326.0","go-nogo","true","0","","true","<div class = centerbox><div  id = stim2></div></div>","-1","32","750","","test","nogo","326","random","","",""
"","458","32","1224","0","test_block","poldrack-single-stim","341","464122","0.0-5.0-327.0","go-nogo","true","0","","true","<div class = centerbox><div  id = stim1></div></div>","32","32","750","","test","go","327","random","","",""
"","1075","32","1228","0","test_block","poldrack-single-stim","342","465353","0.0-5.0-328.0","go-nogo","true","0","","false","<div class = centerbox><div  id = stim2></div></div>","-1","32","750","","test","nogo","328","random","","",""
"","927","32","1413","0","test_block","poldrack-single-stim","343","466772","0.0-5.0-329.0","go-nogo","true","0","","true","<div class = centerbox><div  id = stim1></div></div>","32","32","750","","test","go","329","random","","",""
"","1102","32","1344","0","test_block","poldrack-single-stim","344","468120","0.0-5.0-330.0","go-nogo","true","0","","true","<div class = centerbox><div  id = stim1></div></div>","32","32","750","","test","go","330","random","","",""
"","699","32","1331","0","test_block","poldrack-single-stim","345","469454","0.0-5.0-331.0","go-nogo","true","0","","true","<div class = centerbox><div  id = stim1></div></div>","32","32","750","","test","go","331","random","","",""
"","1201","32","1450","0","test_block","poldrack-single-stim","346","470912","0.0-5.0-332.0","go-nogo","true","0","","true","<div class = centerbox><div  id = stim1></div></div>","32","32","750","","test","go","332","random","","",""
"","477","32","1170","0","test_block","poldrack-single-stim","347","472085","0.0-5.0-333.0","go-nogo","true","0","","true","<div class = centerbox><div  id = stim1></div></div>","32","32","750","","test","go","333","random","","",""
"","1017","32","1073","0","test_block","poldrack-single-stim","348","473161","0.0-5.0-334.0","go-nogo","true","0","","true","<div class = centerbox><div  id = stim1></div></div>","32","32","750","","test","go","334","random","","",""
"","729","32","1446","0","test_block","poldrack-single-stim","349","474611","0.0-5.0-335.0","go-nogo","true","0","","false","<div class = centerbox><div  id = stim2></div></div>","-1","32","750","","test","nogo","335","random","","",""
"","1216","32","1349","0","test_block","poldrack-single-stim","350","475966","0.0-5.0-336.0","go-nogo","true","0","","true","<div class = centerbox><div  id = stim1></div></div>","32","32","750","","test","go","336","random","","",""
"","666","32","1173","0","test_block","poldrack-single-stim","351","477142","0.0-5.0-337.0","go-nogo","true","0","","false","<div class = centerbox><div  id = stim2></div></div>","-1","32","750","","test","nogo","337","random","","",""
"","176","32","1451","0","test_block","poldrack-single-stim","352","478597","0.0-5.0-338.0","go-nogo","true","0","","true","<div class = centerbox><div  id = stim1></div></div>","32","32","750","","test","go","338","random","","",""
"","376","32","1028","0","test_block","poldrack-single-stim","353","479630","0.0-5.0-339.0","go-nogo","true","0","","true","<div class = centerbox><div  id = stim1></div></div>","32","32","750","","test","go","339","random","","",""
"","40","32","1024","0","test_block","poldrack-single-stim","354","480657","0.0-5.0-340.0","go-nogo","true","0","","true","<div class = centerbox><div  id = stim1></div></div>","32","32","750","","test","go","340","random","","",""
"","1039","32","1194","0","test_block","poldrack-single-stim","355","481855","0.0-5.0-341.0","go-nogo","true","0","","true","<div class = centerbox><div  id = stim1></div></div>","32","32","750","","test","go","341","random","","",""
"","572","32","1481","0","test_block","poldrack-single-stim","356","483339","0.0-5.0-342.0","go-nogo","true","0","","true","<div class = centerbox><div  id = stim1></div></div>","32","32","750","","test","go","342","random","","",""
"","488","32","1092","0","test_block","poldrack-single-stim","357","484437","0.0-5.0-343.0","go-nogo","true","0","","true","<div class = centerbox><div  id = stim1></div></div>","32","32","750","","test","go","343","random","","",""
"","388","32","1010","0","test_block","poldrack-single-stim","358","485450","0.0-5.0-344.0","go-nogo","true","0","","true","<div class = centerbox><div  id = stim1></div></div>","32","32","750","","test","go","344","random","","",""
"","53","32","1463","0","test_block","poldrack-single-stim","359","486916","0.0-5.0-345.0","go-nogo","true","0","","true","<div class = centerbox><div  id = stim1></div></div>","32","32","750","","test","go","345","random","","",""
"","110","32","1067","0","test_block","poldrack-single-stim","360","487988","0.0-5.0-346.0","go-nogo","true","0","","false","<div class = centerbox><div  id = stim2></div></div>","-1","32","750","","test","nogo","346","random","","",""
"","-1","-1","1137","0","test_block","poldrack-single-stim","361","489130","0.0-5.0-347.0","go-nogo","true","0","","false","<div class = centerbox><div  id = stim1></div></div>","32","32","750","","test","go","347","random","","",""
"","1250","32","1314","0","test_block","poldrack-single-stim","362","490447","0.0-5.0-348.0","go-nogo","true","0","","true","<div class = centerbox><div  id = stim1></div></div>","32","32","750","","test","go","348","random","","",""
"","682","32","1041","0","test_block","poldrack-single-stim","363","491492","0.0-5.0-349.0","go-nogo","true","0","","true","<div class = centerbox><div  id = stim1></div></div>","32","32","750","","test","go","349","random","","",""
"","26044","","","","post task questions","survey-text","364","517545","0.0-7.0","go-nogo","true","0","","","","","","","","","","","","{""Q0"":""blue,orange color summarised"",""Q1"":""good work.""}","",""
"<div class = centerbox><p class = center-block-text>Thanks for completing this task!</p><p class = center-block-text>Insert the following code to collect your payment at Amazon Mechanical Turk:</p><p class = center-block-text>694695317</p><p class = center-block-text>Press <strong>enter</strong> to continue.</p></div>","4082","13","4082","0","end","poldrack-text","365","522628","0.0-8.0","go-nogo","true","0","","","","","","","","","","","","","694695317","true"
