"text","rt","key_press","block_duration","timing_post_trial","trial_id","trial_type","trial_index","time_elapsed","internal_node_id","exp_id","full_screen","focus_shifts","view_history","correct","stimulus","correct_response","possible_responses","stim_duration","feedback_duration","exp_stage","condition","trial_num","mode","responses","payment_id","credit_var"
"<div class = centerbox><p class = center-block-text>Welcome to the experiment. This task will take around 10 minutes. Press <strong>enter</strong> to begin.</p></div>","1059","13","1059","0","instruction","poldrack-text","0","1065","0.0-0.0-0.0","go-nogo","true","0","","","","","","","","","","","","","",""
"","4621","","","","instruction","poldrack-instructions","1","5690","0.0-0.0-1.0","go-nogo","true","0","[{""page_index"":0,""viewing_time"":4620}]","","","","","","","","","","","","",""
"","-1","-1","1239","250","practice","poldrack-categorize","2","8946","0.0-1.0-0.0","go-nogo","true","0","","true","<div class = centerbox><div id = stim1></div></div>","-1","32","750","1000","practice","nogo","0","random","","",""
"","-1","-1","1245","250","practice","poldrack-categorize","3","11454","0.0-1.0-1.0","go-nogo","true","0","","true","<div class = centerbox><div id = stim1></div></div>","-1","32","750","1000","practice","nogo","1","random","","",""
"","-1","-1","1014","250","practice","poldrack-categorize","4","13738","0.0-1.0-2.0","go-nogo","true","0","","true","<div class = centerbox><div id = stim1></div></div>","-1","32","750","1000","practice","nogo","2","random","","",""
"","-1","-1","1458","250","practice","poldrack-categorize","5","16466","0.0-1.0-3.0","go-nogo","true","0","","false","<div class = centerbox><div  id = stim2></div></div>","32","32","750","1000","practice","go","3","random","","",""
"","-1","-1","1256","250","practice","poldrack-categorize","6","18988","0.0-1.0-4.0","go-nogo","true","0","","false","<div class = centerbox><div  id = stim2></div></div>","32","32","750","1000","practice","go","4","random","","",""
"","-1","-1","1289","250","practice","poldrack-categorize","7","21540","0.0-1.0-5.0","go-nogo","true","0","","false","<div class = centerbox><div  id = stim2></div></div>","32","32","750","1000","practice","go","5","random","","",""
"","-1","-1","1087","250","practice","poldrack-categorize","8","23897","0.0-1.0-6.0","go-nogo","true","0","","true","<div class = centerbox><div id = stim1></div></div>","-1","32","750","1000","practice","nogo","6","random","","",""
"","-1","-1","1483","250","practice","poldrack-categorize","9","26641","0.0-1.0-7.0","go-nogo","true","0","","true","<div class = centerbox><div id = stim1></div></div>","-1","32","750","1000","practice","nogo","7","random","","",""
"","-1","-1","1396","250","practice","poldrack-categorize","10","29300","0.0-1.0-8.0","go-nogo","true","0","","false","<div class = centerbox><div  id = stim2></div></div>","32","32","750","1000","practice","go","8","random","","",""
"","-1","-1","1358","250","practice","poldrack-categorize","11","31914","0.0-1.0-9.0","go-nogo","true","0","","false","<div class = centerbox><div  id = stim2></div></div>","32","32","750","1000","practice","go","9","random","","",""
"","","","","","reset_trial","call-function","12","32166","0.0-3.0","go-nogo","true","0","","","","","","","","","","","","","",""
"<div class = centerbox><p class = block-text>Practice is over, we will now begin the experiment. You will no longer get feedback about your responses.</p><p class = block-text>Remember, if you see the <font color=""blue"">blue</font> square you should <strong> respond by pressing the spacebar as quickly as possible</strong>. If you see the <font color=""orange"">orange</font> square you should <strong> not respond</strong>. Press <strong>enter</strong> to begin.</p></div>","6509","13","6509","1000","test_intro","poldrack-text","13","38678","0.0-4.0","go-nogo","true","0","","","","","","","","","","","","","",""
"","-1","-1","1485","0","test_block","poldrack-single-stim","14","41170","0.0-5.0-0.0","go-nogo","true","0","","false","<div class = centerbox><div  id = stim2></div></div>","32","32","750","","test","go","0","random","","",""
"","-1","-1","1131","0","test_block","poldrack-single-stim","15","42412","0.0-5.0-1.0","go-nogo","true","0","","false","<div class = centerbox><div  id = stim2></div></div>","32","32","750","","test","go","1","random","","",""
"","-1","-1","1474","0","test_block","poldrack-single-stim","16","43972","0.0-5.0-2.0","go-nogo","true","0","","false","<div class = centerbox><div  id = stim2></div></div>","32","32","750","","test","go","2","random","","",""
"","-1","-1","1258","0","test_block","poldrack-single-stim","17","45293","0.0-5.0-3.0","go-nogo","true","0","","false","<div class = centerbox><div  id = stim2></div></div>","32","32","750","","test","go","3","random","","",""
"","-1","-1","1332","0","test_block","poldrack-single-stim","18","46715","0.0-5.0-4.0","go-nogo","true","0","","false","<div class = centerbox><div  id = stim2></div></div>","32","32","750","","test","go","4","random","","",""
"","-1","-1","1216","0","test_block","poldrack-single-stim","19","48013","0.0-5.0-5.0","go-nogo","true","0","","false","<div class = centerbox><div  id = stim2></div></div>","32","32","750","","test","go","5","random","","",""
"","-1","-1","1385","0","test_block","poldrack-single-stim","20","49478","0.0-5.0-6.0","go-nogo","true","0","","false","<div class = centerbox><div  id = stim2></div></div>","32","32","750","","test","go","6","random","","",""
"","-1","-1","1375","0","test_block","poldrack-single-stim","21","50917","0.0-5.0-7.0","go-nogo","true","0","","false","<div class = centerbox><div  id = stim2></div></div>","32","32","750","","test","go","7","random","","",""
"","-1","-1","1199","0","test_block","poldrack-single-stim","22","52203","0.0-5.0-8.0","go-nogo","true","0","","true","<div class = centerbox><div  id = stim1></div></div>","-1","32","750","","test","nogo","8","random","","",""
"","-1","-1","1382","0","test_block","poldrack-single-stim","23","53692","0.0-5.0-9.0","go-nogo","true","0","","false","<div class = centerbox><div  id = stim2></div></div>","32","32","750","","test","go","9","random","","",""
"","-1","-1","1161","0","test_block","poldrack-single-stim","24","54927","0.0-5.0-10.0","go-nogo","true","0","","false","<div class = centerbox><div  id = stim2></div></div>","32","32","750","","test","go","10","random","","",""
"","-1","-1","1445","0","test_block","poldrack-single-stim","25","56456","0.0-5.0-11.0","go-nogo","true","0","","false","<div class = centerbox><div  id = stim2></div></div>","32","32","750","","test","go","11","random","","",""
"","-1","-1","1398","0","test_block","poldrack-single-stim","26","57932","0.0-5.0-12.0","go-nogo","true","0","","false","<div class = centerbox><div  id = stim2></div></div>","32","32","750","","test","go","12","random","","",""
"","-1","-1","1369","0","test_block","poldrack-single-stim","27","59360","0.0-5.0-13.0","go-nogo","true","0","","false","<div class = centerbox><div  id = stim2></div></div>","32","32","750","","test","go","13","random","","",""
"","-1","-1","1369","0","test_block","poldrack-single-stim","28","60805","0.0-5.0-14.0","go-nogo","true","0","","false","<div class = centerbox><div  id = stim2></div></div>","32","32","750","","test","go","14","random","","",""
"","-1","-1","1393","0","test_block","poldrack-single-stim","29","62272","0.0-5.0-15.0","go-nogo","true","0","","false","<div class = centerbox><div  id = stim2></div></div>","32","32","750","","test","go","15","random","","",""
"","-1","-1","1466","0","test_block","poldrack-single-stim","30","63810","0.0-5.0-16.0","go-nogo","true","0","","true","<div class = centerbox><div  id = stim1></div></div>","-1","32","750","","test","nogo","16","random","","",""
"","-1","-1","1008","0","test_block","poldrack-single-stim","31","64900","0.0-5.0-17.0","go-nogo","true","0","","false","<div class = centerbox><div  id = stim2></div></div>","32","32","750","","test","go","17","random","","",""
"","-1","-1","1290","0","test_block","poldrack-single-stim","32","66256","0.0-5.0-18.0","go-nogo","true","0","","false","<div class = centerbox><div  id = stim2></div></div>","32","32","750","","test","go","18","random","","",""
"","-1","-1","1239","0","test_block","poldrack-single-stim","33","67560","0.0-5.0-19.0","go-nogo","true","0","","false","<div class = centerbox><div  id = stim2></div></div>","32","32","750","","test","go","19","random","","",""
"","-1","-1","1000","0","test_block","poldrack-single-stim","34","68620","0.0-5.0-20.0","go-nogo","true","0","","false","<div class = centerbox><div  id = stim2></div></div>","32","32","750","","test","go","20","random","","",""
"","-1","-1","1497","0","test_block","poldrack-single-stim","35","70171","0.0-5.0-21.0","go-nogo","true","0","","false","<div class = centerbox><div  id = stim2></div></div>","32","32","750","","test","go","21","random","","",""
"","-1","-1","1300","0","test_block","poldrack-single-stim","36","71527","0.0-5.0-22.0","go-nogo","true","0","","true","<div class = centerbox><div  id = stim1></div></div>","-1","32","750","","test","nogo","22","random","","",""
"","-1","-1","1336","0","test_block","poldrack-single-stim","37","72930","0.0-5.0-23.0","go-nogo","true","0","","false","<div class = centerbox><div  id = stim2></div></div>","32","32","750","","test","go","23","random","","",""
"","-1","-1","1441","0","test_block","poldrack-single-stim","38","74440","0.0-5.0-24.0","go-nogo","true","0","","false","<div class = centerbox><div  id = stim2></div></div>","32","32","750","","test","go","24","random","","",""
"","-1","-1","1236","0","test_block","poldrack-single-stim","39","75736","0.0-5.0-25.0","go-nogo","true","0","","false","<div class = centerbox><div  id = stim2></div></div>","32","32","750","","test","go","25","random","","",""
"","-1","-1","1448","0","test_block","poldrack-single-stim","40","77260","0.0-5.0-26.0","go-nogo","true","0","","true","<div class = centerbox><div  id = stim1></div></div>","-1","32","750","","test","nogo","26","random","","",""
"","-1","-1","1021","0","test_block","poldrack-single-stim","41","78361","0.0-5.0-27.0","go-nogo","true","0","","false","<div class = centerbox><div  id = stim2></div></div>","32","32","750","","test","go","27","random","","",""
"","-1","-1","1498","0","test_block","poldrack-single-stim","42","79915","0.0-5.0-28.0","go-nogo","true","0","","false","<div class = centerbox><div  id = stim2></div></div>","32","32","750","","test","go","28","random","","",""
"","-1","-1","1319","0","test_block","poldrack-single-stim","43","81291","0.0-5.0-29.0","go-nogo","true","0","","false","<div class = centerbox><div  id = stim2></div></div>","32","32","750","","test","go","29","random","","",""
"","-1","-1","1409","0","test_block","poldrack-single-stim","44","82772","0.0-5.0-30.0","go-nogo","true","0","","false","<div class = centerbox><div  id = stim2></div></div>","32","32","750","","test","go","30","random","","",""
"","-1","-1","1048","0","test_block","poldrack-single-stim","45","83876","0.0-5.0-31.0","go-nogo","true","0","","false","<div class = centerbox><div  id = stim2></div></div>","32","32","750","","test","go","31","random","","",""
"","-1","-1","1383","0","test_block","poldrack-single-stim","46","85314","0.0-5.0-32.0","go-nogo","true","0","","false","<div class = centerbox><div  id = stim2></div></div>","32","32","750","","test","go","32","random","","",""
"","-1","-1","1170","0","test_block","poldrack-single-stim","47","86544","0.0-5.0-33.0","go-nogo","true","0","","false","<div class = centerbox><div  id = stim2></div></div>","32","32","750","","test","go","33","random","","",""
"","-1","-1","1061","0","test_block","poldrack-single-stim","48","87672","0.0-5.0-34.0","go-nogo","true","0","","false","<div class = centerbox><div  id = stim2></div></div>","32","32","750","","test","go","34","random","","",""
"","-1","-1","1278","0","test_block","poldrack-single-stim","49","89022","0.0-5.0-35.0","go-nogo","true","0","","false","<div class = centerbox><div  id = stim2></div></div>","32","32","750","","test","go","35","random","","",""
"","-1","-1","1419","0","test_block","poldrack-single-stim","50","90519","0.0-5.0-36.0","go-nogo","true","0","","false","<div class = centerbox><div  id = stim2></div></div>","32","32","750","","test","go","36","random","","",""
"","-1","-1","1390","0","test_block","poldrack-single-stim","51","91964","0.0-5.0-37.0","go-nogo","true","0","","false","<div class = centerbox><div  id = stim2></div></div>","32","32","750","","test","go","37","random","","",""
"","-1","-1","1499","0","test_block","poldrack-single-stim","52","93531","0.0-5.0-38.0","go-nogo","true","0","","false","<div class = centerbox><div  id = stim2></div></div>","32","32","750","","test","go","38","random","","",""
"","-1","-1","1033","0","test_block","poldrack-single-stim","53","94633","0.0-5.0-39.0","go-nogo","true","0","","false","<div class = centerbox><div  id = stim2></div></div>","32","32","750","","test","go","39","random","","",""
"","-1","-1","1275","0","test_block","poldrack-single-stim","54","95979","0.0-5.0-40.0","go-nogo","true","0","","false","<div class = centerbox><div  id = stim2></div></div>","32","32","750","","test","go","40","random","","",""
"","-1","-1","1325","0","test_block","poldrack-single-stim","55","97363","0.0-5.0-41.0","go-nogo","true","0","","false","<div class = centerbox><div  id = stim2></div></div>","32","32","750","","test","go","41","random","","",""
"","-1","-1","1217","0","test_block","poldrack-single-stim","56","98652","0.0-5.0-42.0","go-nogo","true","0","","false","<div class = centerbox><div  id = stim2></div></div>","32","32","750","","test","go","42","random","","",""
"","-1","-1","1002","0","test_block","poldrack-single-stim","57","99714","0.0-5.0-43.0","go-nogo","true","0","","false","<div class = centerbox><div  id = stim2></div></div>","32","32","750","","test","go","43","random","","",""
"","-1","-1","1254","0","test_block","poldrack-single-stim","58","101030","0.0-5.0-44.0","go-nogo","true","0","","false","<div class = centerbox><div  id = stim2></div></div>","32","32","750","","test","go","44","random","","",""
"","-1","-1","1050","0","test_block","poldrack-single-stim","59","102143","0.0-5.0-45.0","go-nogo","true","0","","false","<div class = centerbox><div  id = stim2></div></div>","32","32","750","","test","go","45","random","","",""
"","-1","-1","1464","0","test_block","poldrack-single-stim","60","103675","0.0-5.0-46.0","go-nogo","true","0","","false","<div class = centerbox><div  id = stim2></div></div>","32","32","750","","test","go","46","random","","",""
"","-1","-1","1265","0","test_block","poldrack-single-stim","61","104996","0.0-5.0-47.0","go-nogo","true","0","","false","<div class = centerbox><div  id = stim2></div></div>","32","32","750","","test","go","47","random","","",""
"","-1","-1","1347","0","test_block","poldrack-single-stim","62","106403","0.0-5.0-48.0","go-nogo","true","0","","false","<div class = centerbox><div  id = stim2></div></div>","32","32","750","","test","go","48","random","","",""
"","-1","-1","1131","0","test_block","poldrack-single-stim","63","107606","0.0-5.0-49.0","go-nogo","true","0","","false","<div class = centerbox><div  id = stim2></div></div>","32","32","750","","test","go","49","random","","",""
"","-1","-1","1071","0","test_block","poldrack-single-stim","64","108750","0.0-5.0-50.0","go-nogo","true","0","","false","<div class = centerbox><div  id = stim2></div></div>","32","32","750","","test","go","50","random","","",""
"","-1","-1","1423","0","test_block","poldrack-single-stim","65","110226","0.0-5.0-51.0","go-nogo","true","0","","false","<div class = centerbox><div  id = stim2></div></div>","32","32","750","","test","go","51","random","","",""
"","-1","-1","1396","0","test_block","poldrack-single-stim","66","111694","0.0-5.0-52.0","go-nogo","true","0","","false","<div class = centerbox><div  id = stim2></div></div>","32","32","750","","test","go","52","random","","",""
"","-1","-1","1241","0","test_block","poldrack-single-stim","67","112992","0.0-5.0-53.0","go-nogo","true","0","","true","<div class = centerbox><div  id = stim1></div></div>","-1","32","750","","test","nogo","53","random","","",""
"","-1","-1","1275","0","test_block","poldrack-single-stim","68","114321","0.0-5.0-54.0","go-nogo","true","0","","false","<div class = centerbox><div  id = stim2></div></div>","32","32","750","","test","go","54","random","","",""
"","-1","-1","1215","0","test_block","poldrack-single-stim","69","115597","0.0-5.0-55.0","go-nogo","true","0","","true","<div class = centerbox><div  id = stim1></div></div>","-1","32","750","","test","nogo","55","random","","",""
"","-1","-1","1390","0","test_block","poldrack-single-stim","70","117050","0.0-5.0-56.0","go-nogo","true","0","","false","<div class = centerbox><div  id = stim2></div></div>","32","32","750","","test","go","56","random","","",""
"","-1","-1","1494","0","test_block","poldrack-single-stim","71","118611","0.0-5.0-57.0","go-nogo","true","0","","false","<div class = centerbox><div  id = stim2></div></div>","32","32","750","","test","go","57","random","","",""
"","-1","-1","1332","0","test_block","poldrack-single-stim","72","120014","0.0-5.0-58.0","go-nogo","true","0","","false","<div class = centerbox><div  id = stim2></div></div>","32","32","750","","test","go","58","random","","",""
"","-1","-1","1100","0","test_block","poldrack-single-stim","73","121186","0.0-5.0-59.0","go-nogo","true","0","","false","<div class = centerbox><div  id = stim2></div></div>","32","32","750","","test","go","59","random","","",""
"","-1","-1","1062","0","test_block","poldrack-single-stim","74","122321","0.0-5.0-60.0","go-nogo","true","0","","false","<div class = centerbox><div  id = stim2></div></div>","32","32","750","","test","go","60","random","","",""
"","-1","-1","1258","0","test_block","poldrack-single-stim","75","123634","0.0-5.0-61.0","go-nogo","true","0","","false","<div class = centerbox><div  id = stim2></div></div>","32","32","750","","test","go","61","random","","",""
"","-1","-1","1459","0","test_block","poldrack-single-stim","76","125166","0.0-5.0-62.0","go-nogo","true","0","","false","<div class = centerbox><div  id = stim2></div></div>","32","32","750","","test","go","62","random","","",""
"","-1","-1","1315","0","test_block","poldrack-single-stim","77","126546","0.0-5.0-63.0","go-nogo","true","0","","false","<div class = centerbox><div  id = stim2></div></div>","32","32","750","","test","go","63","random","","",""
"","-1","-1","1227","0","test_block","poldrack-single-stim","78","127844","0.0-5.0-64.0","go-nogo","true","0","","true","<div class = centerbox><div  id = stim1></div></div>","-1","32","750","","test","nogo","64","random","","",""
"","-1","-1","1440","0","test_block","poldrack-single-stim","79","129356","0.0-5.0-65.0","go-nogo","true","0","","false","<div class = centerbox><div  id = stim2></div></div>","32","32","750","","test","go","65","random","","",""
"","-1","-1","1182","0","test_block","poldrack-single-stim","80","130608","0.0-5.0-66.0","go-nogo","true","0","","false","<div class = centerbox><div  id = stim2></div></div>","32","32","750","","test","go","66","random","","",""
"","-1","-1","1330","0","test_block","poldrack-single-stim","81","132008","0.0-5.0-67.0","go-nogo","true","0","","false","<div class = centerbox><div  id = stim2></div></div>","32","32","750","","test","go","67","random","","",""
"","-1","-1","1456","0","test_block","poldrack-single-stim","82","133501","0.0-5.0-68.0","go-nogo","true","0","","false","<div class = centerbox><div  id = stim2></div></div>","32","32","750","","test","go","68","random","","",""
"","-1","-1","1272","0","test_block","poldrack-single-stim","83","135464","0.0-5.0-69.0","go-nogo","true","1","","false","<div class = centerbox><div  id = stim2></div></div>","32","32","750","","test","go","69","random","","",""
"","-1","-1","1414","0","test_block","poldrack-single-stim","84","136968","0.0-5.0-70.0","go-nogo","true","0","","false","<div class = centerbox><div  id = stim2></div></div>","32","32","750","","test","go","70","random","","",""
"","-1","-1","1488","0","test_block","poldrack-single-stim","85","138528","0.0-5.0-71.0","go-nogo","true","0","","false","<div class = centerbox><div  id = stim2></div></div>","32","32","750","","test","go","71","random","","",""
"","-1","-1","1114","0","test_block","poldrack-single-stim","86","139707","0.0-5.0-72.0","go-nogo","true","0","","false","<div class = centerbox><div  id = stim2></div></div>","32","32","750","","test","go","72","random","","",""
"","-1","-1","1114","0","test_block","poldrack-single-stim","87","140883","0.0-5.0-73.0","go-nogo","true","0","","false","<div class = centerbox><div  id = stim2></div></div>","32","32","750","","test","go","73","random","","",""
"","-1","-1","1042","0","test_block","poldrack-single-stim","88","141977","0.0-5.0-74.0","go-nogo","true","0","","true","<div class = centerbox><div  id = stim1></div></div>","-1","32","750","","test","nogo","74","random","","",""
"","-1","-1","1131","0","test_block","poldrack-single-stim","89","143179","0.0-5.0-75.0","go-nogo","true","0","","false","<div class = centerbox><div  id = stim2></div></div>","32","32","750","","test","go","75","random","","",""
"","-1","-1","1239","0","test_block","poldrack-single-stim","90","144486","0.0-5.0-76.0","go-nogo","true","0","","false","<div class = centerbox><div  id = stim2></div></div>","32","32","750","","test","go","76","random","","",""
"","-1","-1","1341","0","test_block","poldrack-single-stim","91","145882","0.0-5.0-77.0","go-nogo","true","0","","false","<div class = centerbox><div  id = stim2></div></div>","32","32","750","","test","go","77","random","","",""
"","-1","-1","1419","0","test_block","poldrack-single-stim","92","147364","0.0-5.0-78.0","go-nogo","true","0","","false","<div class = centerbox><div  id = stim2></div></div>","32","32","750","","test","go","78","random","","",""
"","-1","-1","1076","0","test_block","poldrack-single-stim","93","148489","0.0-5.0-79.0","go-nogo","true","0","","false","<div class = centerbox><div  id = stim2></div></div>","32","32","750","","test","go","79","random","","",""
"","-1","-1","1132","0","test_block","poldrack-single-stim","94","149684","0.0-5.0-80.0","go-nogo","true","0","","false","<div class = centerbox><div  id = stim2></div></div>","32","32","750","","test","go","80","random","","",""
"","-1","-1","1324","0","test_block","poldrack-single-stim","95","151069","0.0-5.0-81.0","go-nogo","true","0","","false","<div class = centerbox><div  id = stim2></div></div>","32","32","750","","test","go","81","random","","",""
"","-1","-1","1491","0","test_block","poldrack-single-stim","96","152623","0.0-5.0-82.0","go-nogo","true","0","","false","<div class = centerbox><div  id = stim2></div></div>","32","32","750","","test","go","82","random","","",""
"","-1","-1","1241","0","test_block","poldrack-single-stim","97","153936","0.0-5.0-83.0","go-nogo","true","0","","true","<div class = centerbox><div  id = stim1></div></div>","-1","32","750","","test","nogo","83","random","","",""
"","-1","-1","1185","0","test_block","poldrack-single-stim","98","155173","0.0-5.0-84.0","go-nogo","true","0","","false","<div class = centerbox><div  id = stim2></div></div>","32","32","750","","test","go","84","random","","",""
"","-1","-1","1004","0","test_block","poldrack-single-stim","99","156246","0.0-5.0-85.0","go-nogo","true","0","","false","<div class = centerbox><div  id = stim2></div></div>","32","32","750","","test","go","85","random","","",""
"","-1","-1","1052","0","test_block","poldrack-single-stim","100","157356","0.0-5.0-86.0","go-nogo","true","0","","false","<div class = centerbox><div  id = stim2></div></div>","32","32","750","","test","go","86","random","","",""
"","-1","-1","1031","0","test_block","poldrack-single-stim","101","158438","0.0-5.0-87.0","go-nogo","true","0","","false","<div class = centerbox><div  id = stim2></div></div>","32","32","750","","test","go","87","random","","",""
"","-1","-1","1119","0","test_block","poldrack-single-stim","102","159622","0.0-5.0-88.0","go-nogo","true","0","","false","<div class = centerbox><div  id = stim2></div></div>","32","32","750","","test","go","88","random","","",""
"","-1","-1","1326","0","test_block","poldrack-single-stim","103","161012","0.0-5.0-89.0","go-nogo","true","0","","false","<div class = centerbox><div  id = stim2></div></div>","32","32","750","","test","go","89","random","","",""
"","-1","-1","1322","0","test_block","poldrack-single-stim","104","162382","0.0-5.0-90.0","go-nogo","true","0","","false","<div class = centerbox><div  id = stim2></div></div>","32","32","750","","test","go","90","random","","",""
"","-1","-1","1455","0","test_block","poldrack-single-stim","105","163901","0.0-5.0-91.0","go-nogo","true","0","","false","<div class = centerbox><div  id = stim2></div></div>","32","32","750","","test","go","91","random","","",""
"","-1","-1","1384","0","test_block","poldrack-single-stim","106","165346","0.0-5.0-92.0","go-nogo","true","0","","true","<div class = centerbox><div  id = stim1></div></div>","-1","32","750","","test","nogo","92","random","","",""
"","-1","-1","1063","0","test_block","poldrack-single-stim","107","166471","0.0-5.0-93.0","go-nogo","true","0","","false","<div class = centerbox><div  id = stim2></div></div>","32","32","750","","test","go","93","random","","",""
"","-1","-1","1425","0","test_block","poldrack-single-stim","108","167950","0.0-5.0-94.0","go-nogo","true","0","","false","<div class = centerbox><div  id = stim2></div></div>","32","32","750","","test","go","94","random","","",""
"","-1","-1","1325","0","test_block","poldrack-single-stim","109","169352","0.0-5.0-95.0","go-nogo","true","0","","false","<div class = centerbox><div  id = stim2></div></div>","32","32","750","","test","go","95","random","","",""
"","-1","-1","1332","0","test_block","poldrack-single-stim","110","170741","0.0-5.0-96.0","go-nogo","true","0","","false","<div class = centerbox><div  id = stim2></div></div>","32","32","750","","test","go","96","random","","",""
"","-1","-1","1340","0","test_block","poldrack-single-stim","111","172148","0.0-5.0-97.0","go-nogo","true","0","","false","<div class = centerbox><div  id = stim2></div></div>","32","32","750","","test","go","97","random","","",""
"","-1","-1","1487","0","test_block","poldrack-single-stim","112","173702","0.0-5.0-98.0","go-nogo","true","0","","false","<div class = centerbox><div  id = stim2></div></div>","32","32","750","","test","go","98","random","","",""
"","-1","-1","1284","0","test_block","poldrack-single-stim","113","175039","0.0-5.0-99.0","go-nogo","true","0","","false","<div class = centerbox><div  id = stim2></div></div>","32","32","750","","test","go","99","random","","",""
"","-1","-1","1131","0","test_block","poldrack-single-stim","114","176238","0.0-5.0-100.0","go-nogo","true","0","","false","<div class = centerbox><div  id = stim2></div></div>","32","32","750","","test","go","100","random","","",""
"","-1","-1","1308","0","test_block","poldrack-single-stim","115","177614","0.0-5.0-101.0","go-nogo","true","0","","false","<div class = centerbox><div  id = stim2></div></div>","32","32","750","","test","go","101","random","","",""
"","-1","-1","1278","0","test_block","poldrack-single-stim","116","178966","0.0-5.0-102.0","go-nogo","true","0","","false","<div class = centerbox><div  id = stim2></div></div>","32","32","750","","test","go","102","random","","",""
"","-1","-1","1461","0","test_block","poldrack-single-stim","117","180492","0.0-5.0-103.0","go-nogo","true","0","","true","<div class = centerbox><div  id = stim1></div></div>","-1","32","750","","test","nogo","103","random","","",""
"","-1","-1","1336","0","test_block","poldrack-single-stim","118","181893","0.0-5.0-104.0","go-nogo","true","0","","false","<div class = centerbox><div  id = stim2></div></div>","32","32","750","","test","go","104","random","","",""
"","-1","-1","1233","0","test_block","poldrack-single-stim","119","183190","0.0-5.0-105.0","go-nogo","true","0","","true","<div class = centerbox><div  id = stim1></div></div>","-1","32","750","","test","nogo","105","random","","",""
"","-1","-1","1255","0","test_block","poldrack-single-stim","120","184499","0.0-5.0-106.0","go-nogo","true","0","","false","<div class = centerbox><div  id = stim2></div></div>","32","32","750","","test","go","106","random","","",""
"","-1","-1","1155","0","test_block","poldrack-single-stim","121","185707","0.0-5.0-107.0","go-nogo","true","0","","false","<div class = centerbox><div  id = stim2></div></div>","32","32","750","","test","go","107","random","","",""
"","-1","-1","1442","0","test_block","poldrack-single-stim","122","187209","0.0-5.0-108.0","go-nogo","true","0","","false","<div class = centerbox><div  id = stim2></div></div>","32","32","750","","test","go","108","random","","",""
"","-1","-1","1422","0","test_block","poldrack-single-stim","123","188684","0.0-5.0-109.0","go-nogo","true","0","","false","<div class = centerbox><div  id = stim2></div></div>","32","32","750","","test","go","109","random","","",""
"","-1","-1","1165","0","test_block","poldrack-single-stim","124","189908","0.0-5.0-110.0","go-nogo","true","0","","false","<div class = centerbox><div  id = stim2></div></div>","32","32","750","","test","go","110","random","","",""
"","-1","-1","1347","0","test_block","poldrack-single-stim","125","191317","0.0-5.0-111.0","go-nogo","true","0","","false","<div class = centerbox><div  id = stim2></div></div>","32","32","750","","test","go","111","random","","",""
"","-1","-1","1496","0","test_block","poldrack-single-stim","126","192874","0.0-5.0-112.0","go-nogo","true","0","","false","<div class = centerbox><div  id = stim2></div></div>","32","32","750","","test","go","112","random","","",""
"","-1","-1","1380","0","test_block","poldrack-single-stim","127","194306","0.0-5.0-113.0","go-nogo","true","0","","true","<div class = centerbox><div  id = stim1></div></div>","-1","32","750","","test","nogo","113","random","","",""
"","-1","-1","1143","0","test_block","poldrack-single-stim","128","195517","0.0-5.0-114.0","go-nogo","true","0","","false","<div class = centerbox><div  id = stim2></div></div>","32","32","750","","test","go","114","random","","",""
"","-1","-1","1285","0","test_block","poldrack-single-stim","129","196867","0.0-5.0-115.0","go-nogo","true","0","","false","<div class = centerbox><div  id = stim2></div></div>","32","32","750","","test","go","115","random","","",""
"","-1","-1","1202","0","test_block","poldrack-single-stim","130","198120","0.0-5.0-116.0","go-nogo","true","0","","false","<div class = centerbox><div  id = stim2></div></div>","32","32","750","","test","go","116","random","","",""
"","-1","-1","1128","0","test_block","poldrack-single-stim","131","199303","0.0-5.0-117.0","go-nogo","true","0","","false","<div class = centerbox><div  id = stim2></div></div>","32","32","750","","test","go","117","random","","",""
"","-1","-1","1337","0","test_block","poldrack-single-stim","132","200707","0.0-5.0-118.0","go-nogo","true","0","","false","<div class = centerbox><div  id = stim2></div></div>","32","32","750","","test","go","118","random","","",""
"","-1","-1","1312","0","test_block","poldrack-single-stim","133","202083","0.0-5.0-119.0","go-nogo","true","0","","false","<div class = centerbox><div  id = stim2></div></div>","32","32","750","","test","go","119","random","","",""
"","-1","-1","1036","0","test_block","poldrack-single-stim","134","203164","0.0-5.0-120.0","go-nogo","true","0","","false","<div class = centerbox><div  id = stim2></div></div>","32","32","750","","test","go","120","random","","",""
"","-1","-1","1235","0","test_block","poldrack-single-stim","135","204464","0.0-5.0-121.0","go-nogo","true","0","","false","<div class = centerbox><div  id = stim2></div></div>","32","32","750","","test","go","121","random","","",""
"","-1","-1","1042","0","test_block","poldrack-single-stim","136","205570","0.0-5.0-122.0","go-nogo","true","0","","true","<div class = centerbox><div  id = stim1></div></div>","-1","32","750","","test","nogo","122","random","","",""
"","-1","-1","1063","0","test_block","poldrack-single-stim","137","206695","0.0-5.0-123.0","go-nogo","true","0","","false","<div class = centerbox><div  id = stim2></div></div>","32","32","750","","test","go","123","random","","",""
"","-1","-1","1333","0","test_block","poldrack-single-stim","138","208065","0.0-5.0-124.0","go-nogo","true","0","","false","<div class = centerbox><div  id = stim2></div></div>","32","32","750","","test","go","124","random","","",""
"","-1","-1","1181","0","test_block","poldrack-single-stim","139","209314","0.0-5.0-125.0","go-nogo","true","0","","false","<div class = centerbox><div  id = stim2></div></div>","32","32","750","","test","go","125","random","","",""
"","-1","-1","1465","0","test_block","poldrack-single-stim","140","210832","0.0-5.0-126.0","go-nogo","true","0","","false","<div class = centerbox><div  id = stim2></div></div>","32","32","750","","test","go","126","random","","",""
"","-1","-1","1007","0","test_block","poldrack-single-stim","141","211894","0.0-5.0-127.0","go-nogo","true","0","","false","<div class = centerbox><div  id = stim2></div></div>","32","32","750","","test","go","127","random","","",""
"","-1","-1","1080","0","test_block","poldrack-single-stim","142","213029","0.0-5.0-128.0","go-nogo","true","0","","true","<div class = centerbox><div  id = stim1></div></div>","-1","32","750","","test","nogo","128","random","","",""
"","-1","-1","1191","0","test_block","poldrack-single-stim","143","214277","0.0-5.0-129.0","go-nogo","true","0","","false","<div class = centerbox><div  id = stim2></div></div>","32","32","750","","test","go","129","random","","",""
"","-1","-1","1046","0","test_block","poldrack-single-stim","144","215385","0.0-5.0-130.0","go-nogo","true","0","","false","<div class = centerbox><div  id = stim2></div></div>","32","32","750","","test","go","130","random","","",""
"","-1","-1","1450","0","test_block","poldrack-single-stim","145","216892","0.0-5.0-131.0","go-nogo","true","0","","false","<div class = centerbox><div  id = stim2></div></div>","32","32","750","","test","go","131","random","","",""
"","-1","-1","1300","0","test_block","poldrack-single-stim","146","218257","0.0-5.0-132.0","go-nogo","true","0","","false","<div class = centerbox><div  id = stim2></div></div>","32","32","750","","test","go","132","random","","",""
"","-1","-1","1210","0","test_block","poldrack-single-stim","147","219535","0.0-5.0-133.0","go-nogo","true","0","","false","<div class = centerbox><div  id = stim2></div></div>","32","32","750","","test","go","133","random","","",""
"","-1","-1","1353","0","test_block","poldrack-single-stim","148","220949","0.0-5.0-134.0","go-nogo","true","0","","false","<div class = centerbox><div  id = stim2></div></div>","32","32","750","","test","go","134","random","","",""
"","-1","-1","1192","0","test_block","poldrack-single-stim","149","222191","0.0-5.0-135.0","go-nogo","true","0","","false","<div class = centerbox><div  id = stim2></div></div>","32","32","750","","test","go","135","random","","",""
"","-1","-1","1372","0","test_block","poldrack-single-stim","150","223641","0.0-5.0-136.0","go-nogo","true","0","","false","<div class = centerbox><div  id = stim2></div></div>","32","32","750","","test","go","136","random","","",""
"","-1","-1","1014","0","test_block","poldrack-single-stim","151","224726","0.0-5.0-137.0","go-nogo","true","0","","false","<div class = centerbox><div  id = stim2></div></div>","32","32","750","","test","go","137","random","","",""
"","-1","-1","1272","0","test_block","poldrack-single-stim","152","226047","0.0-5.0-138.0","go-nogo","true","0","","false","<div class = centerbox><div  id = stim2></div></div>","32","32","750","","test","go","138","random","","",""
"","-1","-1","1280","0","test_block","poldrack-single-stim","153","227395","0.0-5.0-139.0","go-nogo","true","0","","false","<div class = centerbox><div  id = stim2></div></div>","32","32","750","","test","go","139","random","","",""
"","-1","-1","1402","0","test_block","poldrack-single-stim","154","228850","0.0-5.0-140.0","go-nogo","true","0","","false","<div class = centerbox><div  id = stim2></div></div>","32","32","750","","test","go","140","random","","",""
"","-1","-1","1353","0","test_block","poldrack-single-stim","155","230265","0.0-5.0-141.0","go-nogo","true","0","","true","<div class = centerbox><div  id = stim1></div></div>","-1","32","750","","test","nogo","141","random","","",""
"","-1","-1","1460","0","test_block","poldrack-single-stim","156","231785","0.0-5.0-142.0","go-nogo","true","0","","true","<div class = centerbox><div  id = stim1></div></div>","-1","32","750","","test","nogo","142","random","","",""
"","-1","-1","1068","0","test_block","poldrack-single-stim","157","232904","0.0-5.0-143.0","go-nogo","true","0","","false","<div class = centerbox><div  id = stim2></div></div>","32","32","750","","test","go","143","random","","",""
"","-1","-1","1234","0","test_block","poldrack-single-stim","158","234204","0.0-5.0-144.0","go-nogo","true","0","","false","<div class = centerbox><div  id = stim2></div></div>","32","32","750","","test","go","144","random","","",""
"","-1","-1","1279","0","test_block","poldrack-single-stim","159","235549","0.0-5.0-145.0","go-nogo","true","0","","false","<div class = centerbox><div  id = stim2></div></div>","32","32","750","","test","go","145","random","","",""
"","-1","-1","1246","0","test_block","poldrack-single-stim","160","236860","0.0-5.0-146.0","go-nogo","true","0","","false","<div class = centerbox><div  id = stim2></div></div>","32","32","750","","test","go","146","random","","",""
"","-1","-1","1153","0","test_block","poldrack-single-stim","161","238081","0.0-5.0-147.0","go-nogo","true","0","","false","<div class = centerbox><div  id = stim2></div></div>","32","32","750","","test","go","147","random","","",""
"","-1","-1","1167","0","test_block","poldrack-single-stim","162","239313","0.0-5.0-148.0","go-nogo","true","0","","false","<div class = centerbox><div  id = stim2></div></div>","32","32","750","","test","go","148","random","","",""
"","-1","-1","1324","0","test_block","poldrack-single-stim","163","240708","0.0-5.0-149.0","go-nogo","true","0","","false","<div class = centerbox><div  id = stim2></div></div>","32","32","750","","test","go","149","random","","",""
"","-1","-1","1265","0","test_block","poldrack-single-stim","164","242028","0.0-5.0-150.0","go-nogo","true","0","","false","<div class = centerbox><div  id = stim2></div></div>","32","32","750","","test","go","150","random","","",""
"","-1","-1","1371","0","test_block","poldrack-single-stim","165","243466","0.0-5.0-151.0","go-nogo","true","0","","false","<div class = centerbox><div  id = stim2></div></div>","32","32","750","","test","go","151","random","","",""
"","-1","-1","1337","0","test_block","poldrack-single-stim","166","244866","0.0-5.0-152.0","go-nogo","true","0","","true","<div class = centerbox><div  id = stim1></div></div>","-1","32","750","","test","nogo","152","random","","",""
"","-1","-1","1341","0","test_block","poldrack-single-stim","167","246268","0.0-5.0-153.0","go-nogo","true","0","","false","<div class = centerbox><div  id = stim2></div></div>","32","32","750","","test","go","153","random","","",""
"","-1","-1","1145","0","test_block","poldrack-single-stim","168","247469","0.0-5.0-154.0","go-nogo","true","0","","false","<div class = centerbox><div  id = stim2></div></div>","32","32","750","","test","go","154","random","","",""
"","-1","-1","1478","0","test_block","poldrack-single-stim","169","248999","0.0-5.0-155.0","go-nogo","true","0","","false","<div class = centerbox><div  id = stim2></div></div>","32","32","750","","test","go","155","random","","",""
"","-1","-1","1026","0","test_block","poldrack-single-stim","170","250091","0.0-5.0-156.0","go-nogo","true","0","","false","<div class = centerbox><div  id = stim2></div></div>","32","32","750","","test","go","156","random","","",""
"","-1","-1","1342","0","test_block","poldrack-single-stim","171","251492","0.0-5.0-157.0","go-nogo","true","0","","false","<div class = centerbox><div  id = stim2></div></div>","32","32","750","","test","go","157","random","","",""
"","-1","-1","1116","0","test_block","poldrack-single-stim","172","252649","0.0-5.0-158.0","go-nogo","true","0","","false","<div class = centerbox><div  id = stim2></div></div>","32","32","750","","test","go","158","random","","",""
"","-1","-1","1167","0","test_block","poldrack-single-stim","173","253890","0.0-5.0-159.0","go-nogo","true","0","","false","<div class = centerbox><div  id = stim2></div></div>","32","32","750","","test","go","159","random","","",""
"","-1","-1","1190","0","test_block","poldrack-single-stim","174","255132","0.0-5.0-160.0","go-nogo","true","0","","false","<div class = centerbox><div  id = stim2></div></div>","32","32","750","","test","go","160","random","","",""
"","-1","-1","1134","0","test_block","poldrack-single-stim","175","256333","0.0-5.0-161.0","go-nogo","true","0","","false","<div class = centerbox><div  id = stim2></div></div>","32","32","750","","test","go","161","random","","",""
"","-1","-1","1073","0","test_block","poldrack-single-stim","176","257472","0.0-5.0-162.0","go-nogo","true","0","","false","<div class = centerbox><div  id = stim2></div></div>","32","32","750","","test","go","162","random","","",""
"","-1","-1","1172","0","test_block","poldrack-single-stim","177","258704","0.0-5.0-163.0","go-nogo","true","0","","false","<div class = centerbox><div  id = stim2></div></div>","32","32","750","","test","go","163","random","","",""
"","-1","-1","1316","0","test_block","poldrack-single-stim","178","260089","0.0-5.0-164.0","go-nogo","true","0","","false","<div class = centerbox><div  id = stim2></div></div>","32","32","750","","test","go","164","random","","",""
"","-1","-1","1375","0","test_block","poldrack-single-stim","179","261543","0.0-5.0-165.0","go-nogo","true","0","","true","<div class = centerbox><div  id = stim1></div></div>","-1","32","750","","test","nogo","165","random","","",""
"","-1","-1","1455","0","test_block","poldrack-single-stim","180","263057","0.0-5.0-166.0","go-nogo","true","0","","false","<div class = centerbox><div  id = stim2></div></div>","32","32","750","","test","go","166","random","","",""
"","-1","-1","1006","0","test_block","poldrack-single-stim","181","264126","0.0-5.0-167.0","go-nogo","true","0","","true","<div class = centerbox><div  id = stim1></div></div>","-1","32","750","","test","nogo","167","random","","",""
"","-1","-1","1412","0","test_block","poldrack-single-stim","182","265591","0.0-5.0-168.0","go-nogo","true","0","","false","<div class = centerbox><div  id = stim2></div></div>","32","32","750","","test","go","168","random","","",""
"","-1","-1","1138","0","test_block","poldrack-single-stim","183","266789","0.0-5.0-169.0","go-nogo","true","0","","false","<div class = centerbox><div  id = stim2></div></div>","32","32","750","","test","go","169","random","","",""
"","-1","-1","1417","0","test_block","poldrack-single-stim","184","268257","0.0-5.0-170.0","go-nogo","true","0","","false","<div class = centerbox><div  id = stim2></div></div>","32","32","750","","test","go","170","random","","",""
"","-1","-1","1246","0","test_block","poldrack-single-stim","185","269557","0.0-5.0-171.0","go-nogo","true","0","","false","<div class = centerbox><div  id = stim2></div></div>","32","32","750","","test","go","171","random","","",""
"","-1","-1","1082","0","test_block","poldrack-single-stim","186","270694","0.0-5.0-172.0","go-nogo","true","0","","false","<div class = centerbox><div  id = stim2></div></div>","32","32","750","","test","go","172","random","","",""
"","-1","-1","1426","0","test_block","poldrack-single-stim","187","272182","0.0-5.0-173.0","go-nogo","true","0","","false","<div class = centerbox><div  id = stim2></div></div>","32","32","750","","test","go","173","random","","",""
"","-1","-1","1432","0","test_block","poldrack-single-stim","188","273676","0.0-5.0-174.0","go-nogo","true","0","","false","<div class = centerbox><div  id = stim2></div></div>","32","32","750","","test","go","174","random","","",""
"","-1","-1","1373","0","test_block","poldrack-single-stim","189","275113","0.0-5.0-175.0","go-nogo","true","0","","false","<div class = centerbox><div  id = stim2></div></div>","32","32","750","","test","go","175","random","","",""
"","-1","-1","1261","0","test_block","poldrack-single-stim","190","276437","0.0-5.0-176.0","go-nogo","true","0","","false","<div class = centerbox><div  id = stim2></div></div>","32","32","750","","test","go","176","random","","",""
"","-1","-1","1221","0","test_block","poldrack-single-stim","191","277726","0.0-5.0-177.0","go-nogo","true","0","","false","<div class = centerbox><div  id = stim2></div></div>","32","32","750","","test","go","177","random","","",""
"","-1","-1","1353","0","test_block","poldrack-single-stim","192","279143","0.0-5.0-178.0","go-nogo","true","0","","false","<div class = centerbox><div  id = stim2></div></div>","32","32","750","","test","go","178","random","","",""
"","-1","-1","1419","0","test_block","poldrack-single-stim","193","280608","0.0-5.0-179.0","go-nogo","true","0","","false","<div class = centerbox><div  id = stim2></div></div>","32","32","750","","test","go","179","random","","",""
"","-1","-1","1294","0","test_block","poldrack-single-stim","194","281961","0.0-5.0-180.0","go-nogo","true","0","","false","<div class = centerbox><div  id = stim2></div></div>","32","32","750","","test","go","180","random","","",""
"","-1","-1","1450","0","test_block","poldrack-single-stim","195","283475","0.0-5.0-181.0","go-nogo","true","0","","false","<div class = centerbox><div  id = stim2></div></div>","32","32","750","","test","go","181","random","","",""
"","-1","-1","1352","0","test_block","poldrack-single-stim","196","284895","0.0-5.0-182.0","go-nogo","true","0","","false","<div class = centerbox><div  id = stim2></div></div>","32","32","750","","test","go","182","random","","",""
"","-1","-1","1026","0","test_block","poldrack-single-stim","197","285992","0.0-5.0-183.0","go-nogo","true","0","","false","<div class = centerbox><div  id = stim2></div></div>","32","32","750","","test","go","183","random","","",""
"","-1","-1","1244","0","test_block","poldrack-single-stim","198","287295","0.0-5.0-184.0","go-nogo","true","0","","false","<div class = centerbox><div  id = stim2></div></div>","32","32","750","","test","go","184","random","","",""
"","-1","-1","1290","0","test_block","poldrack-single-stim","199","288653","0.0-5.0-185.0","go-nogo","true","0","","false","<div class = centerbox><div  id = stim2></div></div>","32","32","750","","test","go","185","random","","",""
"","-1","-1","1275","0","test_block","poldrack-single-stim","200","289990","0.0-5.0-186.0","go-nogo","true","0","","true","<div class = centerbox><div  id = stim1></div></div>","-1","32","750","","test","nogo","186","random","","",""
"","-1","-1","1268","0","test_block","poldrack-single-stim","201","291322","0.0-5.0-187.0","go-nogo","true","0","","false","<div class = centerbox><div  id = stim2></div></div>","32","32","750","","test","go","187","random","","",""
"","-1","-1","1486","0","test_block","poldrack-single-stim","202","292867","0.0-5.0-188.0","go-nogo","true","0","","false","<div class = centerbox><div  id = stim2></div></div>","32","32","750","","test","go","188","random","","",""
"","-1","-1","1306","0","test_block","poldrack-single-stim","203","294222","0.0-5.0-189.0","go-nogo","true","0","","false","<div class = centerbox><div  id = stim2></div></div>","32","32","750","","test","go","189","random","","",""
"","-1","-1","1075","0","test_block","poldrack-single-stim","204","295366","0.0-5.0-190.0","go-nogo","true","0","","true","<div class = centerbox><div  id = stim1></div></div>","-1","32","750","","test","nogo","190","random","","",""
"","-1","-1","1335","0","test_block","poldrack-single-stim","205","296768","0.0-5.0-191.0","go-nogo","true","0","","false","<div class = centerbox><div  id = stim2></div></div>","32","32","750","","test","go","191","random","","",""
"","-1","-1","1228","0","test_block","poldrack-single-stim","206","298063","0.0-5.0-192.0","go-nogo","true","0","","false","<div class = centerbox><div  id = stim2></div></div>","32","32","750","","test","go","192","random","","",""
"","-1","-1","1027","0","test_block","poldrack-single-stim","207","299155","0.0-5.0-193.0","go-nogo","true","0","","false","<div class = centerbox><div  id = stim2></div></div>","32","32","750","","test","go","193","random","","",""
"","-1","-1","1076","0","test_block","poldrack-single-stim","208","300295","0.0-5.0-194.0","go-nogo","true","0","","false","<div class = centerbox><div  id = stim2></div></div>","32","32","750","","test","go","194","random","","",""
"","-1","-1","1091","0","test_block","poldrack-single-stim","209","301441","0.0-5.0-195.0","go-nogo","true","0","","false","<div class = centerbox><div  id = stim2></div></div>","32","32","750","","test","go","195","random","","",""
"","-1","-1","1199","0","test_block","poldrack-single-stim","210","302705","0.0-5.0-196.0","go-nogo","true","0","","false","<div class = centerbox><div  id = stim2></div></div>","32","32","750","","test","go","196","random","","",""
"","-1","-1","1220","0","test_block","poldrack-single-stim","211","303978","0.0-5.0-197.0","go-nogo","true","0","","false","<div class = centerbox><div  id = stim2></div></div>","32","32","750","","test","go","197","random","","",""
"","-1","-1","1071","0","test_block","poldrack-single-stim","212","305113","0.0-5.0-198.0","go-nogo","true","0","","false","<div class = centerbox><div  id = stim2></div></div>","32","32","750","","test","go","198","random","","",""
"","-1","-1","1258","0","test_block","poldrack-single-stim","213","306435","0.0-5.0-199.0","go-nogo","true","0","","false","<div class = centerbox><div  id = stim2></div></div>","32","32","750","","test","go","199","random","","",""
"","-1","-1","1055","0","test_block","poldrack-single-stim","214","307555","0.0-5.0-200.0","go-nogo","true","0","","false","<div class = centerbox><div  id = stim2></div></div>","32","32","750","","test","go","200","random","","",""
"","-1","-1","1382","0","test_block","poldrack-single-stim","215","308997","0.0-5.0-201.0","go-nogo","true","0","","false","<div class = centerbox><div  id = stim2></div></div>","32","32","750","","test","go","201","random","","",""
"","-1","-1","1069","0","test_block","poldrack-single-stim","216","310130","0.0-5.0-202.0","go-nogo","true","0","","true","<div class = centerbox><div  id = stim1></div></div>","-1","32","750","","test","nogo","202","random","","",""
"","-1","-1","1481","0","test_block","poldrack-single-stim","217","311671","0.0-5.0-203.0","go-nogo","true","0","","false","<div class = centerbox><div  id = stim2></div></div>","32","32","750","","test","go","203","random","","",""
"","-1","-1","1402","0","test_block","poldrack-single-stim","218","313133","0.0-5.0-204.0","go-nogo","true","0","","false","<div class = centerbox><div  id = stim2></div></div>","32","32","750","","test","go","204","random","","",""
"","-1","-1","1242","0","test_block","poldrack-single-stim","219","314439","0.0-5.0-205.0","go-nogo","true","0","","false","<div class = centerbox><div  id = stim2></div></div>","32","32","750","","test","go","205","random","","",""
"","-1","-1","1082","0","test_block","poldrack-single-stim","220","315590","0.0-5.0-206.0","go-nogo","true","0","","true","<div class = centerbox><div  id = stim1></div></div>","-1","32","750","","test","nogo","206","random","","",""
"","-1","-1","1131","0","test_block","poldrack-single-stim","221","316785","0.0-5.0-207.0","go-nogo","true","0","","false","<div class = centerbox><div  id = stim2></div></div>","32","32","750","","test","go","207","random","","",""
"","-1","-1","1281","0","test_block","poldrack-single-stim","222","318127","0.0-5.0-208.0","go-nogo","true","0","","true","<div class = centerbox><div  id = stim1></div></div>","-1","32","750","","test","nogo","208","random","","",""
"","-1","-1","1243","0","test_block","poldrack-single-stim","223","319422","0.0-5.0-209.0","go-nogo","true","0","","false","<div class = centerbox><div  id = stim2></div></div>","32","32","750","","test","go","209","random","","",""
"","-1","-1","1425","0","test_block","poldrack-single-stim","224","320907","0.0-5.0-210.0","go-nogo","true","0","","false","<div class = centerbox><div  id = stim2></div></div>","32","32","750","","test","go","210","random","","",""
"","-1","-1","1287","0","test_block","poldrack-single-stim","225","322248","0.0-5.0-211.0","go-nogo","true","0","","false","<div class = centerbox><div  id = stim2></div></div>","32","32","750","","test","go","211","random","","",""
"","-1","-1","1255","0","test_block","poldrack-single-stim","226","323562","0.0-5.0-212.0","go-nogo","true","0","","false","<div class = centerbox><div  id = stim2></div></div>","32","32","750","","test","go","212","random","","",""
"","-1","-1","1257","0","test_block","poldrack-single-stim","227","324878","0.0-5.0-213.0","go-nogo","true","0","","false","<div class = centerbox><div  id = stim2></div></div>","32","32","750","","test","go","213","random","","",""
"","-1","-1","1273","0","test_block","poldrack-single-stim","228","326216","0.0-5.0-214.0","go-nogo","true","0","","false","<div class = centerbox><div  id = stim2></div></div>","32","32","750","","test","go","214","random","","",""
"","-1","-1","1028","0","test_block","poldrack-single-stim","229","327308","0.0-5.0-215.0","go-nogo","true","0","","false","<div class = centerbox><div  id = stim2></div></div>","32","32","750","","test","go","215","random","","",""
"","-1","-1","1129","0","test_block","poldrack-single-stim","230","328502","0.0-5.0-216.0","go-nogo","true","0","","false","<div class = centerbox><div  id = stim2></div></div>","32","32","750","","test","go","216","random","","",""
"","-1","-1","1211","0","test_block","poldrack-single-stim","231","329752","0.0-5.0-217.0","go-nogo","true","0","","false","<div class = centerbox><div  id = stim2></div></div>","32","32","750","","test","go","217","random","","",""
"","-1","-1","1175","0","test_block","poldrack-single-stim","232","330981","0.0-5.0-218.0","go-nogo","true","0","","false","<div class = centerbox><div  id = stim2></div></div>","32","32","750","","test","go","218","random","","",""
"","-1","-1","1256","0","test_block","poldrack-single-stim","233","332295","0.0-5.0-219.0","go-nogo","true","0","","false","<div class = centerbox><div  id = stim2></div></div>","32","32","750","","test","go","219","random","","",""
"","-1","-1","1207","0","test_block","poldrack-single-stim","234","333568","0.0-5.0-220.0","go-nogo","true","0","","true","<div class = centerbox><div  id = stim1></div></div>","-1","32","750","","test","nogo","220","random","","",""
"","-1","-1","1307","0","test_block","poldrack-single-stim","235","334929","0.0-5.0-221.0","go-nogo","true","0","","false","<div class = centerbox><div  id = stim2></div></div>","32","32","750","","test","go","221","random","","",""
"","-1","-1","1138","0","test_block","poldrack-single-stim","236","336134","0.0-5.0-222.0","go-nogo","true","0","","false","<div class = centerbox><div  id = stim2></div></div>","32","32","750","","test","go","222","random","","",""
"","-1","-1","1146","0","test_block","poldrack-single-stim","237","337349","0.0-5.0-223.0","go-nogo","true","0","","false","<div class = centerbox><div  id = stim2></div></div>","32","32","750","","test","go","223","random","","",""
"","-1","-1","1296","0","test_block","poldrack-single-stim","238","338712","0.0-5.0-224.0","go-nogo","true","0","","false","<div class = centerbox><div  id = stim2></div></div>","32","32","750","","test","go","224","random","","",""
"","-1","-1","1332","0","test_block","poldrack-single-stim","239","340106","0.0-5.0-225.0","go-nogo","true","0","","false","<div class = centerbox><div  id = stim2></div></div>","32","32","750","","test","go","225","random","","",""
"","-1","-1","1499","0","test_block","poldrack-single-stim","240","341661","0.0-5.0-226.0","go-nogo","true","0","","false","<div class = centerbox><div  id = stim2></div></div>","32","32","750","","test","go","226","random","","",""
"","-1","-1","1220","0","test_block","poldrack-single-stim","241","342954","0.0-5.0-227.0","go-nogo","true","0","","false","<div class = centerbox><div  id = stim2></div></div>","32","32","750","","test","go","227","random","","",""
"","-1","-1","1417","0","test_block","poldrack-single-stim","242","344427","0.0-5.0-228.0","go-nogo","true","0","","false","<div class = centerbox><div  id = stim2></div></div>","32","32","750","","test","go","228","random","","",""
"","-1","-1","1221","0","test_block","poldrack-single-stim","243","345704","0.0-5.0-229.0","go-nogo","true","0","","true","<div class = centerbox><div  id = stim1></div></div>","-1","32","750","","test","nogo","229","random","","",""
"","-1","-1","1235","0","test_block","poldrack-single-stim","244","347012","0.0-5.0-230.0","go-nogo","true","0","","false","<div class = centerbox><div  id = stim2></div></div>","32","32","750","","test","go","230","random","","",""
"","-1","-1","1018","0","test_block","poldrack-single-stim","245","348083","0.0-5.0-231.0","go-nogo","true","0","","false","<div class = centerbox><div  id = stim2></div></div>","32","32","750","","test","go","231","random","","",""
"","-1","-1","1115","0","test_block","poldrack-single-stim","246","349257","0.0-5.0-232.0","go-nogo","true","0","","false","<div class = centerbox><div  id = stim2></div></div>","32","32","750","","test","go","232","random","","",""
"","-1","-1","1108","0","test_block","poldrack-single-stim","247","350417","0.0-5.0-233.0","go-nogo","true","0","","false","<div class = centerbox><div  id = stim2></div></div>","32","32","750","","test","go","233","random","","",""
"","-1","-1","1490","0","test_block","poldrack-single-stim","248","351971","0.0-5.0-234.0","go-nogo","true","0","","false","<div class = centerbox><div  id = stim2></div></div>","32","32","750","","test","go","234","random","","",""
"","-1","-1","1487","0","test_block","poldrack-single-stim","249","353525","0.0-5.0-235.0","go-nogo","true","0","","false","<div class = centerbox><div  id = stim2></div></div>","32","32","750","","test","go","235","random","","",""
"","-1","-1","1279","0","test_block","poldrack-single-stim","250","354858","0.0-5.0-236.0","go-nogo","true","0","","false","<div class = centerbox><div  id = stim2></div></div>","32","32","750","","test","go","236","random","","",""
"","-1","-1","1396","0","test_block","poldrack-single-stim","251","356309","0.0-5.0-237.0","go-nogo","true","0","","false","<div class = centerbox><div  id = stim2></div></div>","32","32","750","","test","go","237","random","","",""
"","-1","-1","1263","0","test_block","poldrack-single-stim","252","357626","0.0-5.0-238.0","go-nogo","true","0","","false","<div class = centerbox><div  id = stim2></div></div>","32","32","750","","test","go","238","random","","",""
"","-1","-1","1496","0","test_block","poldrack-single-stim","253","359180","0.0-5.0-239.0","go-nogo","true","0","","false","<div class = centerbox><div  id = stim2></div></div>","32","32","750","","test","go","239","random","","",""
"","-1","-1","1415","0","test_block","poldrack-single-stim","254","360650","0.0-5.0-240.0","go-nogo","true","0","","false","<div class = centerbox><div  id = stim2></div></div>","32","32","750","","test","go","240","random","","",""
"","-1","-1","1315","0","test_block","poldrack-single-stim","255","362031","0.0-5.0-241.0","go-nogo","true","0","","false","<div class = centerbox><div  id = stim2></div></div>","32","32","750","","test","go","241","random","","",""
"","-1","-1","1349","0","test_block","poldrack-single-stim","256","363447","0.0-5.0-242.0","go-nogo","true","0","","false","<div class = centerbox><div  id = stim2></div></div>","32","32","750","","test","go","242","random","","",""
"","-1","-1","1264","0","test_block","poldrack-single-stim","257","364764","0.0-5.0-243.0","go-nogo","true","0","","false","<div class = centerbox><div  id = stim2></div></div>","32","32","750","","test","go","243","random","","",""
"","-1","-1","1244","0","test_block","poldrack-single-stim","258","366064","0.0-5.0-244.0","go-nogo","true","0","","false","<div class = centerbox><div  id = stim2></div></div>","32","32","750","","test","go","244","random","","",""
"","-1","-1","1097","0","test_block","poldrack-single-stim","259","367223","0.0-5.0-245.0","go-nogo","true","0","","false","<div class = centerbox><div  id = stim2></div></div>","32","32","750","","test","go","245","random","","",""
"","-1","-1","1069","0","test_block","poldrack-single-stim","260","368347","0.0-5.0-246.0","go-nogo","true","0","","false","<div class = centerbox><div  id = stim2></div></div>","32","32","750","","test","go","246","random","","",""
"","-1","-1","1396","0","test_block","poldrack-single-stim","261","369803","0.0-5.0-247.0","go-nogo","true","0","","false","<div class = centerbox><div  id = stim2></div></div>","32","32","750","","test","go","247","random","","",""
"","-1","-1","1103","0","test_block","poldrack-single-stim","262","370960","0.0-5.0-248.0","go-nogo","true","0","","false","<div class = centerbox><div  id = stim2></div></div>","32","32","750","","test","go","248","random","","",""
"","-1","-1","1460","0","test_block","poldrack-single-stim","263","372470","0.0-5.0-249.0","go-nogo","true","0","","false","<div class = centerbox><div  id = stim2></div></div>","32","32","750","","test","go","249","random","","",""
"","-1","-1","1254","0","test_block","poldrack-single-stim","264","373781","0.0-5.0-250.0","go-nogo","true","0","","false","<div class = centerbox><div  id = stim2></div></div>","32","32","750","","test","go","250","random","","",""
"","-1","-1","1242","0","test_block","poldrack-single-stim","265","375105","0.0-5.0-251.0","go-nogo","true","0","","false","<div class = centerbox><div  id = stim2></div></div>","32","32","750","","test","go","251","random","","",""
"","-1","-1","1256","0","test_block","poldrack-single-stim","266","376431","0.0-5.0-252.0","go-nogo","true","0","","false","<div class = centerbox><div  id = stim2></div></div>","32","32","750","","test","go","252","random","","",""
"","-1","-1","1491","0","test_block","poldrack-single-stim","267","377977","0.0-5.0-253.0","go-nogo","true","0","","false","<div class = centerbox><div  id = stim2></div></div>","32","32","750","","test","go","253","random","","",""
"","-1","-1","1288","0","test_block","poldrack-single-stim","268","379333","0.0-5.0-254.0","go-nogo","true","0","","false","<div class = centerbox><div  id = stim2></div></div>","32","32","750","","test","go","254","random","","",""
"","-1","-1","1120","0","test_block","poldrack-single-stim","269","380519","0.0-5.0-255.0","go-nogo","true","0","","false","<div class = centerbox><div  id = stim2></div></div>","32","32","750","","test","go","255","random","","",""
"","-1","-1","1088","0","test_block","poldrack-single-stim","270","381648","0.0-5.0-256.0","go-nogo","true","0","","false","<div class = centerbox><div  id = stim2></div></div>","32","32","750","","test","go","256","random","","",""
"","-1","-1","1209","0","test_block","poldrack-single-stim","271","382926","0.0-5.0-257.0","go-nogo","true","0","","true","<div class = centerbox><div  id = stim1></div></div>","-1","32","750","","test","nogo","257","random","","",""
"","-1","-1","1268","0","test_block","poldrack-single-stim","272","384265","0.0-5.0-258.0","go-nogo","true","0","","false","<div class = centerbox><div  id = stim2></div></div>","32","32","750","","test","go","258","random","","",""
"","-1","-1","1272","0","test_block","poldrack-single-stim","273","385595","0.0-5.0-259.0","go-nogo","true","0","","false","<div class = centerbox><div  id = stim2></div></div>","32","32","750","","test","go","259","random","","",""
"","-1","-1","1089","0","test_block","poldrack-single-stim","274","386740","0.0-5.0-260.0","go-nogo","true","0","","false","<div class = centerbox><div  id = stim2></div></div>","32","32","750","","test","go","260","random","","",""
"","-1","-1","1069","0","test_block","poldrack-single-stim","275","387868","0.0-5.0-261.0","go-nogo","true","0","","false","<div class = centerbox><div  id = stim2></div></div>","32","32","750","","test","go","261","random","","",""
"","-1","-1","1324","0","test_block","poldrack-single-stim","276","389257","0.0-5.0-262.0","go-nogo","true","0","","false","<div class = centerbox><div  id = stim2></div></div>","32","32","750","","test","go","262","random","","",""
"","-1","-1","1218","0","test_block","poldrack-single-stim","277","390535","0.0-5.0-263.0","go-nogo","true","0","","false","<div class = centerbox><div  id = stim2></div></div>","32","32","750","","test","go","263","random","","",""
"","-1","-1","1142","0","test_block","poldrack-single-stim","278","391730","0.0-5.0-264.0","go-nogo","true","0","","false","<div class = centerbox><div  id = stim2></div></div>","32","32","750","","test","go","264","random","","",""
"","-1","-1","1176","0","test_block","poldrack-single-stim","279","392962","0.0-5.0-265.0","go-nogo","true","0","","false","<div class = centerbox><div  id = stim2></div></div>","32","32","750","","test","go","265","random","","",""
"","-1","-1","1175","0","test_block","poldrack-single-stim","280","394201","0.0-5.0-266.0","go-nogo","true","0","","false","<div class = centerbox><div  id = stim2></div></div>","32","32","750","","test","go","266","random","","",""
"","-1","-1","1210","0","test_block","poldrack-single-stim","281","395478","0.0-5.0-267.0","go-nogo","true","0","","false","<div class = centerbox><div  id = stim2></div></div>","32","32","750","","test","go","267","random","","",""
"","-1","-1","1338","0","test_block","poldrack-single-stim","282","396878","0.0-5.0-268.0","go-nogo","true","0","","false","<div class = centerbox><div  id = stim2></div></div>","32","32","750","","test","go","268","random","","",""
"","-1","-1","1144","0","test_block","poldrack-single-stim","283","398088","0.0-5.0-269.0","go-nogo","true","0","","false","<div class = centerbox><div  id = stim2></div></div>","32","32","750","","test","go","269","random","","",""
"","-1","-1","1161","0","test_block","poldrack-single-stim","284","399313","0.0-5.0-270.0","go-nogo","true","0","","false","<div class = centerbox><div  id = stim2></div></div>","32","32","750","","test","go","270","random","","",""
"","-1","-1","1100","0","test_block","poldrack-single-stim","285","400477","0.0-5.0-271.0","go-nogo","true","0","","false","<div class = centerbox><div  id = stim2></div></div>","32","32","750","","test","go","271","random","","",""
"","-1","-1","1270","0","test_block","poldrack-single-stim","286","401809","0.0-5.0-272.0","go-nogo","true","0","","false","<div class = centerbox><div  id = stim2></div></div>","32","32","750","","test","go","272","random","","",""
"","-1","-1","1133","0","test_block","poldrack-single-stim","287","403005","0.0-5.0-273.0","go-nogo","true","0","","false","<div class = centerbox><div  id = stim2></div></div>","32","32","750","","test","go","273","random","","",""
"","-1","-1","1134","0","test_block","poldrack-single-stim","288","404208","0.0-5.0-274.0","go-nogo","true","0","","false","<div class = centerbox><div  id = stim2></div></div>","32","32","750","","test","go","274","random","","",""
"","-1","-1","1463","0","test_block","poldrack-single-stim","289","405734","0.0-5.0-275.0","go-nogo","true","0","","false","<div class = centerbox><div  id = stim2></div></div>","32","32","750","","test","go","275","random","","",""
"","-1","-1","1437","0","test_block","poldrack-single-stim","290","407228","0.0-5.0-276.0","go-nogo","true","0","","false","<div class = centerbox><div  id = stim2></div></div>","32","32","750","","test","go","276","random","","",""
"","-1","-1","1292","0","test_block","poldrack-single-stim","291","408572","0.0-5.0-277.0","go-nogo","true","0","","false","<div class = centerbox><div  id = stim2></div></div>","32","32","750","","test","go","277","random","","",""
"","-1","-1","1084","0","test_block","poldrack-single-stim","292","409728","0.0-5.0-278.0","go-nogo","true","0","","true","<div class = centerbox><div  id = stim1></div></div>","-1","32","750","","test","nogo","278","random","","",""
"","-1","-1","1008","0","test_block","poldrack-single-stim","293","410806","0.0-5.0-279.0","go-nogo","true","0","","false","<div class = centerbox><div  id = stim2></div></div>","32","32","750","","test","go","279","random","","",""
"","-1","-1","1485","0","test_block","poldrack-single-stim","294","412350","0.0-5.0-280.0","go-nogo","true","0","","false","<div class = centerbox><div  id = stim2></div></div>","32","32","750","","test","go","280","random","","",""
"","-1","-1","1344","0","test_block","poldrack-single-stim","295","413757","0.0-5.0-281.0","go-nogo","true","0","","false","<div class = centerbox><div  id = stim2></div></div>","32","32","750","","test","go","281","random","","",""
"","-1","-1","1247","0","test_block","poldrack-single-stim","296","415067","0.0-5.0-282.0","go-nogo","true","0","","false","<div class = centerbox><div  id = stim2></div></div>","32","32","750","","test","go","282","random","","",""
"","-1","-1","1060","0","test_block","poldrack-single-stim","297","416190","0.0-5.0-283.0","go-nogo","true","0","","true","<div class = centerbox><div  id = stim1></div></div>","-1","32","750","","test","nogo","283","random","","",""
"","-1","-1","1478","0","test_block","poldrack-single-stim","298","417737","0.0-5.0-284.0","go-nogo","true","0","","false","<div class = centerbox><div  id = stim2></div></div>","32","32","750","","test","go","284","random","","",""
"","-1","-1","1135","0","test_block","poldrack-single-stim","299","418934","0.0-5.0-285.0","go-nogo","true","0","","false","<div class = centerbox><div  id = stim2></div></div>","32","32","750","","test","go","285","random","","",""
"","-1","-1","1020","0","test_block","poldrack-single-stim","300","420012","0.0-5.0-286.0","go-nogo","true","0","","false","<div class = centerbox><div  id = stim2></div></div>","32","32","750","","test","go","286","random","","",""
"","-1","-1","1483","0","test_block","poldrack-single-stim","301","421554","0.0-5.0-287.0","go-nogo","true","0","","false","<div class = centerbox><div  id = stim2></div></div>","32","32","750","","test","go","287","random","","",""
"","-1","-1","1320","0","test_block","poldrack-single-stim","302","422934","0.0-5.0-288.0","go-nogo","true","0","","false","<div class = centerbox><div  id = stim2></div></div>","32","32","750","","test","go","288","random","","",""
"","-1","-1","1260","0","test_block","poldrack-single-stim","303","424257","0.0-5.0-289.0","go-nogo","true","0","","false","<div class = centerbox><div  id = stim2></div></div>","32","32","750","","test","go","289","random","","",""
"","-1","-1","1232","0","test_block","poldrack-single-stim","304","425545","0.0-5.0-290.0","go-nogo","true","0","","false","<div class = centerbox><div  id = stim2></div></div>","32","32","750","","test","go","290","random","","",""
"","-1","-1","1151","0","test_block","poldrack-single-stim","305","426750","0.0-5.0-291.0","go-nogo","true","0","","false","<div class = centerbox><div  id = stim2></div></div>","32","32","750","","test","go","291","random","","",""
"","-1","-1","1357","0","test_block","poldrack-single-stim","306","428161","0.0-5.0-292.0","go-nogo","true","0","","false","<div class = centerbox><div  id = stim2></div></div>","32","32","750","","test","go","292","random","","",""
"","-1","-1","1020","0","test_block","poldrack-single-stim","307","429231","0.0-5.0-293.0","go-nogo","true","0","","false","<div class = centerbox><div  id = stim2></div></div>","32","32","750","","test","go","293","random","","",""
"","-1","-1","1449","0","test_block","poldrack-single-stim","308","430741","0.0-5.0-294.0","go-nogo","true","0","","false","<div class = centerbox><div  id = stim2></div></div>","32","32","750","","test","go","294","random","","",""
"","-1","-1","1411","0","test_block","poldrack-single-stim","309","432201","0.0-5.0-295.0","go-nogo","true","0","","true","<div class = centerbox><div  id = stim1></div></div>","-1","32","750","","test","nogo","295","random","","",""
"","-1","-1","1482","0","test_block","poldrack-single-stim","310","433745","0.0-5.0-296.0","go-nogo","true","0","","false","<div class = centerbox><div  id = stim2></div></div>","32","32","750","","test","go","296","random","","",""
"","-1","-1","1280","0","test_block","poldrack-single-stim","311","435076","0.0-5.0-297.0","go-nogo","true","0","","false","<div class = centerbox><div  id = stim2></div></div>","32","32","750","","test","go","297","random","","",""
"","-1","-1","1220","0","test_block","poldrack-single-stim","312","436359","0.0-5.0-298.0","go-nogo","true","0","","false","<div class = centerbox><div  id = stim2></div></div>","32","32","750","","test","go","298","random","","",""
"","-1","-1","1492","0","test_block","poldrack-single-stim","313","437911","0.0-5.0-299.0","go-nogo","true","0","","false","<div class = centerbox><div  id = stim2></div></div>","32","32","750","","test","go","299","random","","",""
"","-1","-1","1189","0","test_block","poldrack-single-stim","314","439165","0.0-5.0-300.0","go-nogo","true","0","","false","<div class = centerbox><div  id = stim2></div></div>","32","32","750","","test","go","300","random","","",""
"","-1","-1","1319","0","test_block","poldrack-single-stim","315","440549","0.0-5.0-301.0","go-nogo","true","0","","false","<div class = centerbox><div  id = stim2></div></div>","32","32","750","","test","go","301","random","","",""
"","-1","-1","1478","0","test_block","poldrack-single-stim","316","442091","0.0-5.0-302.0","go-nogo","true","0","","false","<div class = centerbox><div  id = stim2></div></div>","32","32","750","","test","go","302","random","","",""
"","-1","-1","1324","0","test_block","poldrack-single-stim","317","443475","0.0-5.0-303.0","go-nogo","true","0","","false","<div class = centerbox><div  id = stim2></div></div>","32","32","750","","test","go","303","random","","",""
"","-1","-1","1447","0","test_block","poldrack-single-stim","318","444986","0.0-5.0-304.0","go-nogo","true","0","","false","<div class = centerbox><div  id = stim2></div></div>","32","32","750","","test","go","304","random","","",""
"","-1","-1","1035","0","test_block","poldrack-single-stim","319","446075","0.0-5.0-305.0","go-nogo","true","0","","false","<div class = centerbox><div  id = stim2></div></div>","32","32","750","","test","go","305","random","","",""
"","-1","-1","1035","0","test_block","poldrack-single-stim","320","447173","0.0-5.0-306.0","go-nogo","true","0","","false","<div class = centerbox><div  id = stim2></div></div>","32","32","750","","test","go","306","random","","",""
"","-1","-1","1274","0","test_block","poldrack-single-stim","321","448519","0.0-5.0-307.0","go-nogo","true","0","","false","<div class = centerbox><div  id = stim2></div></div>","32","32","750","","test","go","307","random","","",""
"","-1","-1","1167","0","test_block","poldrack-single-stim","322","449740","0.0-5.0-308.0","go-nogo","true","0","","false","<div class = centerbox><div  id = stim2></div></div>","32","32","750","","test","go","308","random","","",""
"","-1","-1","1271","0","test_block","poldrack-single-stim","323","451075","0.0-5.0-309.0","go-nogo","true","0","","false","<div class = centerbox><div  id = stim2></div></div>","32","32","750","","test","go","309","random","","",""
"","-1","-1","1106","0","test_block","poldrack-single-stim","324","452246","0.0-5.0-310.0","go-nogo","true","0","","false","<div class = centerbox><div  id = stim2></div></div>","32","32","750","","test","go","310","random","","",""
"","-1","-1","1316","0","test_block","poldrack-single-stim","325","453628","0.0-5.0-311.0","go-nogo","true","0","","false","<div class = centerbox><div  id = stim2></div></div>","32","32","750","","test","go","311","random","","",""
"","-1","-1","1460","0","test_block","poldrack-single-stim","326","455152","0.0-5.0-312.0","go-nogo","true","0","","false","<div class = centerbox><div  id = stim2></div></div>","32","32","750","","test","go","312","random","","",""
"","-1","-1","1070","0","test_block","poldrack-single-stim","327","456284","0.0-5.0-313.0","go-nogo","true","0","","false","<div class = centerbox><div  id = stim2></div></div>","32","32","750","","test","go","313","random","","",""
"","-1","-1","1054","0","test_block","poldrack-single-stim","328","457404","0.0-5.0-314.0","go-nogo","true","0","","false","<div class = centerbox><div  id = stim2></div></div>","32","32","750","","test","go","314","random","","",""
"","-1","-1","1324","0","test_block","poldrack-single-stim","329","458800","0.0-5.0-315.0","go-nogo","true","0","","false","<div class = centerbox><div  id = stim2></div></div>","32","32","750","","test","go","315","random","","",""
"","-1","-1","1028","0","test_block","poldrack-single-stim","330","459884","0.0-5.0-316.0","go-nogo","true","0","","false","<div class = centerbox><div  id = stim2></div></div>","32","32","750","","test","go","316","random","","",""
"","-1","-1","1324","0","test_block","poldrack-single-stim","331","461268","0.0-5.0-317.0","go-nogo","true","0","","false","<div class = centerbox><div  id = stim2></div></div>","32","32","750","","test","go","317","random","","",""
"","-1","-1","1231","0","test_block","poldrack-single-stim","332","462552","0.0-5.0-318.0","go-nogo","true","0","","false","<div class = centerbox><div  id = stim2></div></div>","32","32","750","","test","go","318","random","","",""
"","-1","-1","1266","0","test_block","poldrack-single-stim","333","463879","0.0-5.0-319.0","go-nogo","true","0","","true","<div class = centerbox><div  id = stim1></div></div>","-1","32","750","","test","nogo","319","random","","",""
"","-1","-1","1499","0","test_block","poldrack-single-stim","334","465450","0.0-5.0-320.0","go-nogo","true","0","","false","<div class = centerbox><div  id = stim2></div></div>","32","32","750","","test","go","320","random","","",""
"","-1","-1","1019","0","test_block","poldrack-single-stim","335","466519","0.0-5.0-321.0","go-nogo","true","0","","false","<div class = centerbox><div  id = stim2></div></div>","32","32","750","","test","go","321","random","","",""
"","-1","-1","1074","0","test_block","poldrack-single-stim","336","467651","0.0-5.0-322.0","go-nogo","true","0","","false","<div class = centerbox><div  id = stim2></div></div>","32","32","750","","test","go","322","random","","",""
"","-1","-1","1363","0","test_block","poldrack-single-stim","337","469053","0.0-5.0-323.0","go-nogo","true","0","","false","<div class = centerbox><div  id = stim2></div></div>","32","32","750","","test","go","323","random","","",""
"","-1","-1","1458","0","test_block","poldrack-single-stim","338","470577","0.0-5.0-324.0","go-nogo","true","0","","false","<div class = centerbox><div  id = stim2></div></div>","32","32","750","","test","go","324","random","","",""
"","-1","-1","1143","0","test_block","poldrack-single-stim","339","471784","0.0-5.0-325.0","go-nogo","true","0","","false","<div class = centerbox><div  id = stim2></div></div>","32","32","750","","test","go","325","random","","",""
"","-1","-1","1108","0","test_block","poldrack-single-stim","340","472942","0.0-5.0-326.0","go-nogo","true","0","","false","<div class = centerbox><div  id = stim2></div></div>","32","32","750","","test","go","326","random","","",""
"","-1","-1","1060","0","test_block","poldrack-single-stim","341","474063","0.0-5.0-327.0","go-nogo","true","0","","false","<div class = centerbox><div  id = stim2></div></div>","32","32","750","","test","go","327","random","","",""
"","-1","-1","1341","0","test_block","poldrack-single-stim","342","475455","0.0-5.0-328.0","go-nogo","true","0","","false","<div class = centerbox><div  id = stim2></div></div>","32","32","750","","test","go","328","random","","",""
"","-1","-1","1217","0","test_block","poldrack-single-stim","343","476736","0.0-5.0-329.0","go-nogo","true","0","","true","<div class = centerbox><div  id = stim1></div></div>","-1","32","750","","test","nogo","329","random","","",""
"","-1","-1","1319","0","test_block","poldrack-single-stim","344","478107","0.0-5.0-330.0","go-nogo","true","0","","false","<div class = centerbox><div  id = stim2></div></div>","32","32","750","","test","go","330","random","","",""
"","-1","-1","1379","0","test_block","poldrack-single-stim","345","479542","0.0-5.0-331.0","go-nogo","true","0","","true","<div class = centerbox><div  id = stim1></div></div>","-1","32","750","","test","nogo","331","random","","",""
"","-1","-1","1035","0","test_block","poldrack-single-stim","346","480634","0.0-5.0-332.0","go-nogo","true","0","","false","<div class = centerbox><div  id = stim2></div></div>","32","32","750","","test","go","332","random","","",""
"","-1","-1","1069","0","test_block","poldrack-single-stim","347","481764","0.0-5.0-333.0","go-nogo","true","0","","false","<div class = centerbox><div  id = stim2></div></div>","32","32","750","","test","go","333","random","","",""
"","-1","-1","1250","0","test_block","poldrack-single-stim","348","483079","0.0-5.0-334.0","go-nogo","true","0","","false","<div class = centerbox><div  id = stim2></div></div>","32","32","750","","test","go","334","random","","",""
"","-1","-1","1031","0","test_block","poldrack-single-stim","349","484175","0.0-5.0-335.0","go-nogo","true","0","","false","<div class = centerbox><div  id = stim2></div></div>","32","32","750","","test","go","335","random","","",""
"","-1","-1","1334","0","test_block","poldrack-single-stim","350","485574","0.0-5.0-336.0","go-nogo","true","0","","false","<div class = centerbox><div  id = stim2></div></div>","32","32","750","","test","go","336","random","","",""
"","-1","-1","1323","0","test_block","poldrack-single-stim","351","486958","0.0-5.0-337.0","go-nogo","true","0","","false","<div class = centerbox><div  id = stim2></div></div>","32","32","750","","test","go","337","random","","",""
"","-1","-1","1453","0","test_block","poldrack-single-stim","352","488462","0.0-5.0-338.0","go-nogo","true","0","","false","<div class = centerbox><div  id = stim2></div></div>","32","32","750","","test","go","338","random","","",""
"","-1","-1","1386","0","test_block","poldrack-single-stim","353","489900","0.0-5.0-339.0","go-nogo","true","0","","false","<div class = centerbox><div  id = stim2></div></div>","32","32","750","","test","go","339","random","","",""
"","-1","-1","1175","0","test_block","poldrack-single-stim","354","491128","0.0-5.0-340.0","go-nogo","true","0","","false","<div class = centerbox><div  id = stim2></div></div>","32","32","750","","test","go","340","random","","",""
"","-1","-1","1157","0","test_block","poldrack-single-stim","355","492348","0.0-5.0-341.0","go-nogo","true","0","","false","<div class = centerbox><div  id = stim2></div></div>","32","32","750","","test","go","341","random","","",""
"","-1","-1","1342","0","test_block","poldrack-single-stim","356","493749","0.0-5.0-342.0","go-nogo","true","0","","false","<div class = centerbox><div  id = stim2></div></div>","32","32","750","","test","go","342","random","","",""
"","-1","-1","1412","0","test_block","poldrack-single-stim","357","495223","0.0-5.0-343.0","go-nogo","true","0","","false","<div class = centerbox><div  id = stim2></div></div>","32","32","750","","test","go","343","random","","",""
"","-1","-1","1414","0","test_block","poldrack-single-stim","358","496702","0.0-5.0-344.0","go-nogo","true","0","","true","<div class = centerbox><div  id = stim1></div></div>","-1","32","750","","test","nogo","344","random","","",""
"","-1","-1","1092","0","test_block","poldrack-single-stim","359","497856","0.0-5.0-345.0","go-nogo","true","0","","false","<div class = centerbox><div  id = stim2></div></div>","32","32","750","","test","go","345","random","","",""
"","-1","-1","1009","0","test_block","poldrack-single-stim","360","498929","0.0-5.0-346.0","go-nogo","true","0","","false","<div class = centerbox><div  id = stim2></div></div>","32","32","750","","test","go","346","random","","",""
"","-1","-1","1179","0","test_block","poldrack-single-stim","361","500162","0.0-5.0-347.0","go-nogo","true","0","","false","<div class = centerbox><div  id = stim2></div></div>","32","32","750","","test","go","347","random","","",""
"","-1","-1","1404","0","test_block","poldrack-single-stim","362","501634","0.0-5.0-348.0","go-nogo","true","0","","false","<div class = centerbox><div  id = stim2></div></div>","32","32","750","","test","go","348","random","","",""
"","-1","-1","1003","0","test_block","poldrack-single-stim","363","502686","0.0-5.0-349.0","go-nogo","true","0","","false","<div class = centerbox><div  id = stim2></div></div>","32","32","750","","test","go","349","random","","",""
"","83381","","","","post task questions","survey-text","364","586137","0.0-7.0","go-nogo","true","0","","","","","","","","","","","","{""Q0"":""good"",""Q1"":""nice""}","",""
"<div class = centerbox><p class = center-block-text>Thanks for completing this task!</p><p class = center-block-text>Insert the following code to collect your payment at Amazon Mechanical Turk:</p><p class = center-block-text>583350317</p><p class = center-block-text>Press <strong>enter</strong> to continue.</p></div>","2913","13","2913","0","end","poldrack-text","365","590053","0.0-8.0","go-nogo","true","0","","","","","","","","","","","","","583350317","false"
