"text","rt","key_press","block_duration","timing_post_trial","trial_id","trial_type","trial_index","time_elapsed","internal_node_id","exp_id","full_screen","focus_shifts","view_history","correct","stimulus","correct_response","possible_responses","stim_duration","feedback_duration","exp_stage","condition","trial_num","mode","responses","payment_id","credit_var"
"<div class = centerbox><p class = center-block-text>Welcome to the experiment. This task will take around 10 minutes. Press <strong>enter</strong> to begin.</p></div>","17218","13","17218","0","instruction","poldrack-text","0","17220","0.0-0.0-0.0","go-nogo","false","2","","","","","","","","","","","","","",""
"","24807","","","","instruction","poldrack-instructions","1","42029","0.0-0.0-1.0","go-nogo","false","0","[{""page_index"":0,""viewing_time"":24805}]","","","","","","","","","","","","",""
"","-1","-1","1354","250","practice","poldrack-categorize","2","45402","0.0-1.0-0.0","go-nogo","false","0","","true","<div class = centerbox><div id = stim1></div></div>","-1","32","750","1000","practice","nogo","0","random","","",""
"","-1","-1","1152","250","practice","poldrack-categorize","3","47820","0.0-1.0-1.0","go-nogo","false","0","","true","<div class = centerbox><div id = stim1></div></div>","-1","32","750","1000","practice","nogo","1","random","","",""
"","911","32","1130","250","practice","poldrack-categorize","4","50212","0.0-1.0-2.0","go-nogo","false","0","","true","<div class = centerbox><div  id = stim2></div></div>","32","32","750","1000","practice","go","2","random","","",""
"","485","32","1206","250","practice","poldrack-categorize","5","52683","0.0-1.0-3.0","go-nogo","false","0","","true","<div class = centerbox><div  id = stim2></div></div>","32","32","750","1000","practice","go","3","random","","",""
"","-1","-1","1008","250","practice","poldrack-categorize","6","54952","0.0-1.0-4.0","go-nogo","false","0","","true","<div class = centerbox><div id = stim1></div></div>","-1","32","750","1000","practice","nogo","4","random","","",""
"","-1","-1","1058","250","practice","poldrack-categorize","7","57274","0.0-1.0-5.0","go-nogo","false","0","","true","<div class = centerbox><div id = stim1></div></div>","-1","32","750","1000","practice","nogo","5","random","","",""
"","360","32","1130","250","practice","poldrack-categorize","8","59668","0.0-1.0-6.0","go-nogo","false","0","","true","<div class = centerbox><div  id = stim2></div></div>","32","32","750","1000","practice","go","6","random","","",""
"","374","32","1058","250","practice","poldrack-categorize","9","61988","0.0-1.0-7.0","go-nogo","false","0","","true","<div class = centerbox><div  id = stim2></div></div>","32","32","750","1000","practice","go","7","random","","",""
"","-1","-1","1073","250","practice","poldrack-categorize","10","64321","0.0-1.0-8.0","go-nogo","false","0","","true","<div class = centerbox><div id = stim1></div></div>","-1","32","750","1000","practice","nogo","8","random","","",""
"","525","32","1315","250","practice","poldrack-categorize","11","66896","0.0-1.0-9.0","go-nogo","false","0","","true","<div class = centerbox><div  id = stim2></div></div>","32","32","750","1000","practice","go","9","random","","",""
"","","","","","reset_trial","call-function","12","67151","0.0-3.0","go-nogo","false","0","","","","","","","","","","","","","",""
"<div class = centerbox><p class = block-text>Practice is over, we will now begin the experiment. You will no longer get feedback about your responses.</p><p class = block-text>Remember, if you see the <font color=""blue"">blue</font> square you should <strong> respond by pressing the spacebar as quickly as possible</strong>. If you see the <font color=""orange"">orange</font> square you should <strong> not respond</strong>. Press <strong>enter</strong> to begin.</p></div>","2890","13","2890","1000","test_intro","poldrack-text","13","70043","0.0-4.0","go-nogo","false","0","","","","","","","","","","","","","",""
"","1026","32","1071","0","test_block","poldrack-single-stim","14","72124","0.0-5.0-0.0","go-nogo","false","0","","true","<div class = centerbox><div  id = stim2></div></div>","32","32","750","","test","go","0","random","","",""
"","-1","-1","1414","0","test_block","poldrack-single-stim","15","73738","0.0-5.0-1.0","go-nogo","false","0","","false","<div class = centerbox><div  id = stim2></div></div>","32","32","750","","test","go","1","random","","",""
"","416","32","1476","0","test_block","poldrack-single-stim","16","75300","0.0-5.0-2.0","go-nogo","false","0","","true","<div class = centerbox><div  id = stim2></div></div>","32","32","750","","test","go","2","random","","",""
"","637","32","1437","0","test_block","poldrack-single-stim","17","76822","0.0-5.0-3.0","go-nogo","false","0","","true","<div class = centerbox><div  id = stim2></div></div>","32","32","750","","test","go","3","random","","",""
"","-1","-1","1418","0","test_block","poldrack-single-stim","18","78325","0.0-5.0-4.0","go-nogo","false","0","","true","<div class = centerbox><div  id = stim1></div></div>","-1","32","750","","test","nogo","4","random","","",""
"","-1","-1","1295","0","test_block","poldrack-single-stim","19","79723","0.0-5.0-5.0","go-nogo","false","1","","false","<div class = centerbox><div  id = stim2></div></div>","32","32","750","","test","go","5","random","","",""
"","-1","-1","1161","0","test_block","poldrack-single-stim","20","80973","0.0-5.0-6.0","go-nogo","false","0","","false","<div class = centerbox><div  id = stim2></div></div>","32","32","750","","test","go","6","random","","",""
"","-1","-1","1310","0","test_block","poldrack-single-stim","21","82320","0.0-5.0-7.0","go-nogo","false","0","","true","<div class = centerbox><div  id = stim1></div></div>","-1","32","750","","test","nogo","7","random","","",""
"","-1","-1","1273","0","test_block","poldrack-single-stim","22","83623","0.0-5.0-8.0","go-nogo","false","0","","false","<div class = centerbox><div  id = stim2></div></div>","32","32","750","","test","go","8","random","","",""
"","-1","-1","1393","0","test_block","poldrack-single-stim","23","85051","0.0-5.0-9.0","go-nogo","false","0","","false","<div class = centerbox><div  id = stim2></div></div>","32","32","750","","test","go","9","random","","",""
"","-1","-1","1136","0","test_block","poldrack-single-stim","24","86225","0.0-5.0-10.0","go-nogo","false","0","","false","<div class = centerbox><div  id = stim2></div></div>","32","32","750","","test","go","10","random","","",""
"","-1","-1","1453","0","test_block","poldrack-single-stim","25","87701","0.0-5.0-11.0","go-nogo","false","0","","false","<div class = centerbox><div  id = stim2></div></div>","32","32","750","","test","go","11","random","","",""
"","-1","-1","1421","0","test_block","poldrack-single-stim","26","89150","0.0-5.0-12.0","go-nogo","false","0","","false","<div class = centerbox><div  id = stim2></div></div>","32","32","750","","test","go","12","random","","",""
"","-1","-1","1486","0","test_block","poldrack-single-stim","27","90656","0.0-5.0-13.0","go-nogo","false","0","","false","<div class = centerbox><div  id = stim2></div></div>","32","32","750","","test","go","13","random","","",""
"","-1","-1","1492","0","test_block","poldrack-single-stim","28","92182","0.0-5.0-14.0","go-nogo","false","0","","false","<div class = centerbox><div  id = stim2></div></div>","32","32","750","","test","go","14","random","","",""
"","-1","-1","1311","0","test_block","poldrack-single-stim","29","93524","0.0-5.0-15.0","go-nogo","false","0","","true","<div class = centerbox><div  id = stim1></div></div>","-1","32","750","","test","nogo","15","random","","",""
"","-1","-1","1147","0","test_block","poldrack-single-stim","30","94748","0.0-5.0-16.0","go-nogo","false","0","","false","<div class = centerbox><div  id = stim2></div></div>","32","32","750","","test","go","16","random","","",""
"","-1","-1","1179","0","test_block","poldrack-single-stim","31","95960","0.0-5.0-17.0","go-nogo","false","0","","false","<div class = centerbox><div  id = stim2></div></div>","32","32","750","","test","go","17","random","","",""
"","-1","-1","1393","0","test_block","poldrack-single-stim","32","97377","0.0-5.0-18.0","go-nogo","false","0","","false","<div class = centerbox><div  id = stim2></div></div>","32","32","750","","test","go","18","random","","",""
"","-1","-1","1277","0","test_block","poldrack-single-stim","33","98680","0.0-5.0-19.0","go-nogo","false","0","","true","<div class = centerbox><div  id = stim1></div></div>","-1","32","750","","test","nogo","19","random","","",""
"","-1","-1","1198","0","test_block","poldrack-single-stim","34","99937","0.0-5.0-20.0","go-nogo","false","0","","false","<div class = centerbox><div  id = stim2></div></div>","32","32","750","","test","go","20","random","","",""
"","-1","-1","1087","0","test_block","poldrack-single-stim","35","101049","0.0-5.0-21.0","go-nogo","false","0","","true","<div class = centerbox><div  id = stim1></div></div>","-1","32","750","","test","nogo","21","random","","",""
"","-1","-1","1434","0","test_block","poldrack-single-stim","36","102518","0.0-5.0-22.0","go-nogo","false","0","","false","<div class = centerbox><div  id = stim2></div></div>","32","32","750","","test","go","22","random","","",""
"","-1","-1","1260","0","test_block","poldrack-single-stim","37","103799","0.0-5.0-23.0","go-nogo","false","0","","true","<div class = centerbox><div  id = stim1></div></div>","-1","32","750","","test","nogo","23","random","","",""
"","-1","-1","1441","0","test_block","poldrack-single-stim","38","105307","0.0-5.0-24.0","go-nogo","false","0","","false","<div class = centerbox><div  id = stim2></div></div>","32","32","750","","test","go","24","random","","",""
"","-1","-1","1484","0","test_block","poldrack-single-stim","39","106823","0.0-5.0-25.0","go-nogo","false","0","","false","<div class = centerbox><div  id = stim2></div></div>","32","32","750","","test","go","25","random","","",""
"","-1","-1","1192","0","test_block","poldrack-single-stim","40","108040","0.0-5.0-26.0","go-nogo","false","0","","false","<div class = centerbox><div  id = stim2></div></div>","32","32","750","","test","go","26","random","","",""
"","-1","-1","1392","0","test_block","poldrack-single-stim","41","109461","0.0-5.0-27.0","go-nogo","false","0","","false","<div class = centerbox><div  id = stim2></div></div>","32","32","750","","test","go","27","random","","",""
"","-1","-1","1240","0","test_block","poldrack-single-stim","42","110724","0.0-5.0-28.0","go-nogo","false","0","","false","<div class = centerbox><div  id = stim2></div></div>","32","32","750","","test","go","28","random","","",""
"","-1","-1","1080","0","test_block","poldrack-single-stim","43","111826","0.0-5.0-29.0","go-nogo","false","0","","false","<div class = centerbox><div  id = stim2></div></div>","32","32","750","","test","go","29","random","","",""
"","-1","-1","1349","0","test_block","poldrack-single-stim","44","113198","0.0-5.0-30.0","go-nogo","false","0","","false","<div class = centerbox><div  id = stim2></div></div>","32","32","750","","test","go","30","random","","",""
"","-1","-1","1318","0","test_block","poldrack-single-stim","45","114537","0.0-5.0-31.0","go-nogo","false","0","","false","<div class = centerbox><div  id = stim2></div></div>","32","32","750","","test","go","31","random","","",""
"","-1","-1","1482","0","test_block","poldrack-single-stim","46","116043","0.0-5.0-32.0","go-nogo","false","0","","false","<div class = centerbox><div  id = stim2></div></div>","32","32","750","","test","go","32","random","","",""
"","-1","-1","1448","0","test_block","poldrack-single-stim","47","117513","0.0-5.0-33.0","go-nogo","false","0","","false","<div class = centerbox><div  id = stim2></div></div>","32","32","750","","test","go","33","random","","",""
"","-1","-1","1096","0","test_block","poldrack-single-stim","48","118627","0.0-5.0-34.0","go-nogo","false","0","","false","<div class = centerbox><div  id = stim2></div></div>","32","32","750","","test","go","34","random","","",""
"","-1","-1","1304","0","test_block","poldrack-single-stim","49","119956","0.0-5.0-35.0","go-nogo","false","0","","false","<div class = centerbox><div  id = stim2></div></div>","32","32","750","","test","go","35","random","","",""
"","-1","-1","1359","0","test_block","poldrack-single-stim","50","121337","0.0-5.0-36.0","go-nogo","false","0","","false","<div class = centerbox><div  id = stim2></div></div>","32","32","750","","test","go","36","random","","",""
"","-1","-1","1446","0","test_block","poldrack-single-stim","51","122807","0.0-5.0-37.0","go-nogo","false","0","","false","<div class = centerbox><div  id = stim2></div></div>","32","32","750","","test","go","37","random","","",""
"","-1","-1","1494","0","test_block","poldrack-single-stim","52","124327","0.0-5.0-38.0","go-nogo","false","0","","false","<div class = centerbox><div  id = stim2></div></div>","32","32","750","","test","go","38","random","","",""
"","-1","-1","1490","0","test_block","poldrack-single-stim","53","125839","0.0-5.0-39.0","go-nogo","false","0","","false","<div class = centerbox><div  id = stim2></div></div>","32","32","750","","test","go","39","random","","",""
"","-1","-1","1328","0","test_block","poldrack-single-stim","54","127192","0.0-5.0-40.0","go-nogo","false","0","","false","<div class = centerbox><div  id = stim2></div></div>","32","32","750","","test","go","40","random","","",""
"","-1","-1","1048","0","test_block","poldrack-single-stim","55","128260","0.0-5.0-41.0","go-nogo","false","0","","false","<div class = centerbox><div  id = stim2></div></div>","32","32","750","","test","go","41","random","","",""
"","-1","-1","1135","0","test_block","poldrack-single-stim","56","129420","0.0-5.0-42.0","go-nogo","false","0","","false","<div class = centerbox><div  id = stim2></div></div>","32","32","750","","test","go","42","random","","",""
"","-1","-1","1376","0","test_block","poldrack-single-stim","57","130824","0.0-5.0-43.0","go-nogo","false","0","","false","<div class = centerbox><div  id = stim2></div></div>","32","32","750","","test","go","43","random","","",""
"","-1","-1","1071","0","test_block","poldrack-single-stim","58","131921","0.0-5.0-44.0","go-nogo","false","0","","false","<div class = centerbox><div  id = stim2></div></div>","32","32","750","","test","go","44","random","","",""
"","-1","-1","1185","0","test_block","poldrack-single-stim","59","133136","0.0-5.0-45.0","go-nogo","false","0","","false","<div class = centerbox><div  id = stim2></div></div>","32","32","750","","test","go","45","random","","",""
"","-1","-1","1080","0","test_block","poldrack-single-stim","60","134242","0.0-5.0-46.0","go-nogo","false","0","","false","<div class = centerbox><div  id = stim2></div></div>","32","32","750","","test","go","46","random","","",""
"","-1","-1","1283","0","test_block","poldrack-single-stim","61","135545","0.0-5.0-47.0","go-nogo","false","0","","false","<div class = centerbox><div  id = stim2></div></div>","32","32","750","","test","go","47","random","","",""
"","-1","-1","1033","0","test_block","poldrack-single-stim","62","136601","0.0-5.0-48.0","go-nogo","false","0","","false","<div class = centerbox><div  id = stim2></div></div>","32","32","750","","test","go","48","random","","",""
"","-1","-1","1442","0","test_block","poldrack-single-stim","63","138063","0.0-5.0-49.0","go-nogo","false","0","","true","<div class = centerbox><div  id = stim1></div></div>","-1","32","750","","test","nogo","49","random","","",""
"","-1","-1","1414","0","test_block","poldrack-single-stim","64","139507","0.0-5.0-50.0","go-nogo","false","0","","false","<div class = centerbox><div  id = stim2></div></div>","32","32","750","","test","go","50","random","","",""
"","-1","-1","1027","0","test_block","poldrack-single-stim","65","140593","0.0-5.0-51.0","go-nogo","false","0","","false","<div class = centerbox><div  id = stim2></div></div>","32","32","750","","test","go","51","random","","",""
"","-1","-1","1341","0","test_block","poldrack-single-stim","66","141966","0.0-5.0-52.0","go-nogo","false","0","","true","<div class = centerbox><div  id = stim1></div></div>","-1","32","750","","test","nogo","52","random","","",""
"","-1","-1","1276","0","test_block","poldrack-single-stim","67","143270","0.0-5.0-53.0","go-nogo","false","0","","false","<div class = centerbox><div  id = stim2></div></div>","32","32","750","","test","go","53","random","","",""
"","-1","-1","1437","0","test_block","poldrack-single-stim","68","144759","0.0-5.0-54.0","go-nogo","false","0","","false","<div class = centerbox><div  id = stim2></div></div>","32","32","750","","test","go","54","random","","",""
"","-1","-1","1335","0","test_block","poldrack-single-stim","69","146123","0.0-5.0-55.0","go-nogo","false","0","","false","<div class = centerbox><div  id = stim2></div></div>","32","32","750","","test","go","55","random","","",""
"","-1","-1","1043","0","test_block","poldrack-single-stim","70","147197","0.0-5.0-56.0","go-nogo","false","0","","false","<div class = centerbox><div  id = stim2></div></div>","32","32","750","","test","go","56","random","","",""
"","-1","-1","1146","0","test_block","poldrack-single-stim","71","148376","0.0-5.0-57.0","go-nogo","false","0","","false","<div class = centerbox><div  id = stim2></div></div>","32","32","750","","test","go","57","random","","",""
"","-1","-1","1167","0","test_block","poldrack-single-stim","72","149570","0.0-5.0-58.0","go-nogo","false","0","","false","<div class = centerbox><div  id = stim2></div></div>","32","32","750","","test","go","58","random","","",""
"","-1","-1","1140","0","test_block","poldrack-single-stim","73","150735","0.0-5.0-59.0","go-nogo","false","0","","false","<div class = centerbox><div  id = stim2></div></div>","32","32","750","","test","go","59","random","","",""
"","-1","-1","1031","0","test_block","poldrack-single-stim","74","151796","0.0-5.0-60.0","go-nogo","false","0","","false","<div class = centerbox><div  id = stim2></div></div>","32","32","750","","test","go","60","random","","",""
"","-1","-1","1193","0","test_block","poldrack-single-stim","75","153011","0.0-5.0-61.0","go-nogo","false","0","","false","<div class = centerbox><div  id = stim2></div></div>","32","32","750","","test","go","61","random","","",""
"","-1","-1","1430","0","test_block","poldrack-single-stim","76","154464","0.0-5.0-62.0","go-nogo","false","0","","false","<div class = centerbox><div  id = stim2></div></div>","32","32","750","","test","go","62","random","","",""
"","-1","-1","1340","0","test_block","poldrack-single-stim","77","155829","0.0-5.0-63.0","go-nogo","false","0","","true","<div class = centerbox><div  id = stim1></div></div>","-1","32","750","","test","nogo","63","random","","",""
"","-1","-1","1229","0","test_block","poldrack-single-stim","78","157082","0.0-5.0-64.0","go-nogo","false","0","","false","<div class = centerbox><div  id = stim2></div></div>","32","32","750","","test","go","64","random","","",""
"","-1","-1","1056","0","test_block","poldrack-single-stim","79","158155","0.0-5.0-65.0","go-nogo","false","0","","false","<div class = centerbox><div  id = stim2></div></div>","32","32","750","","test","go","65","random","","",""
"","-1","-1","1215","0","test_block","poldrack-single-stim","80","159393","0.0-5.0-66.0","go-nogo","false","0","","false","<div class = centerbox><div  id = stim2></div></div>","32","32","750","","test","go","66","random","","",""
"","-1","-1","1361","0","test_block","poldrack-single-stim","81","160782","0.0-5.0-67.0","go-nogo","false","0","","true","<div class = centerbox><div  id = stim1></div></div>","-1","32","750","","test","nogo","67","random","","",""
"","-1","-1","1007","0","test_block","poldrack-single-stim","82","161810","0.0-5.0-68.0","go-nogo","false","0","","true","<div class = centerbox><div  id = stim1></div></div>","-1","32","750","","test","nogo","68","random","","",""
"","-1","-1","1159","0","test_block","poldrack-single-stim","83","162996","0.0-5.0-69.0","go-nogo","false","0","","false","<div class = centerbox><div  id = stim2></div></div>","32","32","750","","test","go","69","random","","",""
"","-1","-1","1424","0","test_block","poldrack-single-stim","84","164443","0.0-5.0-70.0","go-nogo","false","0","","false","<div class = centerbox><div  id = stim2></div></div>","32","32","750","","test","go","70","random","","",""
"","-1","-1","1463","0","test_block","poldrack-single-stim","85","165924","0.0-5.0-71.0","go-nogo","false","0","","false","<div class = centerbox><div  id = stim2></div></div>","32","32","750","","test","go","71","random","","",""
"","-1","-1","1064","0","test_block","poldrack-single-stim","86","167011","0.0-5.0-72.0","go-nogo","false","0","","false","<div class = centerbox><div  id = stim2></div></div>","32","32","750","","test","go","72","random","","",""
"","-1","-1","1460","0","test_block","poldrack-single-stim","87","168497","0.0-5.0-73.0","go-nogo","false","0","","false","<div class = centerbox><div  id = stim2></div></div>","32","32","750","","test","go","73","random","","",""
"","-1","-1","1152","0","test_block","poldrack-single-stim","88","169672","0.0-5.0-74.0","go-nogo","false","0","","false","<div class = centerbox><div  id = stim2></div></div>","32","32","750","","test","go","74","random","","",""
"","-1","-1","1111","0","test_block","poldrack-single-stim","89","170806","0.0-5.0-75.0","go-nogo","false","0","","false","<div class = centerbox><div  id = stim2></div></div>","32","32","750","","test","go","75","random","","",""
"","-1","-1","1362","0","test_block","poldrack-single-stim","90","172192","0.0-5.0-76.0","go-nogo","false","0","","false","<div class = centerbox><div  id = stim2></div></div>","32","32","750","","test","go","76","random","","",""
"","-1","-1","1263","0","test_block","poldrack-single-stim","91","173477","0.0-5.0-77.0","go-nogo","false","0","","false","<div class = centerbox><div  id = stim2></div></div>","32","32","750","","test","go","77","random","","",""
"","-1","-1","1132","0","test_block","poldrack-single-stim","92","174636","0.0-5.0-78.0","go-nogo","false","0","","false","<div class = centerbox><div  id = stim2></div></div>","32","32","750","","test","go","78","random","","",""
"","-1","-1","1023","0","test_block","poldrack-single-stim","93","175680","0.0-5.0-79.0","go-nogo","false","0","","false","<div class = centerbox><div  id = stim2></div></div>","32","32","750","","test","go","79","random","","",""
"","-1","-1","1309","0","test_block","poldrack-single-stim","94","177015","0.0-5.0-80.0","go-nogo","false","0","","false","<div class = centerbox><div  id = stim2></div></div>","32","32","750","","test","go","80","random","","",""
"","-1","-1","1291","0","test_block","poldrack-single-stim","95","178328","0.0-5.0-81.0","go-nogo","false","0","","false","<div class = centerbox><div  id = stim2></div></div>","32","32","750","","test","go","81","random","","",""
"","-1","-1","1011","0","test_block","poldrack-single-stim","96","179364","0.0-5.0-82.0","go-nogo","false","0","","false","<div class = centerbox><div  id = stim2></div></div>","32","32","750","","test","go","82","random","","",""
"","-1","-1","1013","0","test_block","poldrack-single-stim","97","180412","0.0-5.0-83.0","go-nogo","false","0","","false","<div class = centerbox><div  id = stim2></div></div>","32","32","750","","test","go","83","random","","",""
"","-1","-1","1340","0","test_block","poldrack-single-stim","98","181778","0.0-5.0-84.0","go-nogo","false","0","","false","<div class = centerbox><div  id = stim2></div></div>","32","32","750","","test","go","84","random","","",""
"","-1","-1","1084","0","test_block","poldrack-single-stim","99","182886","0.0-5.0-85.0","go-nogo","false","0","","false","<div class = centerbox><div  id = stim2></div></div>","32","32","750","","test","go","85","random","","",""
"","-1","-1","1473","0","test_block","poldrack-single-stim","100","184385","0.0-5.0-86.0","go-nogo","false","0","","false","<div class = centerbox><div  id = stim2></div></div>","32","32","750","","test","go","86","random","","",""
"","-1","-1","1117","0","test_block","poldrack-single-stim","101","185526","0.0-5.0-87.0","go-nogo","false","0","","false","<div class = centerbox><div  id = stim2></div></div>","32","32","750","","test","go","87","random","","",""
"","-1","-1","1359","0","test_block","poldrack-single-stim","102","186907","0.0-5.0-88.0","go-nogo","false","0","","false","<div class = centerbox><div  id = stim2></div></div>","32","32","750","","test","go","88","random","","",""
"","-1","-1","1115","0","test_block","poldrack-single-stim","103","188045","0.0-5.0-89.0","go-nogo","false","0","","false","<div class = centerbox><div  id = stim2></div></div>","32","32","750","","test","go","89","random","","",""
"","-1","-1","1219","0","test_block","poldrack-single-stim","104","189285","0.0-5.0-90.0","go-nogo","false","0","","false","<div class = centerbox><div  id = stim2></div></div>","32","32","750","","test","go","90","random","","",""
"","-1","-1","1363","0","test_block","poldrack-single-stim","105","190679","0.0-5.0-91.0","go-nogo","false","0","","false","<div class = centerbox><div  id = stim2></div></div>","32","32","750","","test","go","91","random","","",""
"","-1","-1","1136","0","test_block","poldrack-single-stim","106","191836","0.0-5.0-92.0","go-nogo","false","0","","true","<div class = centerbox><div  id = stim1></div></div>","-1","32","750","","test","nogo","92","random","","",""
"","-1","-1","1372","0","test_block","poldrack-single-stim","107","193245","0.0-5.0-93.0","go-nogo","false","0","","false","<div class = centerbox><div  id = stim2></div></div>","32","32","750","","test","go","93","random","","",""
"","-1","-1","1175","0","test_block","poldrack-single-stim","108","194442","0.0-5.0-94.0","go-nogo","false","0","","false","<div class = centerbox><div  id = stim2></div></div>","32","32","750","","test","go","94","random","","",""
"","-1","-1","1105","0","test_block","poldrack-single-stim","109","195575","0.0-5.0-95.0","go-nogo","false","0","","false","<div class = centerbox><div  id = stim2></div></div>","32","32","750","","test","go","95","random","","",""
"","-1","-1","1390","0","test_block","poldrack-single-stim","110","196990","0.0-5.0-96.0","go-nogo","false","0","","false","<div class = centerbox><div  id = stim2></div></div>","32","32","750","","test","go","96","random","","",""
"","-1","-1","1078","0","test_block","poldrack-single-stim","111","198092","0.0-5.0-97.0","go-nogo","false","0","","false","<div class = centerbox><div  id = stim2></div></div>","32","32","750","","test","go","97","random","","",""
"","-1","-1","1079","0","test_block","poldrack-single-stim","112","199197","0.0-5.0-98.0","go-nogo","false","0","","false","<div class = centerbox><div  id = stim2></div></div>","32","32","750","","test","go","98","random","","",""
"","-1","-1","1072","0","test_block","poldrack-single-stim","113","200296","0.0-5.0-99.0","go-nogo","false","0","","false","<div class = centerbox><div  id = stim2></div></div>","32","32","750","","test","go","99","random","","",""
"","-1","-1","1040","0","test_block","poldrack-single-stim","114","201361","0.0-5.0-100.0","go-nogo","false","0","","false","<div class = centerbox><div  id = stim2></div></div>","32","32","750","","test","go","100","random","","",""
"","-1","-1","1134","0","test_block","poldrack-single-stim","115","202525","0.0-5.0-101.0","go-nogo","false","0","","false","<div class = centerbox><div  id = stim2></div></div>","32","32","750","","test","go","101","random","","",""
"","-1","-1","1148","0","test_block","poldrack-single-stim","116","203696","0.0-5.0-102.0","go-nogo","false","0","","false","<div class = centerbox><div  id = stim2></div></div>","32","32","750","","test","go","102","random","","",""
"","-1","-1","1188","0","test_block","poldrack-single-stim","117","204906","0.0-5.0-103.0","go-nogo","false","0","","true","<div class = centerbox><div  id = stim1></div></div>","-1","32","750","","test","nogo","103","random","","",""
"","-1","-1","1169","0","test_block","poldrack-single-stim","118","206094","0.0-5.0-104.0","go-nogo","false","0","","false","<div class = centerbox><div  id = stim2></div></div>","32","32","750","","test","go","104","random","","",""
"","-1","-1","1066","0","test_block","poldrack-single-stim","119","207186","0.0-5.0-105.0","go-nogo","false","0","","false","<div class = centerbox><div  id = stim2></div></div>","32","32","750","","test","go","105","random","","",""
"","-1","-1","1407","0","test_block","poldrack-single-stim","120","208614","0.0-5.0-106.0","go-nogo","false","0","","false","<div class = centerbox><div  id = stim2></div></div>","32","32","750","","test","go","106","random","","",""
"","-1","-1","1165","0","test_block","poldrack-single-stim","121","209800","0.0-5.0-107.0","go-nogo","false","0","","false","<div class = centerbox><div  id = stim2></div></div>","32","32","750","","test","go","107","random","","",""
"","-1","-1","1268","0","test_block","poldrack-single-stim","122","211092","0.0-5.0-108.0","go-nogo","false","0","","false","<div class = centerbox><div  id = stim2></div></div>","32","32","750","","test","go","108","random","","",""
"","-1","-1","1473","0","test_block","poldrack-single-stim","123","212611","0.0-5.0-109.0","go-nogo","false","0","","false","<div class = centerbox><div  id = stim2></div></div>","32","32","750","","test","go","109","random","","",""
"","-1","-1","1204","0","test_block","poldrack-single-stim","124","213836","0.0-5.0-110.0","go-nogo","false","0","","false","<div class = centerbox><div  id = stim2></div></div>","32","32","750","","test","go","110","random","","",""
"","-1","-1","1197","0","test_block","poldrack-single-stim","125","215058","0.0-5.0-111.0","go-nogo","false","0","","false","<div class = centerbox><div  id = stim2></div></div>","32","32","750","","test","go","111","random","","",""
"","-1","-1","1259","0","test_block","poldrack-single-stim","126","216337","0.0-5.0-112.0","go-nogo","false","0","","false","<div class = centerbox><div  id = stim2></div></div>","32","32","750","","test","go","112","random","","",""
"","-1","-1","1024","0","test_block","poldrack-single-stim","127","217381","0.0-5.0-113.0","go-nogo","false","0","","false","<div class = centerbox><div  id = stim2></div></div>","32","32","750","","test","go","113","random","","",""
"","-1","-1","1242","0","test_block","poldrack-single-stim","128","218652","0.0-5.0-114.0","go-nogo","false","0","","false","<div class = centerbox><div  id = stim2></div></div>","32","32","750","","test","go","114","random","","",""
"","-1","-1","1229","0","test_block","poldrack-single-stim","129","219907","0.0-5.0-115.0","go-nogo","false","0","","false","<div class = centerbox><div  id = stim2></div></div>","32","32","750","","test","go","115","random","","",""
"","-1","-1","1082","0","test_block","poldrack-single-stim","130","221015","0.0-5.0-116.0","go-nogo","false","0","","false","<div class = centerbox><div  id = stim2></div></div>","32","32","750","","test","go","116","random","","",""
"","-1","-1","1396","0","test_block","poldrack-single-stim","131","222431","0.0-5.0-117.0","go-nogo","false","0","","false","<div class = centerbox><div  id = stim2></div></div>","32","32","750","","test","go","117","random","","",""
"","-1","-1","1284","0","test_block","poldrack-single-stim","132","223748","0.0-5.0-118.0","go-nogo","false","0","","false","<div class = centerbox><div  id = stim2></div></div>","32","32","750","","test","go","118","random","","",""
"","-1","-1","1180","0","test_block","poldrack-single-stim","133","224949","0.0-5.0-119.0","go-nogo","false","0","","false","<div class = centerbox><div  id = stim2></div></div>","32","32","750","","test","go","119","random","","",""
"","-1","-1","1164","0","test_block","poldrack-single-stim","134","226132","0.0-5.0-120.0","go-nogo","false","0","","false","<div class = centerbox><div  id = stim2></div></div>","32","32","750","","test","go","120","random","","",""
"","-1","-1","1338","0","test_block","poldrack-single-stim","135","227495","0.0-5.0-121.0","go-nogo","false","0","","false","<div class = centerbox><div  id = stim2></div></div>","32","32","750","","test","go","121","random","","",""
"","-1","-1","1185","0","test_block","poldrack-single-stim","136","228706","0.0-5.0-122.0","go-nogo","false","0","","false","<div class = centerbox><div  id = stim2></div></div>","32","32","750","","test","go","122","random","","",""
"","-1","-1","1226","0","test_block","poldrack-single-stim","137","229953","0.0-5.0-123.0","go-nogo","false","0","","false","<div class = centerbox><div  id = stim2></div></div>","32","32","750","","test","go","123","random","","",""
"","-1","-1","1103","0","test_block","poldrack-single-stim","138","231079","0.0-5.0-124.0","go-nogo","false","0","","false","<div class = centerbox><div  id = stim2></div></div>","32","32","750","","test","go","124","random","","",""
"","-1","-1","1008","0","test_block","poldrack-single-stim","139","232109","0.0-5.0-125.0","go-nogo","false","0","","false","<div class = centerbox><div  id = stim2></div></div>","32","32","750","","test","go","125","random","","",""
"","-1","-1","1072","0","test_block","poldrack-single-stim","140","233203","0.0-5.0-126.0","go-nogo","false","0","","false","<div class = centerbox><div  id = stim2></div></div>","32","32","750","","test","go","126","random","","",""
"","-1","-1","1077","0","test_block","poldrack-single-stim","141","234312","0.0-5.0-127.0","go-nogo","false","0","","false","<div class = centerbox><div  id = stim2></div></div>","32","32","750","","test","go","127","random","","",""
"","-1","-1","1341","0","test_block","poldrack-single-stim","142","235675","0.0-5.0-128.0","go-nogo","false","0","","true","<div class = centerbox><div  id = stim1></div></div>","-1","32","750","","test","nogo","128","random","","",""
"","-1","-1","1239","0","test_block","poldrack-single-stim","143","236935","0.0-5.0-129.0","go-nogo","false","0","","false","<div class = centerbox><div  id = stim2></div></div>","32","32","750","","test","go","129","random","","",""
"","-1","-1","1250","0","test_block","poldrack-single-stim","144","238209","0.0-5.0-130.0","go-nogo","false","0","","false","<div class = centerbox><div  id = stim2></div></div>","32","32","750","","test","go","130","random","","",""
"","-1","-1","1192","0","test_block","poldrack-single-stim","145","239420","0.0-5.0-131.0","go-nogo","false","0","","false","<div class = centerbox><div  id = stim2></div></div>","32","32","750","","test","go","131","random","","",""
"","-1","-1","1167","0","test_block","poldrack-single-stim","146","240613","0.0-5.0-132.0","go-nogo","false","0","","true","<div class = centerbox><div  id = stim1></div></div>","-1","32","750","","test","nogo","132","random","","",""
"","-1","-1","1097","0","test_block","poldrack-single-stim","147","241727","0.0-5.0-133.0","go-nogo","false","0","","false","<div class = centerbox><div  id = stim2></div></div>","32","32","750","","test","go","133","random","","",""
"","-1","-1","1394","0","test_block","poldrack-single-stim","148","243159","0.0-5.0-134.0","go-nogo","false","0","","false","<div class = centerbox><div  id = stim2></div></div>","32","32","750","","test","go","134","random","","",""
"","-1","-1","1000","0","test_block","poldrack-single-stim","149","244181","0.0-5.0-135.0","go-nogo","false","0","","true","<div class = centerbox><div  id = stim1></div></div>","-1","32","750","","test","nogo","135","random","","",""
"","-1","-1","1213","0","test_block","poldrack-single-stim","150","245414","0.0-5.0-136.0","go-nogo","false","0","","false","<div class = centerbox><div  id = stim2></div></div>","32","32","750","","test","go","136","random","","",""
"","-1","-1","1201","0","test_block","poldrack-single-stim","151","246636","0.0-5.0-137.0","go-nogo","false","0","","false","<div class = centerbox><div  id = stim2></div></div>","32","32","750","","test","go","137","random","","",""
"","-1","-1","1445","0","test_block","poldrack-single-stim","152","248104","0.0-5.0-138.0","go-nogo","false","0","","false","<div class = centerbox><div  id = stim2></div></div>","32","32","750","","test","go","138","random","","",""
"","-1","-1","1269","0","test_block","poldrack-single-stim","153","249392","0.0-5.0-139.0","go-nogo","false","0","","false","<div class = centerbox><div  id = stim2></div></div>","32","32","750","","test","go","139","random","","",""
"","-1","-1","1301","0","test_block","poldrack-single-stim","154","250711","0.0-5.0-140.0","go-nogo","false","0","","false","<div class = centerbox><div  id = stim2></div></div>","32","32","750","","test","go","140","random","","",""
"","-1","-1","1219","0","test_block","poldrack-single-stim","155","251951","0.0-5.0-141.0","go-nogo","false","0","","false","<div class = centerbox><div  id = stim2></div></div>","32","32","750","","test","go","141","random","","",""
"","-1","-1","1441","0","test_block","poldrack-single-stim","156","253410","0.0-5.0-142.0","go-nogo","false","0","","false","<div class = centerbox><div  id = stim2></div></div>","32","32","750","","test","go","142","random","","",""
"","-1","-1","1102","0","test_block","poldrack-single-stim","157","254535","0.0-5.0-143.0","go-nogo","false","0","","true","<div class = centerbox><div  id = stim1></div></div>","-1","32","750","","test","nogo","143","random","","",""
"","-1","-1","1187","0","test_block","poldrack-single-stim","158","255745","0.0-5.0-144.0","go-nogo","false","0","","false","<div class = centerbox><div  id = stim2></div></div>","32","32","750","","test","go","144","random","","",""
"","-1","-1","1149","0","test_block","poldrack-single-stim","159","256914","0.0-5.0-145.0","go-nogo","false","0","","false","<div class = centerbox><div  id = stim2></div></div>","32","32","750","","test","go","145","random","","",""
"","-1","-1","1276","0","test_block","poldrack-single-stim","160","258215","0.0-5.0-146.0","go-nogo","false","0","","false","<div class = centerbox><div  id = stim2></div></div>","32","32","750","","test","go","146","random","","",""
"","-1","-1","1446","0","test_block","poldrack-single-stim","161","259680","0.0-5.0-147.0","go-nogo","false","0","","false","<div class = centerbox><div  id = stim2></div></div>","32","32","750","","test","go","147","random","","",""
"","-1","-1","1205","0","test_block","poldrack-single-stim","162","260904","0.0-5.0-148.0","go-nogo","false","0","","false","<div class = centerbox><div  id = stim2></div></div>","32","32","750","","test","go","148","random","","",""
"","-1","-1","1039","0","test_block","poldrack-single-stim","163","261977","0.0-5.0-149.0","go-nogo","false","0","","false","<div class = centerbox><div  id = stim2></div></div>","32","32","750","","test","go","149","random","","",""
"","-1","-1","1052","0","test_block","poldrack-single-stim","164","263063","0.0-5.0-150.0","go-nogo","false","0","","false","<div class = centerbox><div  id = stim2></div></div>","32","32","750","","test","go","150","random","","",""
"","-1","-1","1082","0","test_block","poldrack-single-stim","165","264163","0.0-5.0-151.0","go-nogo","false","0","","false","<div class = centerbox><div  id = stim2></div></div>","32","32","750","","test","go","151","random","","",""
"","-1","-1","1379","0","test_block","poldrack-single-stim","166","265560","0.0-5.0-152.0","go-nogo","false","0","","false","<div class = centerbox><div  id = stim2></div></div>","32","32","750","","test","go","152","random","","",""
"","-1","-1","1306","0","test_block","poldrack-single-stim","167","266894","0.0-5.0-153.0","go-nogo","false","0","","false","<div class = centerbox><div  id = stim2></div></div>","32","32","750","","test","go","153","random","","",""
"","-1","-1","1020","0","test_block","poldrack-single-stim","168","267935","0.0-5.0-154.0","go-nogo","false","0","","false","<div class = centerbox><div  id = stim2></div></div>","32","32","750","","test","go","154","random","","",""
"","-1","-1","1224","0","test_block","poldrack-single-stim","169","269181","0.0-5.0-155.0","go-nogo","false","0","","false","<div class = centerbox><div  id = stim2></div></div>","32","32","750","","test","go","155","random","","",""
"","-1","-1","1335","0","test_block","poldrack-single-stim","170","270536","0.0-5.0-156.0","go-nogo","false","0","","false","<div class = centerbox><div  id = stim2></div></div>","32","32","750","","test","go","156","random","","",""
"","-1","-1","1297","0","test_block","poldrack-single-stim","171","271856","0.0-5.0-157.0","go-nogo","false","0","","false","<div class = centerbox><div  id = stim2></div></div>","32","32","750","","test","go","157","random","","",""
"","-1","-1","1087","0","test_block","poldrack-single-stim","172","272971","0.0-5.0-158.0","go-nogo","false","0","","false","<div class = centerbox><div  id = stim2></div></div>","32","32","750","","test","go","158","random","","",""
"","-1","-1","1115","0","test_block","poldrack-single-stim","173","274107","0.0-5.0-159.0","go-nogo","false","0","","false","<div class = centerbox><div  id = stim2></div></div>","32","32","750","","test","go","159","random","","",""
"","-1","-1","1417","0","test_block","poldrack-single-stim","174","275549","0.0-5.0-160.0","go-nogo","false","0","","false","<div class = centerbox><div  id = stim2></div></div>","32","32","750","","test","go","160","random","","",""
"","-1","-1","1033","0","test_block","poldrack-single-stim","175","276606","0.0-5.0-161.0","go-nogo","false","0","","false","<div class = centerbox><div  id = stim2></div></div>","32","32","750","","test","go","161","random","","",""
"","-1","-1","1217","0","test_block","poldrack-single-stim","176","277848","0.0-5.0-162.0","go-nogo","false","0","","false","<div class = centerbox><div  id = stim2></div></div>","32","32","750","","test","go","162","random","","",""
"","-1","-1","1177","0","test_block","poldrack-single-stim","177","279060","0.0-5.0-163.0","go-nogo","false","0","","false","<div class = centerbox><div  id = stim2></div></div>","32","32","750","","test","go","163","random","","",""
"","-1","-1","1299","0","test_block","poldrack-single-stim","178","281223","0.0-5.0-164.0","go-nogo","false","1","","false","<div class = centerbox><div  id = stim2></div></div>","32","32","750","","test","go","164","random","","",""
"","-1","-1","1004","0","test_block","poldrack-single-stim","179","283222","0.0-5.0-165.0","go-nogo","false","0","","false","<div class = centerbox><div  id = stim2></div></div>","32","32","750","","test","go","165","random","","",""
"","-1","-1","1001","0","test_block","poldrack-single-stim","180","284249","0.0-5.0-166.0","go-nogo","false","0","","false","<div class = centerbox><div  id = stim2></div></div>","32","32","750","","test","go","166","random","","",""
"","322","32","1161","0","test_block","poldrack-single-stim","181","285433","0.0-5.0-167.0","go-nogo","false","0","","true","<div class = centerbox><div  id = stim2></div></div>","32","32","750","","test","go","167","random","","",""
"","-1","-1","1125","0","test_block","poldrack-single-stim","182","286583","0.0-5.0-168.0","go-nogo","false","0","","true","<div class = centerbox><div  id = stim1></div></div>","-1","32","750","","test","nogo","168","random","","",""
"","987","32","1401","0","test_block","poldrack-single-stim","183","288010","0.0-5.0-169.0","go-nogo","false","0","","true","<div class = centerbox><div  id = stim2></div></div>","32","32","750","","test","go","169","random","","",""
"","285","32","1471","0","test_block","poldrack-single-stim","184","289504","0.0-5.0-170.0","go-nogo","false","0","","true","<div class = centerbox><div  id = stim2></div></div>","32","32","750","","test","go","170","random","","",""
"","443","32","1378","0","test_block","poldrack-single-stim","185","290902","0.0-5.0-171.0","go-nogo","false","0","","true","<div class = centerbox><div  id = stim2></div></div>","32","32","750","","test","go","171","random","","",""
"","44","32","1260","0","test_block","poldrack-single-stim","186","292190","0.0-5.0-172.0","go-nogo","false","0","","true","<div class = centerbox><div  id = stim2></div></div>","32","32","750","","test","go","172","random","","",""
"","728","32","1251","0","test_block","poldrack-single-stim","187","293461","0.0-5.0-173.0","go-nogo","false","0","","true","<div class = centerbox><div  id = stim2></div></div>","32","32","750","","test","go","173","random","","",""
"","323","32","1202","0","test_block","poldrack-single-stim","188","294687","0.0-5.0-174.0","go-nogo","false","0","","true","<div class = centerbox><div  id = stim2></div></div>","32","32","750","","test","go","174","random","","",""
"","389","32","1285","0","test_block","poldrack-single-stim","189","295991","0.0-5.0-175.0","go-nogo","false","0","","true","<div class = centerbox><div  id = stim2></div></div>","32","32","750","","test","go","175","random","","",""
"","476","32","1121","0","test_block","poldrack-single-stim","190","297135","0.0-5.0-176.0","go-nogo","false","0","","true","<div class = centerbox><div  id = stim2></div></div>","32","32","750","","test","go","176","random","","",""
"","25","32","1184","0","test_block","poldrack-single-stim","191","298345","0.0-5.0-177.0","go-nogo","false","0","","true","<div class = centerbox><div  id = stim2></div></div>","32","32","750","","test","go","177","random","","",""
"","549","32","1320","0","test_block","poldrack-single-stim","192","299685","0.0-5.0-178.0","go-nogo","false","0","","true","<div class = centerbox><div  id = stim2></div></div>","32","32","750","","test","go","178","random","","",""
"","287","32","1012","0","test_block","poldrack-single-stim","193","300735","0.0-5.0-179.0","go-nogo","false","0","","true","<div class = centerbox><div  id = stim2></div></div>","32","32","750","","test","go","179","random","","",""
"","329","32","1260","0","test_block","poldrack-single-stim","194","302021","0.0-5.0-180.0","go-nogo","false","0","","true","<div class = centerbox><div  id = stim2></div></div>","32","32","750","","test","go","180","random","","",""
"","61","32","1294","0","test_block","poldrack-single-stim","195","303333","0.0-5.0-181.0","go-nogo","false","0","","true","<div class = centerbox><div  id = stim2></div></div>","32","32","750","","test","go","181","random","","",""
"","496","32","1372","0","test_block","poldrack-single-stim","196","304724","0.0-5.0-182.0","go-nogo","false","0","","true","<div class = centerbox><div  id = stim2></div></div>","32","32","750","","test","go","182","random","","",""
"","555","32","1027","0","test_block","poldrack-single-stim","197","305778","0.0-5.0-183.0","go-nogo","false","0","","true","<div class = centerbox><div  id = stim2></div></div>","32","32","750","","test","go","183","random","","",""
"","398","32","1466","0","test_block","poldrack-single-stim","198","307265","0.0-5.0-184.0","go-nogo","false","0","","true","<div class = centerbox><div  id = stim2></div></div>","32","32","750","","test","go","184","random","","",""
"","27","32","1355","0","test_block","poldrack-single-stim","199","308650","0.0-5.0-185.0","go-nogo","false","0","","true","<div class = centerbox><div  id = stim2></div></div>","32","32","750","","test","go","185","random","","",""
"","274","32","1489","0","test_block","poldrack-single-stim","200","310161","0.0-5.0-186.0","go-nogo","false","0","","false","<div class = centerbox><div  id = stim1></div></div>","-1","32","750","","test","nogo","186","random","","",""
"","1165","32","1256","0","test_block","poldrack-single-stim","201","311447","0.0-5.0-187.0","go-nogo","false","0","","true","<div class = centerbox><div  id = stim2></div></div>","32","32","750","","test","go","187","random","","",""
"","86","32","1059","0","test_block","poldrack-single-stim","202","312530","0.0-5.0-188.0","go-nogo","false","0","","true","<div class = centerbox><div  id = stim2></div></div>","32","32","750","","test","go","188","random","","",""
"","107","32","1030","0","test_block","poldrack-single-stim","203","313578","0.0-5.0-189.0","go-nogo","false","0","","true","<div class = centerbox><div  id = stim2></div></div>","32","32","750","","test","go","189","random","","",""
"","61","32","1019","0","test_block","poldrack-single-stim","204","314618","0.0-5.0-190.0","go-nogo","false","0","","true","<div class = centerbox><div  id = stim2></div></div>","32","32","750","","test","go","190","random","","",""
"","389","32","1079","0","test_block","poldrack-single-stim","205","315720","0.0-5.0-191.0","go-nogo","false","0","","true","<div class = centerbox><div  id = stim2></div></div>","32","32","750","","test","go","191","random","","",""
"","59","32","1331","0","test_block","poldrack-single-stim","206","317069","0.0-5.0-192.0","go-nogo","false","0","","false","<div class = centerbox><div  id = stim1></div></div>","-1","32","750","","test","nogo","192","random","","",""
"","-1","-1","1260","0","test_block","poldrack-single-stim","207","318347","0.0-5.0-193.0","go-nogo","false","0","","false","<div class = centerbox><div  id = stim2></div></div>","32","32","750","","test","go","193","random","","",""
"","15","32","1226","0","test_block","poldrack-single-stim","208","319596","0.0-5.0-194.0","go-nogo","false","0","","true","<div class = centerbox><div  id = stim2></div></div>","32","32","750","","test","go","194","random","","",""
"","0","32","1086","0","test_block","poldrack-single-stim","209","320735","0.0-5.0-195.0","go-nogo","false","0","","true","<div class = centerbox><div  id = stim2></div></div>","32","32","750","","test","go","195","random","","",""
"","193","32","1134","0","test_block","poldrack-single-stim","210","321922","0.0-5.0-196.0","go-nogo","false","0","","true","<div class = centerbox><div  id = stim2></div></div>","32","32","750","","test","go","196","random","","",""
"","42","32","1136","0","test_block","poldrack-single-stim","211","323106","0.0-5.0-197.0","go-nogo","false","0","","true","<div class = centerbox><div  id = stim2></div></div>","32","32","750","","test","go","197","random","","",""
"","212","32","1339","0","test_block","poldrack-single-stim","212","324500","0.0-5.0-198.0","go-nogo","false","0","","true","<div class = centerbox><div  id = stim2></div></div>","32","32","750","","test","go","198","random","","",""
"","58","32","1351","0","test_block","poldrack-single-stim","213","325910","0.0-5.0-199.0","go-nogo","false","0","","true","<div class = centerbox><div  id = stim2></div></div>","32","32","750","","test","go","199","random","","",""
"","1067","32","1499","0","test_block","poldrack-single-stim","214","327459","0.0-5.0-200.0","go-nogo","false","0","","true","<div class = centerbox><div  id = stim2></div></div>","32","32","750","","test","go","200","random","","",""
"","895","32","1220","0","test_block","poldrack-single-stim","215","328755","0.0-5.0-201.0","go-nogo","false","0","","true","<div class = centerbox><div  id = stim2></div></div>","32","32","750","","test","go","201","random","","",""
"","1","32","1178","0","test_block","poldrack-single-stim","216","329992","0.0-5.0-202.0","go-nogo","false","0","","true","<div class = centerbox><div  id = stim2></div></div>","32","32","750","","test","go","202","random","","",""
"","409","32","1407","0","test_block","poldrack-single-stim","217","331453","0.0-5.0-203.0","go-nogo","false","0","","true","<div class = centerbox><div  id = stim2></div></div>","32","32","750","","test","go","203","random","","",""
"","1","32","1064","0","test_block","poldrack-single-stim","218","332574","0.0-5.0-204.0","go-nogo","false","0","","true","<div class = centerbox><div  id = stim2></div></div>","32","32","750","","test","go","204","random","","",""
"","288","32","1122","0","test_block","poldrack-single-stim","219","333756","0.0-5.0-205.0","go-nogo","false","0","","true","<div class = centerbox><div  id = stim2></div></div>","32","32","750","","test","go","205","random","","",""
"","53","32","1276","0","test_block","poldrack-single-stim","220","335084","0.0-5.0-206.0","go-nogo","false","0","","true","<div class = centerbox><div  id = stim2></div></div>","32","32","750","","test","go","206","random","","",""
"","191","32","1198","0","test_block","poldrack-single-stim","221","336336","0.0-5.0-207.0","go-nogo","false","0","","true","<div class = centerbox><div  id = stim2></div></div>","32","32","750","","test","go","207","random","","",""
"","-1","-1","1432","0","test_block","poldrack-single-stim","222","337820","0.0-5.0-208.0","go-nogo","false","0","","true","<div class = centerbox><div  id = stim1></div></div>","-1","32","750","","test","nogo","208","random","","",""
"","-1","-1","1377","0","test_block","poldrack-single-stim","223","339246","0.0-5.0-209.0","go-nogo","false","0","","false","<div class = centerbox><div  id = stim2></div></div>","32","32","750","","test","go","209","random","","",""
"","936","32","1452","0","test_block","poldrack-single-stim","224","340756","0.0-5.0-210.0","go-nogo","false","0","","true","<div class = centerbox><div  id = stim2></div></div>","32","32","750","","test","go","210","random","","",""
"","52","32","1280","0","test_block","poldrack-single-stim","225","342091","0.0-5.0-211.0","go-nogo","false","0","","true","<div class = centerbox><div  id = stim2></div></div>","32","32","750","","test","go","211","random","","",""
"","245","32","1454","0","test_block","poldrack-single-stim","226","343597","0.0-5.0-212.0","go-nogo","false","0","","true","<div class = centerbox><div  id = stim2></div></div>","32","32","750","","test","go","212","random","","",""
"","255","32","1032","0","test_block","poldrack-single-stim","227","344684","0.0-5.0-213.0","go-nogo","false","0","","false","<div class = centerbox><div  id = stim1></div></div>","-1","32","750","","test","nogo","213","random","","",""
"","-1","-1","1005","0","test_block","poldrack-single-stim","228","345741","0.0-5.0-214.0","go-nogo","false","0","","true","<div class = centerbox><div  id = stim1></div></div>","-1","32","750","","test","nogo","214","random","","",""
"","889","32","1420","0","test_block","poldrack-single-stim","229","347223","0.0-5.0-215.0","go-nogo","false","0","","true","<div class = centerbox><div  id = stim2></div></div>","32","32","750","","test","go","215","random","","",""
"","213","32","1033","0","test_block","poldrack-single-stim","230","348320","0.0-5.0-216.0","go-nogo","false","0","","true","<div class = centerbox><div  id = stim2></div></div>","32","32","750","","test","go","216","random","","",""
"","994","32","1254","0","test_block","poldrack-single-stim","231","349629","0.0-5.0-217.0","go-nogo","false","0","","true","<div class = centerbox><div  id = stim2></div></div>","32","32","750","","test","go","217","random","","",""
"","410","32","1064","0","test_block","poldrack-single-stim","232","350748","0.0-5.0-218.0","go-nogo","false","0","","true","<div class = centerbox><div  id = stim2></div></div>","32","32","750","","test","go","218","random","","",""
"","1","32","1146","0","test_block","poldrack-single-stim","233","351951","0.0-5.0-219.0","go-nogo","false","0","","true","<div class = centerbox><div  id = stim2></div></div>","32","32","750","","test","go","219","random","","",""
"","319","32","1171","0","test_block","poldrack-single-stim","234","353181","0.0-5.0-220.0","go-nogo","false","0","","true","<div class = centerbox><div  id = stim2></div></div>","32","32","750","","test","go","220","random","","",""
"","-1","-1","1250","0","test_block","poldrack-single-stim","235","354487","0.0-5.0-221.0","go-nogo","false","0","","true","<div class = centerbox><div  id = stim1></div></div>","-1","32","750","","test","nogo","221","random","","",""
"","-1","-1","1076","0","test_block","poldrack-single-stim","236","355612","0.0-5.0-222.0","go-nogo","false","0","","false","<div class = centerbox><div  id = stim2></div></div>","32","32","750","","test","go","222","random","","",""
"","179","32","1297","0","test_block","poldrack-single-stim","237","356971","0.0-5.0-223.0","go-nogo","false","0","","true","<div class = centerbox><div  id = stim2></div></div>","32","32","750","","test","go","223","random","","",""
"","272","32","1330","0","test_block","poldrack-single-stim","238","358355","0.0-5.0-224.0","go-nogo","false","0","","true","<div class = centerbox><div  id = stim2></div></div>","32","32","750","","test","go","224","random","","",""
"","109","32","1409","0","test_block","poldrack-single-stim","239","359816","0.0-5.0-225.0","go-nogo","false","0","","true","<div class = centerbox><div  id = stim2></div></div>","32","32","750","","test","go","225","random","","",""
"","515","32","1148","0","test_block","poldrack-single-stim","240","361023","0.0-5.0-226.0","go-nogo","false","0","","true","<div class = centerbox><div  id = stim2></div></div>","32","32","750","","test","go","226","random","","",""
"","266","32","1269","0","test_block","poldrack-single-stim","241","362347","0.0-5.0-227.0","go-nogo","false","0","","false","<div class = centerbox><div  id = stim1></div></div>","-1","32","750","","test","nogo","227","random","","",""
"","770","32","1449","0","test_block","poldrack-single-stim","242","363855","0.0-5.0-228.0","go-nogo","false","0","","true","<div class = centerbox><div  id = stim2></div></div>","32","32","750","","test","go","228","random","","",""
"","293","32","1307","0","test_block","poldrack-single-stim","243","365222","0.0-5.0-229.0","go-nogo","false","0","","true","<div class = centerbox><div  id = stim2></div></div>","32","32","750","","test","go","229","random","","",""
"","321","32","1125","0","test_block","poldrack-single-stim","244","366409","0.0-5.0-230.0","go-nogo","false","0","","true","<div class = centerbox><div  id = stim2></div></div>","32","32","750","","test","go","230","random","","",""
"","319","32","1056","0","test_block","poldrack-single-stim","245","367524","0.0-5.0-231.0","go-nogo","false","0","","true","<div class = centerbox><div  id = stim2></div></div>","32","32","750","","test","go","231","random","","",""
"","355","32","1072","0","test_block","poldrack-single-stim","246","368660","0.0-5.0-232.0","go-nogo","false","0","","true","<div class = centerbox><div  id = stim2></div></div>","32","32","750","","test","go","232","random","","",""
"","239","32","1382","0","test_block","poldrack-single-stim","247","370099","0.0-5.0-233.0","go-nogo","false","0","","true","<div class = centerbox><div  id = stim2></div></div>","32","32","750","","test","go","233","random","","",""
"","473","32","1170","0","test_block","poldrack-single-stim","248","371319","0.0-5.0-234.0","go-nogo","false","0","","true","<div class = centerbox><div  id = stim2></div></div>","32","32","750","","test","go","234","random","","",""
"","199","32","1341","0","test_block","poldrack-single-stim","249","372709","0.0-5.0-235.0","go-nogo","false","0","","true","<div class = centerbox><div  id = stim2></div></div>","32","32","750","","test","go","235","random","","",""
"","490","32","1397","0","test_block","poldrack-single-stim","250","374160","0.0-5.0-236.0","go-nogo","false","0","","true","<div class = centerbox><div  id = stim2></div></div>","32","32","750","","test","go","236","random","","",""
"","220","32","1135","0","test_block","poldrack-single-stim","251","375353","0.0-5.0-237.0","go-nogo","false","0","","true","<div class = centerbox><div  id = stim2></div></div>","32","32","750","","test","go","237","random","","",""
"","830","32","1051","0","test_block","poldrack-single-stim","252","376452","0.0-5.0-238.0","go-nogo","false","0","","false","<div class = centerbox><div  id = stim1></div></div>","-1","32","750","","test","nogo","238","random","","",""
"","-1","-1","1461","0","test_block","poldrack-single-stim","253","377966","0.0-5.0-239.0","go-nogo","false","0","","false","<div class = centerbox><div  id = stim2></div></div>","32","32","750","","test","go","239","random","","",""
"","794","32","1270","0","test_block","poldrack-single-stim","254","379285","0.0-5.0-240.0","go-nogo","false","0","","true","<div class = centerbox><div  id = stim2></div></div>","32","32","750","","test","go","240","random","","",""
"","1","32","1425","0","test_block","poldrack-single-stim","255","380773","0.0-5.0-241.0","go-nogo","false","0","","true","<div class = centerbox><div  id = stim2></div></div>","32","32","750","","test","go","241","random","","",""
"","252","32","1302","0","test_block","poldrack-single-stim","256","382126","0.0-5.0-242.0","go-nogo","false","0","","true","<div class = centerbox><div  id = stim2></div></div>","32","32","750","","test","go","242","random","","",""
"","93","32","1275","0","test_block","poldrack-single-stim","257","383458","0.0-5.0-243.0","go-nogo","false","0","","true","<div class = centerbox><div  id = stim2></div></div>","32","32","750","","test","go","243","random","","",""
"","305","32","1299","0","test_block","poldrack-single-stim","258","384809","0.0-5.0-244.0","go-nogo","false","0","","true","<div class = centerbox><div  id = stim2></div></div>","32","32","750","","test","go","244","random","","",""
"","276","32","1147","0","test_block","poldrack-single-stim","259","386012","0.0-5.0-245.0","go-nogo","false","0","","true","<div class = centerbox><div  id = stim2></div></div>","32","32","750","","test","go","245","random","","",""
"","261","32","1163","0","test_block","poldrack-single-stim","260","387235","0.0-5.0-246.0","go-nogo","false","0","","true","<div class = centerbox><div  id = stim2></div></div>","32","32","750","","test","go","246","random","","",""
"","1","32","1411","0","test_block","poldrack-single-stim","261","388702","0.0-5.0-247.0","go-nogo","false","0","","true","<div class = centerbox><div  id = stim2></div></div>","32","32","750","","test","go","247","random","","",""
"","427","32","1279","0","test_block","poldrack-single-stim","262","390036","0.0-5.0-248.0","go-nogo","false","0","","true","<div class = centerbox><div  id = stim2></div></div>","32","32","750","","test","go","248","random","","",""
"","-1","-1","1397","0","test_block","poldrack-single-stim","263","391500","0.0-5.0-249.0","go-nogo","false","1","","false","<div class = centerbox><div  id = stim2></div></div>","32","32","750","","test","go","249","random","","",""
"","-1","-1","1176","0","test_block","poldrack-single-stim","264","392708","0.0-5.0-250.0","go-nogo","false","0","","false","<div class = centerbox><div  id = stim2></div></div>","32","32","750","","test","go","250","random","","",""
"","-1","-1","1476","0","test_block","poldrack-single-stim","265","394211","0.0-5.0-251.0","go-nogo","false","0","","false","<div class = centerbox><div  id = stim2></div></div>","32","32","750","","test","go","251","random","","",""
"","1149","32","1365","0","test_block","poldrack-single-stim","266","395598","0.0-5.0-252.0","go-nogo","false","0","","true","<div class = centerbox><div  id = stim2></div></div>","32","32","750","","test","go","252","random","","",""
"","798","32","1149","0","test_block","poldrack-single-stim","267","396766","0.0-5.0-253.0","go-nogo","false","0","","false","<div class = centerbox><div  id = stim1></div></div>","-1","32","750","","test","nogo","253","random","","",""
"","-1","-1","1045","0","test_block","poldrack-single-stim","268","397833","0.0-5.0-254.0","go-nogo","false","0","","true","<div class = centerbox><div  id = stim1></div></div>","-1","32","750","","test","nogo","254","random","","",""
"","322","32","1497","0","test_block","poldrack-single-stim","269","399348","0.0-5.0-255.0","go-nogo","false","0","","true","<div class = centerbox><div  id = stim2></div></div>","32","32","750","","test","go","255","random","","",""
"","373","32","1093","0","test_block","poldrack-single-stim","270","400498","0.0-5.0-256.0","go-nogo","false","0","","true","<div class = centerbox><div  id = stim2></div></div>","32","32","750","","test","go","256","random","","",""
"","-1","-1","1448","0","test_block","poldrack-single-stim","271","401999","0.0-5.0-257.0","go-nogo","false","0","","true","<div class = centerbox><div  id = stim1></div></div>","-1","32","750","","test","nogo","257","random","","",""
"","388","32","1168","0","test_block","poldrack-single-stim","272","403219","0.0-5.0-258.0","go-nogo","false","0","","true","<div class = centerbox><div  id = stim2></div></div>","32","32","750","","test","go","258","random","","",""
"","579","32","1392","0","test_block","poldrack-single-stim","273","404645","0.0-5.0-259.0","go-nogo","false","0","","true","<div class = centerbox><div  id = stim2></div></div>","32","32","750","","test","go","259","random","","",""
"","1115","32","1227","0","test_block","poldrack-single-stim","274","405923","0.0-5.0-260.0","go-nogo","false","0","","true","<div class = centerbox><div  id = stim2></div></div>","32","32","750","","test","go","260","random","","",""
"","454","32","1464","0","test_block","poldrack-single-stim","275","407440","0.0-5.0-261.0","go-nogo","false","0","","true","<div class = centerbox><div  id = stim2></div></div>","32","32","750","","test","go","261","random","","",""
"","532","32","1393","0","test_block","poldrack-single-stim","276","408886","0.0-5.0-262.0","go-nogo","false","0","","true","<div class = centerbox><div  id = stim2></div></div>","32","32","750","","test","go","262","random","","",""
"","669","32","1109","0","test_block","poldrack-single-stim","277","410049","0.0-5.0-263.0","go-nogo","false","0","","true","<div class = centerbox><div  id = stim2></div></div>","32","32","750","","test","go","263","random","","",""
"","-1","-1","1353","0","test_block","poldrack-single-stim","278","411455","0.0-5.0-264.0","go-nogo","false","0","","true","<div class = centerbox><div  id = stim1></div></div>","-1","32","750","","test","nogo","264","random","","",""
"","625","32","1136","0","test_block","poldrack-single-stim","279","412643","0.0-5.0-265.0","go-nogo","false","0","","true","<div class = centerbox><div  id = stim2></div></div>","32","32","750","","test","go","265","random","","",""
"","-1","-1","1045","0","test_block","poldrack-single-stim","280","413751","0.0-5.0-266.0","go-nogo","false","0","","false","<div class = centerbox><div  id = stim2></div></div>","32","32","750","","test","go","266","random","","",""
"","504","32","1035","0","test_block","poldrack-single-stim","281","414836","0.0-5.0-267.0","go-nogo","false","0","","true","<div class = centerbox><div  id = stim2></div></div>","32","32","750","","test","go","267","random","","",""
"","439","32","1356","0","test_block","poldrack-single-stim","282","416261","0.0-5.0-268.0","go-nogo","false","0","","true","<div class = centerbox><div  id = stim2></div></div>","32","32","750","","test","go","268","random","","",""
"","80","32","1497","0","test_block","poldrack-single-stim","283","417814","0.0-5.0-269.0","go-nogo","false","0","","true","<div class = centerbox><div  id = stim2></div></div>","32","32","750","","test","go","269","random","","",""
"","510","32","1303","0","test_block","poldrack-single-stim","284","419167","0.0-5.0-270.0","go-nogo","false","0","","true","<div class = centerbox><div  id = stim2></div></div>","32","32","750","","test","go","270","random","","",""
"","1247","32","1431","0","test_block","poldrack-single-stim","285","420657","0.0-5.0-271.0","go-nogo","false","0","","true","<div class = centerbox><div  id = stim2></div></div>","32","32","750","","test","go","271","random","","",""
"","508","32","1350","0","test_block","poldrack-single-stim","286","422064","0.0-5.0-272.0","go-nogo","false","0","","true","<div class = centerbox><div  id = stim2></div></div>","32","32","750","","test","go","272","random","","",""
"","-1","-1","1178","0","test_block","poldrack-single-stim","287","423297","0.0-5.0-273.0","go-nogo","false","0","","false","<div class = centerbox><div  id = stim2></div></div>","32","32","750","","test","go","273","random","","",""
"","148","32","1187","0","test_block","poldrack-single-stim","288","424552","0.0-5.0-274.0","go-nogo","false","0","","true","<div class = centerbox><div  id = stim2></div></div>","32","32","750","","test","go","274","random","","",""
"","358","32","1097","0","test_block","poldrack-single-stim","289","425707","0.0-5.0-275.0","go-nogo","false","0","","true","<div class = centerbox><div  id = stim2></div></div>","32","32","750","","test","go","275","random","","",""
"","529","32","1370","0","test_block","poldrack-single-stim","290","427128","0.0-5.0-276.0","go-nogo","false","0","","true","<div class = centerbox><div  id = stim2></div></div>","32","32","750","","test","go","276","random","","",""
"","440","32","1230","0","test_block","poldrack-single-stim","291","428408","0.0-5.0-277.0","go-nogo","false","0","","true","<div class = centerbox><div  id = stim2></div></div>","32","32","750","","test","go","277","random","","",""
"","547","32","1257","0","test_block","poldrack-single-stim","292","429724","0.0-5.0-278.0","go-nogo","false","0","","true","<div class = centerbox><div  id = stim2></div></div>","32","32","750","","test","go","278","random","","",""
"","762","32","1440","0","test_block","poldrack-single-stim","293","431227","0.0-5.0-279.0","go-nogo","false","0","","true","<div class = centerbox><div  id = stim2></div></div>","32","32","750","","test","go","279","random","","",""
"","-1","-1","1261","0","test_block","poldrack-single-stim","294","432552","0.0-5.0-280.0","go-nogo","false","0","","false","<div class = centerbox><div  id = stim2></div></div>","32","32","750","","test","go","280","random","","",""
"","-1","-1","1159","0","test_block","poldrack-single-stim","295","433787","0.0-5.0-281.0","go-nogo","false","1","","false","<div class = centerbox><div  id = stim2></div></div>","32","32","750","","test","go","281","random","","",""
"","-1","-1","1162","0","test_block","poldrack-single-stim","296","434981","0.0-5.0-282.0","go-nogo","false","0","","false","<div class = centerbox><div  id = stim2></div></div>","32","32","750","","test","go","282","random","","",""
"","-1","-1","1413","0","test_block","poldrack-single-stim","297","436420","0.0-5.0-283.0","go-nogo","false","0","","false","<div class = centerbox><div  id = stim2></div></div>","32","32","750","","test","go","283","random","","",""
"","-1","-1","1370","0","test_block","poldrack-single-stim","298","437819","0.0-5.0-284.0","go-nogo","false","0","","false","<div class = centerbox><div  id = stim2></div></div>","32","32","750","","test","go","284","random","","",""
"","-1","-1","1182","0","test_block","poldrack-single-stim","299","439030","0.0-5.0-285.0","go-nogo","false","0","","false","<div class = centerbox><div  id = stim2></div></div>","32","32","750","","test","go","285","random","","",""
"","-1","-1","1098","0","test_block","poldrack-single-stim","300","440154","0.0-5.0-286.0","go-nogo","false","0","","false","<div class = centerbox><div  id = stim2></div></div>","32","32","750","","test","go","286","random","","",""
"","-1","-1","1106","0","test_block","poldrack-single-stim","301","441288","0.0-5.0-287.0","go-nogo","false","0","","false","<div class = centerbox><div  id = stim2></div></div>","32","32","750","","test","go","287","random","","",""
"","-1","-1","1490","0","test_block","poldrack-single-stim","302","442804","0.0-5.0-288.0","go-nogo","false","0","","false","<div class = centerbox><div  id = stim2></div></div>","32","32","750","","test","go","288","random","","",""
"","565","32","1157","0","test_block","poldrack-single-stim","303","443983","0.0-5.0-289.0","go-nogo","false","0","","true","<div class = centerbox><div  id = stim2></div></div>","32","32","750","","test","go","289","random","","",""
"","390","32","1194","0","test_block","poldrack-single-stim","304","445202","0.0-5.0-290.0","go-nogo","false","0","","true","<div class = centerbox><div  id = stim2></div></div>","32","32","750","","test","go","290","random","","",""
"","23","32","1058","0","test_block","poldrack-single-stim","305","446280","0.0-5.0-291.0","go-nogo","false","0","","true","<div class = centerbox><div  id = stim2></div></div>","32","32","750","","test","go","291","random","","",""
"","469","32","1379","0","test_block","poldrack-single-stim","306","447685","0.0-5.0-292.0","go-nogo","false","0","","true","<div class = centerbox><div  id = stim2></div></div>","32","32","750","","test","go","292","random","","",""
"","237","32","1038","0","test_block","poldrack-single-stim","307","448750","0.0-5.0-293.0","go-nogo","false","0","","true","<div class = centerbox><div  id = stim2></div></div>","32","32","750","","test","go","293","random","","",""
"","562","32","1488","0","test_block","poldrack-single-stim","308","450260","0.0-5.0-294.0","go-nogo","false","0","","true","<div class = centerbox><div  id = stim2></div></div>","32","32","750","","test","go","294","random","","",""
"","99","32","1248","0","test_block","poldrack-single-stim","309","451526","0.0-5.0-295.0","go-nogo","false","0","","true","<div class = centerbox><div  id = stim2></div></div>","32","32","750","","test","go","295","random","","",""
"","1079","32","1412","0","test_block","poldrack-single-stim","310","452960","0.0-5.0-296.0","go-nogo","false","0","","true","<div class = centerbox><div  id = stim2></div></div>","32","32","750","","test","go","296","random","","",""
"","192","32","1173","0","test_block","poldrack-single-stim","311","454157","0.0-5.0-297.0","go-nogo","false","0","","true","<div class = centerbox><div  id = stim2></div></div>","32","32","750","","test","go","297","random","","",""
"","277","32","1008","0","test_block","poldrack-single-stim","312","455182","0.0-5.0-298.0","go-nogo","false","0","","true","<div class = centerbox><div  id = stim2></div></div>","32","32","750","","test","go","298","random","","",""
"","414","32","1443","0","test_block","poldrack-single-stim","313","456647","0.0-5.0-299.0","go-nogo","false","0","","true","<div class = centerbox><div  id = stim2></div></div>","32","32","750","","test","go","299","random","","",""
"","528","32","1341","0","test_block","poldrack-single-stim","314","458008","0.0-5.0-300.0","go-nogo","false","0","","true","<div class = centerbox><div  id = stim2></div></div>","32","32","750","","test","go","300","random","","",""
"","461","32","1486","0","test_block","poldrack-single-stim","315","459542","0.0-5.0-301.0","go-nogo","false","0","","true","<div class = centerbox><div  id = stim2></div></div>","32","32","750","","test","go","301","random","","",""
"","186","32","1421","0","test_block","poldrack-single-stim","316","461015","0.0-5.0-302.0","go-nogo","false","0","","true","<div class = centerbox><div  id = stim2></div></div>","32","32","750","","test","go","302","random","","",""
"","1","32","1114","0","test_block","poldrack-single-stim","317","462181","0.0-5.0-303.0","go-nogo","false","0","","true","<div class = centerbox><div  id = stim2></div></div>","32","32","750","","test","go","303","random","","",""
"","423","32","1268","0","test_block","poldrack-single-stim","318","463503","0.0-5.0-304.0","go-nogo","false","0","","true","<div class = centerbox><div  id = stim2></div></div>","32","32","750","","test","go","304","random","","",""
"","379","32","1428","0","test_block","poldrack-single-stim","319","464983","0.0-5.0-305.0","go-nogo","false","0","","false","<div class = centerbox><div  id = stim1></div></div>","-1","32","750","","test","nogo","305","random","","",""
"","361","32","1164","0","test_block","poldrack-single-stim","320","466198","0.0-5.0-306.0","go-nogo","false","0","","true","<div class = centerbox><div  id = stim2></div></div>","32","32","750","","test","go","306","random","","",""
"","358","32","1126","0","test_block","poldrack-single-stim","321","467352","0.0-5.0-307.0","go-nogo","false","0","","true","<div class = centerbox><div  id = stim2></div></div>","32","32","750","","test","go","307","random","","",""
"","337","32","1042","0","test_block","poldrack-single-stim","322","468452","0.0-5.0-308.0","go-nogo","false","0","","true","<div class = centerbox><div  id = stim2></div></div>","32","32","750","","test","go","308","random","","",""
"","302","32","1087","0","test_block","poldrack-single-stim","323","469590","0.0-5.0-309.0","go-nogo","false","0","","true","<div class = centerbox><div  id = stim2></div></div>","32","32","750","","test","go","309","random","","",""
"","133","32","1458","0","test_block","poldrack-single-stim","324","471100","0.0-5.0-310.0","go-nogo","false","0","","true","<div class = centerbox><div  id = stim2></div></div>","32","32","750","","test","go","310","random","","",""
"","696","32","1446","0","test_block","poldrack-single-stim","325","472599","0.0-5.0-311.0","go-nogo","false","0","","true","<div class = centerbox><div  id = stim2></div></div>","32","32","750","","test","go","311","random","","",""
"","114","32","1277","0","test_block","poldrack-single-stim","326","473928","0.0-5.0-312.0","go-nogo","false","0","","true","<div class = centerbox><div  id = stim2></div></div>","32","32","750","","test","go","312","random","","",""
"","650","32","1092","0","test_block","poldrack-single-stim","327","475071","0.0-5.0-313.0","go-nogo","false","0","","true","<div class = centerbox><div  id = stim2></div></div>","32","32","750","","test","go","313","random","","",""
"","-1","-1","1126","0","test_block","poldrack-single-stim","328","476250","0.0-5.0-314.0","go-nogo","false","0","","false","<div class = centerbox><div  id = stim2></div></div>","32","32","750","","test","go","314","random","","",""
"","627","32","1298","0","test_block","poldrack-single-stim","329","477612","0.0-5.0-315.0","go-nogo","false","0","","true","<div class = centerbox><div  id = stim2></div></div>","32","32","750","","test","go","315","random","","",""
"","1","32","1263","0","test_block","poldrack-single-stim","330","478929","0.0-5.0-316.0","go-nogo","false","0","","true","<div class = centerbox><div  id = stim2></div></div>","32","32","750","","test","go","316","random","","",""
"","405","32","1294","0","test_block","poldrack-single-stim","331","480274","0.0-5.0-317.0","go-nogo","false","0","","true","<div class = centerbox><div  id = stim2></div></div>","32","32","750","","test","go","317","random","","",""
"","319","32","1070","0","test_block","poldrack-single-stim","332","481396","0.0-5.0-318.0","go-nogo","false","0","","true","<div class = centerbox><div  id = stim2></div></div>","32","32","750","","test","go","318","random","","",""
"","226","32","1089","0","test_block","poldrack-single-stim","333","482537","0.0-5.0-319.0","go-nogo","false","0","","true","<div class = centerbox><div  id = stim2></div></div>","32","32","750","","test","go","319","random","","",""
"","354","32","1033","0","test_block","poldrack-single-stim","334","483622","0.0-5.0-320.0","go-nogo","false","0","","true","<div class = centerbox><div  id = stim2></div></div>","32","32","750","","test","go","320","random","","",""
"","47","32","1136","0","test_block","poldrack-single-stim","335","484806","0.0-5.0-321.0","go-nogo","false","0","","true","<div class = centerbox><div  id = stim2></div></div>","32","32","750","","test","go","321","random","","",""
"","852","32","1363","0","test_block","poldrack-single-stim","336","486222","0.0-5.0-322.0","go-nogo","false","0","","true","<div class = centerbox><div  id = stim2></div></div>","32","32","750","","test","go","322","random","","",""
"","293","32","1118","0","test_block","poldrack-single-stim","337","487394","0.0-5.0-323.0","go-nogo","false","0","","true","<div class = centerbox><div  id = stim2></div></div>","32","32","750","","test","go","323","random","","",""
"","107","32","1412","0","test_block","poldrack-single-stim","338","488859","0.0-5.0-324.0","go-nogo","false","0","","true","<div class = centerbox><div  id = stim2></div></div>","32","32","750","","test","go","324","random","","",""
"","246","32","1306","0","test_block","poldrack-single-stim","339","490216","0.0-5.0-325.0","go-nogo","false","0","","true","<div class = centerbox><div  id = stim2></div></div>","32","32","750","","test","go","325","random","","",""
"","91","32","1324","0","test_block","poldrack-single-stim","340","491593","0.0-5.0-326.0","go-nogo","false","0","","false","<div class = centerbox><div  id = stim1></div></div>","-1","32","750","","test","nogo","326","random","","",""
"","259","32","1269","0","test_block","poldrack-single-stim","341","492924","0.0-5.0-327.0","go-nogo","false","0","","false","<div class = centerbox><div  id = stim1></div></div>","-1","32","750","","test","nogo","327","random","","",""
"","834","32","1237","0","test_block","poldrack-single-stim","342","494210","0.0-5.0-328.0","go-nogo","false","0","","true","<div class = centerbox><div  id = stim2></div></div>","32","32","750","","test","go","328","random","","",""
"","0","32","1228","0","test_block","poldrack-single-stim","343","495501","0.0-5.0-329.0","go-nogo","false","0","","true","<div class = centerbox><div  id = stim2></div></div>","32","32","750","","test","go","329","random","","",""
"","73","32","1294","0","test_block","poldrack-single-stim","344","496849","0.0-5.0-330.0","go-nogo","false","0","","true","<div class = centerbox><div  id = stim2></div></div>","32","32","750","","test","go","330","random","","",""
"","193","32","1347","0","test_block","poldrack-single-stim","345","498256","0.0-5.0-331.0","go-nogo","false","0","","true","<div class = centerbox><div  id = stim2></div></div>","32","32","750","","test","go","331","random","","",""
"","122","32","1356","0","test_block","poldrack-single-stim","346","499638","0.0-5.0-332.0","go-nogo","false","0","","true","<div class = centerbox><div  id = stim2></div></div>","32","32","750","","test","go","332","random","","",""
"","51","32","1086","0","test_block","poldrack-single-stim","347","500778","0.0-5.0-333.0","go-nogo","false","0","","true","<div class = centerbox><div  id = stim2></div></div>","32","32","750","","test","go","333","random","","",""
"","7","32","1061","0","test_block","poldrack-single-stim","348","501892","0.0-5.0-334.0","go-nogo","false","0","","false","<div class = centerbox><div  id = stim1></div></div>","-1","32","750","","test","nogo","334","random","","",""
"","-1","-1","1161","0","test_block","poldrack-single-stim","349","503106","0.0-5.0-335.0","go-nogo","false","0","","false","<div class = centerbox><div  id = stim2></div></div>","32","32","750","","test","go","335","random","","",""
"","-1","-1","1171","0","test_block","poldrack-single-stim","350","504329","0.0-5.0-336.0","go-nogo","false","1","","false","<div class = centerbox><div  id = stim2></div></div>","32","32","750","","test","go","336","random","","",""
"","-1","-1","1276","0","test_block","poldrack-single-stim","351","505662","0.0-5.0-337.0","go-nogo","false","0","","false","<div class = centerbox><div  id = stim2></div></div>","32","32","750","","test","go","337","random","","",""
"","-1","-1","1238","0","test_block","poldrack-single-stim","352","506928","0.0-5.0-338.0","go-nogo","false","0","","false","<div class = centerbox><div  id = stim2></div></div>","32","32","750","","test","go","338","random","","",""
"","482","32","1152","0","test_block","poldrack-single-stim","353","508099","0.0-5.0-339.0","go-nogo","false","0","","true","<div class = centerbox><div  id = stim2></div></div>","32","32","750","","test","go","339","random","","",""
"","378","32","1342","0","test_block","poldrack-single-stim","354","509463","0.0-5.0-340.0","go-nogo","false","0","","true","<div class = centerbox><div  id = stim2></div></div>","32","32","750","","test","go","340","random","","",""
"","156","32","1178","0","test_block","poldrack-single-stim","355","510709","0.0-5.0-341.0","go-nogo","false","0","","true","<div class = centerbox><div  id = stim2></div></div>","32","32","750","","test","go","341","random","","",""
"","552","32","1418","0","test_block","poldrack-single-stim","356","512173","0.0-5.0-342.0","go-nogo","false","0","","true","<div class = centerbox><div  id = stim2></div></div>","32","32","750","","test","go","342","random","","",""
"","-1","-1","1294","0","test_block","poldrack-single-stim","357","513519","0.0-5.0-343.0","go-nogo","false","0","","true","<div class = centerbox><div  id = stim1></div></div>","-1","32","750","","test","nogo","343","random","","",""
"","670","32","1205","0","test_block","poldrack-single-stim","358","514778","0.0-5.0-344.0","go-nogo","false","0","","true","<div class = centerbox><div  id = stim2></div></div>","32","32","750","","test","go","344","random","","",""
"","558","32","1043","0","test_block","poldrack-single-stim","359","515875","0.0-5.0-345.0","go-nogo","false","0","","true","<div class = centerbox><div  id = stim2></div></div>","32","32","750","","test","go","345","random","","",""
"","658","32","1237","0","test_block","poldrack-single-stim","360","517164","0.0-5.0-346.0","go-nogo","false","0","","true","<div class = centerbox><div  id = stim2></div></div>","32","32","750","","test","go","346","random","","",""
"","557","32","1245","0","test_block","poldrack-single-stim","361","518466","0.0-5.0-347.0","go-nogo","false","0","","true","<div class = centerbox><div  id = stim2></div></div>","32","32","750","","test","go","347","random","","",""
"","269","32","1129","0","test_block","poldrack-single-stim","362","519645","0.0-5.0-348.0","go-nogo","false","0","","true","<div class = centerbox><div  id = stim2></div></div>","32","32","750","","test","go","348","random","","",""
"","328","32","1378","0","test_block","poldrack-single-stim","363","521079","0.0-5.0-349.0","go-nogo","false","0","","true","<div class = centerbox><div  id = stim2></div></div>","32","32","750","","test","go","349","random","","",""
"","72312","","","","post task questions","survey-text","364","593449","0.0-7.0","go-nogo","false","0","","","","","","","","","","","","{""Q0"":""i was asked to click space bar when i see the blue box and i shouldn't respond when i see the orange box"",""Q1"":""no""}","",""
"<div class = centerbox><p class = center-block-text>Thanks for completing this task!</p><p class = center-block-text>Insert the following code to collect your payment at Amazon Mechanical Turk:</p><p class = center-block-text>881564317</p><p class = center-block-text>Press <strong>enter</strong> to continue.</p></div>","8818","13","8818","0","end","poldrack-text","365","603273","0.0-8.0","go-nogo","false","0","","","","","","","","","","","","","881564317","true"
