"text","rt","key_press","block_duration","timing_post_trial","trial_id","trial_type","trial_index","time_elapsed","internal_node_id","exp_id","full_screen","focus_shifts","view_history","correct","stimulus","correct_response","possible_responses","stim_duration","feedback_duration","exp_stage","condition","trial_num","mode","responses","payment_id","credit_var"
"<div class = centerbox><p class = center-block-text>Welcome to the experiment. This task will take around 10 minutes. Press <strong>enter</strong> to begin.</p></div>","6012","13","6012","0","instruction","poldrack-text","0","6019","0.0-0.0-0.0","go-nogo","true","0","","","","","","","","","","","","","",""
"","7558","","","","instruction","poldrack-instructions","1","13580","0.0-0.0-1.0","go-nogo","true","0","[{""page_index"":0,""viewing_time"":7557}]","","","","","","","","","","","","",""
"","358","32","1075","250","practice","poldrack-categorize","2","16711","0.0-1.0-0.0","go-nogo","true","0","","true","<div class = centerbox><div  id = stim1></div></div>","32","32","750","1000","practice","go","0","random","","",""
"","463","32","1126","250","practice","poldrack-categorize","3","19125","0.0-1.0-1.0","go-nogo","true","0","","true","<div class = centerbox><div  id = stim1></div></div>","32","32","750","1000","practice","go","1","random","","",""
"","-1","-1","1110","250","practice","poldrack-categorize","4","21504","0.0-1.0-2.0","go-nogo","true","0","","false","<div class = centerbox><div  id = stim1></div></div>","32","32","750","1000","practice","go","2","random","","",""
"","-1","-1","1367","250","practice","poldrack-categorize","5","24140","0.0-1.0-3.0","go-nogo","true","0","","true","<div class = centerbox><div id = stim2></div></div>","-1","32","750","1000","practice","nogo","3","random","","",""
"","-1","-1","1220","250","practice","poldrack-categorize","6","26648","0.0-1.0-4.0","go-nogo","true","0","","true","<div class = centerbox><div id = stim2></div></div>","-1","32","750","1000","practice","nogo","4","random","","",""
"","410","32","1183","250","practice","poldrack-categorize","7","29108","0.0-1.0-5.0","go-nogo","true","0","","true","<div class = centerbox><div  id = stim1></div></div>","32","32","750","1000","practice","go","5","random","","",""
"","-1","-1","1441","250","practice","poldrack-categorize","8","31820","0.0-1.0-6.0","go-nogo","true","0","","true","<div class = centerbox><div id = stim2></div></div>","-1","32","750","1000","practice","nogo","6","random","","",""
"","-1","-1","1261","250","practice","poldrack-categorize","9","34345","0.0-1.0-7.0","go-nogo","true","0","","true","<div class = centerbox><div id = stim2></div></div>","-1","32","750","1000","practice","nogo","7","random","","",""
"","544","32","1262","250","practice","poldrack-categorize","10","36882","0.0-1.0-8.0","go-nogo","true","0","","true","<div class = centerbox><div  id = stim1></div></div>","32","32","750","1000","practice","go","8","random","","",""
"","-1","-1","1499","250","practice","poldrack-categorize","11","39648","0.0-1.0-9.0","go-nogo","true","0","","true","<div class = centerbox><div id = stim2></div></div>","-1","32","750","1000","practice","nogo","9","random","","",""
"","","","","","reset_trial","call-function","12","39905","0.0-3.0","go-nogo","true","0","","","","","","","","","","","","","",""
"<div class = centerbox><p class = block-text>Practice is over, we will now begin the experiment. You will no longer get feedback about your responses.</p><p class = block-text>Remember, if you see the <font color=""orange"">orange</font> square you should <strong> respond by pressing the spacebar as quickly as possible</strong>. If you see the <font color=""blue"">blue</font> square you should <strong> not respond</strong>. Press <strong>enter</strong> to begin.</p></div>","5947","13","5947","1000","test_intro","poldrack-text","13","45860","0.0-4.0","go-nogo","true","0","","","","","","","","","","","","","",""
"","-1","-1","1352","0","test_block","poldrack-single-stim","14","48225","0.0-5.0-0.0","go-nogo","true","0","","true","<div class = centerbox><div  id = stim2></div></div>","-1","32","750","","test","nogo","0","random","","",""
"","280","32","1397","0","test_block","poldrack-single-stim","15","49789","0.0-5.0-1.0","go-nogo","true","0","","true","<div class = centerbox><div  id = stim1></div></div>","32","32","750","","test","go","1","random","","",""
"","325","32","1481","0","test_block","poldrack-single-stim","16","51406","0.0-5.0-2.0","go-nogo","true","0","","true","<div class = centerbox><div  id = stim1></div></div>","32","32","750","","test","go","2","random","","",""
"","273","32","1023","0","test_block","poldrack-single-stim","17","52562","0.0-5.0-3.0","go-nogo","true","0","","true","<div class = centerbox><div  id = stim1></div></div>","32","32","750","","test","go","3","random","","",""
"","268","32","1368","0","test_block","poldrack-single-stim","18","54046","0.0-5.0-4.0","go-nogo","true","0","","true","<div class = centerbox><div  id = stim1></div></div>","32","32","750","","test","go","4","random","","",""
"","-1","-1","1481","0","test_block","poldrack-single-stim","19","55672","0.0-5.0-5.0","go-nogo","true","0","","true","<div class = centerbox><div  id = stim2></div></div>","-1","32","750","","test","nogo","5","random","","",""
"","238","32","1116","0","test_block","poldrack-single-stim","20","56926","0.0-5.0-6.0","go-nogo","true","0","","true","<div class = centerbox><div  id = stim1></div></div>","32","32","750","","test","go","6","random","","",""
"","436","32","1365","0","test_block","poldrack-single-stim","21","58441","0.0-5.0-7.0","go-nogo","true","0","","true","<div class = centerbox><div  id = stim1></div></div>","32","32","750","","test","go","7","random","","",""
"","278","32","1019","0","test_block","poldrack-single-stim","22","59611","0.0-5.0-8.0","go-nogo","true","0","","true","<div class = centerbox><div  id = stim1></div></div>","32","32","750","","test","go","8","random","","",""
"","299","32","1189","0","test_block","poldrack-single-stim","23","60912","0.0-5.0-9.0","go-nogo","true","0","","true","<div class = centerbox><div  id = stim1></div></div>","32","32","750","","test","go","9","random","","",""
"","300","32","1357","0","test_block","poldrack-single-stim","24","62403","0.0-5.0-10.0","go-nogo","true","0","","true","<div class = centerbox><div  id = stim1></div></div>","32","32","750","","test","go","10","random","","",""
"","279","32","1273","0","test_block","poldrack-single-stim","25","63825","0.0-5.0-11.0","go-nogo","true","0","","true","<div class = centerbox><div  id = stim1></div></div>","32","32","750","","test","go","11","random","","",""
"","273","32","1114","0","test_block","poldrack-single-stim","26","65050","0.0-5.0-12.0","go-nogo","true","0","","true","<div class = centerbox><div  id = stim1></div></div>","32","32","750","","test","go","12","random","","",""
"","279","32","1045","0","test_block","poldrack-single-stim","27","66233","0.0-5.0-13.0","go-nogo","true","0","","true","<div class = centerbox><div  id = stim1></div></div>","32","32","750","","test","go","13","random","","",""
"","367","32","1160","0","test_block","poldrack-single-stim","28","67512","0.0-5.0-14.0","go-nogo","true","0","","true","<div class = centerbox><div  id = stim1></div></div>","32","32","750","","test","go","14","random","","",""
"","352","32","1465","0","test_block","poldrack-single-stim","29","69141","0.0-5.0-15.0","go-nogo","true","0","","true","<div class = centerbox><div  id = stim1></div></div>","32","32","750","","test","go","15","random","","",""
"","-1","-1","1325","0","test_block","poldrack-single-stim","30","70593","0.0-5.0-16.0","go-nogo","true","0","","true","<div class = centerbox><div  id = stim2></div></div>","-1","32","750","","test","nogo","16","random","","",""
"","-1","-1","1230","0","test_block","poldrack-single-stim","31","71977","0.0-5.0-17.0","go-nogo","true","0","","true","<div class = centerbox><div  id = stim2></div></div>","-1","32","750","","test","nogo","17","random","","",""
"","326","32","1080","0","test_block","poldrack-single-stim","32","73175","0.0-5.0-18.0","go-nogo","true","0","","true","<div class = centerbox><div  id = stim1></div></div>","32","32","750","","test","go","18","random","","",""
"","349","32","1189","0","test_block","poldrack-single-stim","33","74454","0.0-5.0-19.0","go-nogo","true","0","","true","<div class = centerbox><div  id = stim1></div></div>","32","32","750","","test","go","19","random","","",""
"","292","32","1489","0","test_block","poldrack-single-stim","34","76065","0.0-5.0-20.0","go-nogo","true","0","","true","<div class = centerbox><div  id = stim1></div></div>","32","32","750","","test","go","20","random","","",""
"","274","32","1031","0","test_block","poldrack-single-stim","35","77224","0.0-5.0-21.0","go-nogo","true","0","","true","<div class = centerbox><div  id = stim1></div></div>","32","32","750","","test","go","21","random","","",""
"","282","32","1320","0","test_block","poldrack-single-stim","36","78673","0.0-5.0-22.0","go-nogo","true","0","","true","<div class = centerbox><div  id = stim1></div></div>","32","32","750","","test","go","22","random","","",""
"","299","32","1303","0","test_block","poldrack-single-stim","37","80101","0.0-5.0-23.0","go-nogo","true","0","","true","<div class = centerbox><div  id = stim1></div></div>","32","32","750","","test","go","23","random","","",""
"","-1","-1","1344","0","test_block","poldrack-single-stim","38","81591","0.0-5.0-24.0","go-nogo","true","0","","true","<div class = centerbox><div  id = stim2></div></div>","-1","32","750","","test","nogo","24","random","","",""
"","303","32","1342","0","test_block","poldrack-single-stim","39","83054","0.0-5.0-25.0","go-nogo","true","0","","true","<div class = centerbox><div  id = stim1></div></div>","32","32","750","","test","go","25","random","","",""
"","307","32","1418","0","test_block","poldrack-single-stim","40","84586","0.0-5.0-26.0","go-nogo","true","0","","true","<div class = centerbox><div  id = stim1></div></div>","32","32","750","","test","go","26","random","","",""
"","324","32","1307","0","test_block","poldrack-single-stim","41","86054","0.0-5.0-27.0","go-nogo","true","0","","true","<div class = centerbox><div  id = stim1></div></div>","32","32","750","","test","go","27","random","","",""
"","319","32","1489","0","test_block","poldrack-single-stim","42","87669","0.0-5.0-28.0","go-nogo","true","0","","true","<div class = centerbox><div  id = stim1></div></div>","32","32","750","","test","go","28","random","","",""
"","302","32","1181","0","test_block","poldrack-single-stim","43","88972","0.0-5.0-29.0","go-nogo","true","0","","true","<div class = centerbox><div  id = stim1></div></div>","32","32","750","","test","go","29","random","","",""
"","299","32","1181","0","test_block","poldrack-single-stim","44","90283","0.0-5.0-30.0","go-nogo","true","0","","true","<div class = centerbox><div  id = stim1></div></div>","32","32","750","","test","go","30","random","","",""
"","287","32","1281","0","test_block","poldrack-single-stim","45","91727","0.0-5.0-31.0","go-nogo","true","0","","true","<div class = centerbox><div  id = stim1></div></div>","32","32","750","","test","go","31","random","","",""
"","253","32","1326","0","test_block","poldrack-single-stim","46","93194","0.0-5.0-32.0","go-nogo","true","0","","true","<div class = centerbox><div  id = stim1></div></div>","32","32","750","","test","go","32","random","","",""
"","272","32","1009","0","test_block","poldrack-single-stim","47","94329","0.0-5.0-33.0","go-nogo","true","0","","true","<div class = centerbox><div  id = stim1></div></div>","32","32","750","","test","go","33","random","","",""
"","323","32","1359","0","test_block","poldrack-single-stim","48","95839","0.0-5.0-34.0","go-nogo","true","0","","true","<div class = centerbox><div  id = stim1></div></div>","32","32","750","","test","go","34","random","","",""
"","302","32","1274","0","test_block","poldrack-single-stim","49","97286","0.0-5.0-35.0","go-nogo","true","0","","true","<div class = centerbox><div  id = stim1></div></div>","32","32","750","","test","go","35","random","","",""
"","280","32","1361","0","test_block","poldrack-single-stim","50","98778","0.0-5.0-36.0","go-nogo","true","0","","true","<div class = centerbox><div  id = stim1></div></div>","32","32","750","","test","go","36","random","","",""
"","266","32","1206","0","test_block","poldrack-single-stim","51","100118","0.0-5.0-37.0","go-nogo","true","0","","true","<div class = centerbox><div  id = stim1></div></div>","32","32","750","","test","go","37","random","","",""
"","369","32","1379","0","test_block","poldrack-single-stim","52","101632","0.0-5.0-38.0","go-nogo","true","0","","true","<div class = centerbox><div  id = stim1></div></div>","32","32","750","","test","go","38","random","","",""
"","803","32","1062","0","test_block","poldrack-single-stim","53","102848","0.0-5.0-39.0","go-nogo","true","0","","true","<div class = centerbox><div  id = stim1></div></div>","32","32","750","","test","go","39","random","","",""
"","-1","-1","1065","0","test_block","poldrack-single-stim","54","104055","0.0-5.0-40.0","go-nogo","true","0","","false","<div class = centerbox><div  id = stim1></div></div>","32","32","750","","test","go","40","random","","",""
"","293","32","1046","0","test_block","poldrack-single-stim","55","105223","0.0-5.0-41.0","go-nogo","true","0","","true","<div class = centerbox><div  id = stim1></div></div>","32","32","750","","test","go","41","random","","",""
"","423","32","1095","0","test_block","poldrack-single-stim","56","106465","0.0-5.0-42.0","go-nogo","true","0","","true","<div class = centerbox><div  id = stim1></div></div>","32","32","750","","test","go","42","random","","",""
"","229","32","1266","0","test_block","poldrack-single-stim","57","107865","0.0-5.0-43.0","go-nogo","true","0","","true","<div class = centerbox><div  id = stim1></div></div>","32","32","750","","test","go","43","random","","",""
"","2","32","1036","0","test_block","poldrack-single-stim","58","109027","0.0-5.0-44.0","go-nogo","true","0","","true","<div class = centerbox><div  id = stim1></div></div>","32","32","750","","test","go","44","random","","",""
"","310","32","1249","0","test_block","poldrack-single-stim","59","110438","0.0-5.0-45.0","go-nogo","true","0","","true","<div class = centerbox><div  id = stim1></div></div>","32","32","750","","test","go","45","random","","",""
"","255","32","1020","0","test_block","poldrack-single-stim","60","111593","0.0-5.0-46.0","go-nogo","true","0","","true","<div class = centerbox><div  id = stim1></div></div>","32","32","750","","test","go","46","random","","",""
"","575","32","1232","0","test_block","poldrack-single-stim","61","113029","0.0-5.0-47.0","go-nogo","true","0","","true","<div class = centerbox><div  id = stim1></div></div>","32","32","750","","test","go","47","random","","",""
"","293","32","1146","0","test_block","poldrack-single-stim","62","114358","0.0-5.0-48.0","go-nogo","true","0","","true","<div class = centerbox><div  id = stim1></div></div>","32","32","750","","test","go","48","random","","",""
"","200","32","1006","0","test_block","poldrack-single-stim","63","115456","0.0-5.0-49.0","go-nogo","true","0","","true","<div class = centerbox><div  id = stim1></div></div>","32","32","750","","test","go","49","random","","",""
"","-1","-1","1209","0","test_block","poldrack-single-stim","64","116774","0.0-5.0-50.0","go-nogo","true","0","","true","<div class = centerbox><div  id = stim2></div></div>","-1","32","750","","test","nogo","50","random","","",""
"","389","32","1417","0","test_block","poldrack-single-stim","65","118289","0.0-5.0-51.0","go-nogo","true","0","","true","<div class = centerbox><div  id = stim1></div></div>","32","32","750","","test","go","51","random","","",""
"","566","32","1455","0","test_block","poldrack-single-stim","66","119862","0.0-5.0-52.0","go-nogo","true","0","","true","<div class = centerbox><div  id = stim1></div></div>","32","32","750","","test","go","52","random","","",""
"","984","32","1105","0","test_block","poldrack-single-stim","67","121060","0.0-5.0-53.0","go-nogo","true","0","","true","<div class = centerbox><div  id = stim1></div></div>","32","32","750","","test","go","53","random","","",""
"","318","32","1218","0","test_block","poldrack-single-stim","68","122358","0.0-5.0-54.0","go-nogo","true","0","","true","<div class = centerbox><div  id = stim1></div></div>","32","32","750","","test","go","54","random","","",""
"","498","32","1236","0","test_block","poldrack-single-stim","69","123691","0.0-5.0-55.0","go-nogo","true","0","","true","<div class = centerbox><div  id = stim1></div></div>","32","32","750","","test","go","55","random","","",""
"","534","32","1398","0","test_block","poldrack-single-stim","70","125179","0.0-5.0-56.0","go-nogo","true","0","","true","<div class = centerbox><div  id = stim1></div></div>","32","32","750","","test","go","56","random","","",""
"","642","32","1271","0","test_block","poldrack-single-stim","71","126522","0.0-5.0-57.0","go-nogo","true","0","","true","<div class = centerbox><div  id = stim1></div></div>","32","32","750","","test","go","57","random","","",""
"","273","32","1381","0","test_block","poldrack-single-stim","72","128007","0.0-5.0-58.0","go-nogo","true","0","","true","<div class = centerbox><div  id = stim1></div></div>","32","32","750","","test","go","58","random","","",""
"","264","32","1059","0","test_block","poldrack-single-stim","73","129186","0.0-5.0-59.0","go-nogo","true","0","","true","<div class = centerbox><div  id = stim1></div></div>","32","32","750","","test","go","59","random","","",""
"","368","32","1012","0","test_block","poldrack-single-stim","74","130312","0.0-5.0-60.0","go-nogo","true","0","","true","<div class = centerbox><div  id = stim1></div></div>","32","32","750","","test","go","60","random","","",""
"","495","32","1270","0","test_block","poldrack-single-stim","75","131704","0.0-5.0-61.0","go-nogo","true","0","","true","<div class = centerbox><div  id = stim1></div></div>","32","32","750","","test","go","61","random","","",""
"","287","32","1271","0","test_block","poldrack-single-stim","76","133075","0.0-5.0-62.0","go-nogo","true","0","","true","<div class = centerbox><div  id = stim1></div></div>","32","32","750","","test","go","62","random","","",""
"","421","32","1456","0","test_block","poldrack-single-stim","77","134642","0.0-5.0-63.0","go-nogo","true","0","","true","<div class = centerbox><div  id = stim1></div></div>","32","32","750","","test","go","63","random","","",""
"","274","32","1114","0","test_block","poldrack-single-stim","78","135879","0.0-5.0-64.0","go-nogo","true","0","","true","<div class = centerbox><div  id = stim1></div></div>","32","32","750","","test","go","64","random","","",""
"","329","32","1316","0","test_block","poldrack-single-stim","79","137314","0.0-5.0-65.0","go-nogo","true","0","","true","<div class = centerbox><div  id = stim1></div></div>","32","32","750","","test","go","65","random","","",""
"","272","32","1362","0","test_block","poldrack-single-stim","80","138779","0.0-5.0-66.0","go-nogo","true","0","","true","<div class = centerbox><div  id = stim1></div></div>","32","32","750","","test","go","66","random","","",""
"","255","32","1273","0","test_block","poldrack-single-stim","81","140119","0.0-5.0-67.0","go-nogo","true","0","","true","<div class = centerbox><div  id = stim1></div></div>","32","32","750","","test","go","67","random","","",""
"","251","32","1007","0","test_block","poldrack-single-stim","82","141231","0.0-5.0-68.0","go-nogo","true","0","","true","<div class = centerbox><div  id = stim1></div></div>","32","32","750","","test","go","68","random","","",""
"","261","32","1151","0","test_block","poldrack-single-stim","83","142502","0.0-5.0-69.0","go-nogo","true","0","","true","<div class = centerbox><div  id = stim1></div></div>","32","32","750","","test","go","69","random","","",""
"","235","32","1438","0","test_block","poldrack-single-stim","84","144043","0.0-5.0-70.0","go-nogo","true","0","","true","<div class = centerbox><div  id = stim1></div></div>","32","32","750","","test","go","70","random","","",""
"","275","32","1297","0","test_block","poldrack-single-stim","85","145452","0.0-5.0-71.0","go-nogo","true","0","","true","<div class = centerbox><div  id = stim1></div></div>","32","32","750","","test","go","71","random","","",""
"","384","32","1112","0","test_block","poldrack-single-stim","86","146685","0.0-5.0-72.0","go-nogo","true","0","","true","<div class = centerbox><div  id = stim1></div></div>","32","32","750","","test","go","72","random","","",""
"","252","32","1074","0","test_block","poldrack-single-stim","87","147894","0.0-5.0-73.0","go-nogo","true","0","","true","<div class = centerbox><div  id = stim1></div></div>","32","32","750","","test","go","73","random","","",""
"","-1","-1","1200","0","test_block","poldrack-single-stim","88","149211","0.0-5.0-74.0","go-nogo","true","0","","true","<div class = centerbox><div  id = stim2></div></div>","-1","32","750","","test","nogo","74","random","","",""
"","295","32","1399","0","test_block","poldrack-single-stim","89","150728","0.0-5.0-75.0","go-nogo","true","0","","true","<div class = centerbox><div  id = stim1></div></div>","32","32","750","","test","go","75","random","","",""
"","-1","-1","1180","0","test_block","poldrack-single-stim","90","152012","0.0-5.0-76.0","go-nogo","true","2","","false","<div class = centerbox><div  id = stim1></div></div>","32","32","750","","test","go","76","random","","",""
"","605","32","1248","0","test_block","poldrack-single-stim","91","153343","0.0-5.0-77.0","go-nogo","true","0","","true","<div class = centerbox><div  id = stim1></div></div>","32","32","750","","test","go","77","random","","",""
"","341","32","1348","0","test_block","poldrack-single-stim","92","154793","0.0-5.0-78.0","go-nogo","true","0","","true","<div class = centerbox><div  id = stim1></div></div>","32","32","750","","test","go","78","random","","",""
"","321","32","1300","0","test_block","poldrack-single-stim","93","156219","0.0-5.0-79.0","go-nogo","true","0","","true","<div class = centerbox><div  id = stim1></div></div>","32","32","750","","test","go","79","random","","",""
"","268","32","1329","0","test_block","poldrack-single-stim","94","157675","0.0-5.0-80.0","go-nogo","true","0","","true","<div class = centerbox><div  id = stim1></div></div>","32","32","750","","test","go","80","random","","",""
"","207","32","1235","0","test_block","poldrack-single-stim","95","159047","0.0-5.0-81.0","go-nogo","true","0","","true","<div class = centerbox><div  id = stim1></div></div>","32","32","750","","test","go","81","random","","",""
"","245","32","1296","0","test_block","poldrack-single-stim","96","160484","0.0-5.0-82.0","go-nogo","true","0","","false","<div class = centerbox><div  id = stim2></div></div>","-1","32","750","","test","nogo","82","random","","",""
"","271","32","1025","0","test_block","poldrack-single-stim","97","161607","0.0-5.0-83.0","go-nogo","true","0","","true","<div class = centerbox><div  id = stim1></div></div>","32","32","750","","test","go","83","random","","",""
"","822","32","1009","0","test_block","poldrack-single-stim","98","162696","0.0-5.0-84.0","go-nogo","true","0","","true","<div class = centerbox><div  id = stim1></div></div>","32","32","750","","test","go","84","random","","",""
"","286","32","1335","0","test_block","poldrack-single-stim","99","164127","0.0-5.0-85.0","go-nogo","true","0","","true","<div class = centerbox><div  id = stim1></div></div>","32","32","750","","test","go","85","random","","",""
"","252","32","1034","0","test_block","poldrack-single-stim","100","165256","0.0-5.0-86.0","go-nogo","true","0","","true","<div class = centerbox><div  id = stim1></div></div>","32","32","750","","test","go","86","random","","",""
"","462","32","1138","0","test_block","poldrack-single-stim","101","166502","0.0-5.0-87.0","go-nogo","true","0","","true","<div class = centerbox><div  id = stim1></div></div>","32","32","750","","test","go","87","random","","",""
"","-1","-1","1334","0","test_block","poldrack-single-stim","102","167919","0.0-5.0-88.0","go-nogo","true","0","","true","<div class = centerbox><div  id = stim2></div></div>","-1","32","750","","test","nogo","88","random","","",""
"","743","32","1313","0","test_block","poldrack-single-stim","103","169302","0.0-5.0-89.0","go-nogo","true","0","","true","<div class = centerbox><div  id = stim1></div></div>","32","32","750","","test","go","89","random","","",""
"","375","32","1133","0","test_block","poldrack-single-stim","104","170518","0.0-5.0-90.0","go-nogo","true","0","","true","<div class = centerbox><div  id = stim1></div></div>","32","32","750","","test","go","90","random","","",""
"","336","32","1131","0","test_block","poldrack-single-stim","105","171735","0.0-5.0-91.0","go-nogo","true","0","","true","<div class = centerbox><div  id = stim1></div></div>","32","32","750","","test","go","91","random","","",""
"","27","32","1056","0","test_block","poldrack-single-stim","106","172851","0.0-5.0-92.0","go-nogo","true","0","","true","<div class = centerbox><div  id = stim1></div></div>","32","32","750","","test","go","92","random","","",""
"","239","32","1009","0","test_block","poldrack-single-stim","107","173945","0.0-5.0-93.0","go-nogo","true","0","","true","<div class = centerbox><div  id = stim1></div></div>","32","32","750","","test","go","93","random","","",""
"","89","32","1358","0","test_block","poldrack-single-stim","108","175425","0.0-5.0-94.0","go-nogo","true","0","","false","<div class = centerbox><div  id = stim2></div></div>","-1","32","750","","test","nogo","94","random","","",""
"","271","32","1090","0","test_block","poldrack-single-stim","109","176585","0.0-5.0-95.0","go-nogo","true","0","","true","<div class = centerbox><div  id = stim1></div></div>","32","32","750","","test","go","95","random","","",""
"","441","32","1025","0","test_block","poldrack-single-stim","110","177731","0.0-5.0-96.0","go-nogo","true","0","","true","<div class = centerbox><div  id = stim1></div></div>","32","32","750","","test","go","96","random","","",""
"","333","32","1320","0","test_block","poldrack-single-stim","111","179171","0.0-5.0-97.0","go-nogo","true","0","","true","<div class = centerbox><div  id = stim1></div></div>","32","32","750","","test","go","97","random","","",""
"","509","32","1261","0","test_block","poldrack-single-stim","112","180541","0.0-5.0-98.0","go-nogo","true","0","","true","<div class = centerbox><div  id = stim1></div></div>","32","32","750","","test","go","98","random","","",""
"","-1","-1","1211","0","test_block","poldrack-single-stim","113","181862","0.0-5.0-99.0","go-nogo","true","0","","false","<div class = centerbox><div  id = stim1></div></div>","32","32","750","","test","go","99","random","","",""
"","2","32","1057","0","test_block","poldrack-single-stim","114","183056","0.0-5.0-100.0","go-nogo","true","0","","true","<div class = centerbox><div  id = stim1></div></div>","32","32","750","","test","go","100","random","","",""
"","864","32","1064","0","test_block","poldrack-single-stim","115","184216","0.0-5.0-101.0","go-nogo","true","0","","true","<div class = centerbox><div  id = stim1></div></div>","32","32","750","","test","go","101","random","","",""
"","321","32","1094","0","test_block","poldrack-single-stim","116","185433","0.0-5.0-102.0","go-nogo","true","0","","true","<div class = centerbox><div  id = stim1></div></div>","32","32","750","","test","go","102","random","","",""
"","711","32","1350","0","test_block","poldrack-single-stim","117","186893","0.0-5.0-103.0","go-nogo","true","0","","true","<div class = centerbox><div  id = stim1></div></div>","32","32","750","","test","go","103","random","","",""
"","238","32","1288","0","test_block","poldrack-single-stim","118","188255","0.0-5.0-104.0","go-nogo","true","0","","true","<div class = centerbox><div  id = stim1></div></div>","32","32","750","","test","go","104","random","","",""
"","305","32","1231","0","test_block","poldrack-single-stim","119","189602","0.0-5.0-105.0","go-nogo","true","0","","true","<div class = centerbox><div  id = stim1></div></div>","32","32","750","","test","go","105","random","","",""
"","-1","-1","1468","0","test_block","poldrack-single-stim","120","191193","0.0-5.0-106.0","go-nogo","true","0","","true","<div class = centerbox><div  id = stim2></div></div>","-1","32","750","","test","nogo","106","random","","",""
"","701","32","1051","0","test_block","poldrack-single-stim","121","192363","0.0-5.0-107.0","go-nogo","true","0","","true","<div class = centerbox><div  id = stim1></div></div>","32","32","750","","test","go","107","random","","",""
"","299","32","1367","0","test_block","poldrack-single-stim","122","193849","0.0-5.0-108.0","go-nogo","true","0","","true","<div class = centerbox><div  id = stim1></div></div>","32","32","750","","test","go","108","random","","",""
"","220","32","1241","0","test_block","poldrack-single-stim","123","195225","0.0-5.0-109.0","go-nogo","true","0","","true","<div class = centerbox><div  id = stim1></div></div>","32","32","750","","test","go","109","random","","",""
"","297","32","1491","0","test_block","poldrack-single-stim","124","196844","0.0-5.0-110.0","go-nogo","true","0","","true","<div class = centerbox><div  id = stim1></div></div>","32","32","750","","test","go","110","random","","",""
"","332","32","1442","0","test_block","poldrack-single-stim","125","198389","0.0-5.0-111.0","go-nogo","true","0","","true","<div class = centerbox><div  id = stim1></div></div>","32","32","750","","test","go","111","random","","",""
"","209","32","1410","0","test_block","poldrack-single-stim","126","199904","0.0-5.0-112.0","go-nogo","true","0","","true","<div class = centerbox><div  id = stim1></div></div>","32","32","750","","test","go","112","random","","",""
"","280","32","1251","0","test_block","poldrack-single-stim","127","201283","0.0-5.0-113.0","go-nogo","true","0","","true","<div class = centerbox><div  id = stim1></div></div>","32","32","750","","test","go","113","random","","",""
"","379","32","1172","0","test_block","poldrack-single-stim","128","202567","0.0-5.0-114.0","go-nogo","true","0","","true","<div class = centerbox><div  id = stim1></div></div>","32","32","750","","test","go","114","random","","",""
"","298","32","1236","0","test_block","poldrack-single-stim","129","203909","0.0-5.0-115.0","go-nogo","true","0","","true","<div class = centerbox><div  id = stim1></div></div>","32","32","750","","test","go","115","random","","",""
"","-1","-1","1310","0","test_block","poldrack-single-stim","130","205328","0.0-5.0-116.0","go-nogo","true","0","","false","<div class = centerbox><div  id = stim1></div></div>","32","32","750","","test","go","116","random","","",""
"","531","32","1171","0","test_block","poldrack-single-stim","131","206615","0.0-5.0-117.0","go-nogo","true","0","","true","<div class = centerbox><div  id = stim1></div></div>","32","32","750","","test","go","117","random","","",""
"","408","32","1111","0","test_block","poldrack-single-stim","132","207839","0.0-5.0-118.0","go-nogo","true","0","","true","<div class = centerbox><div  id = stim1></div></div>","32","32","750","","test","go","118","random","","",""
"","462","32","1016","0","test_block","poldrack-single-stim","133","208961","0.0-5.0-119.0","go-nogo","true","0","","true","<div class = centerbox><div  id = stim1></div></div>","32","32","750","","test","go","119","random","","",""
"","291","32","1132","0","test_block","poldrack-single-stim","134","210221","0.0-5.0-120.0","go-nogo","true","0","","true","<div class = centerbox><div  id = stim1></div></div>","32","32","750","","test","go","120","random","","",""
"","253","32","1419","0","test_block","poldrack-single-stim","135","211778","0.0-5.0-121.0","go-nogo","true","0","","true","<div class = centerbox><div  id = stim1></div></div>","32","32","750","","test","go","121","random","","",""
"","357","32","1216","0","test_block","poldrack-single-stim","136","213109","0.0-5.0-122.0","go-nogo","true","0","","true","<div class = centerbox><div  id = stim1></div></div>","32","32","750","","test","go","122","random","","",""
"","-1","-1","1430","0","test_block","poldrack-single-stim","137","214666","0.0-5.0-123.0","go-nogo","true","1","","false","<div class = centerbox><div  id = stim1></div></div>","32","32","750","","test","go","123","random","","",""
"","-1","-1","1247","0","test_block","poldrack-single-stim","138","215994","0.0-5.0-124.0","go-nogo","true","0","","false","<div class = centerbox><div  id = stim1></div></div>","32","32","750","","test","go","124","random","","",""
"","826","32","1088","0","test_block","poldrack-single-stim","139","217184","0.0-5.0-125.0","go-nogo","true","0","","true","<div class = centerbox><div  id = stim1></div></div>","32","32","750","","test","go","125","random","","",""
"","-1","-1","1271","0","test_block","poldrack-single-stim","140","218555","0.0-5.0-126.0","go-nogo","true","0","","true","<div class = centerbox><div  id = stim2></div></div>","-1","32","750","","test","nogo","126","random","","",""
"","403","32","1234","0","test_block","poldrack-single-stim","141","219884","0.0-5.0-127.0","go-nogo","true","0","","true","<div class = centerbox><div  id = stim1></div></div>","32","32","750","","test","go","127","random","","",""
"","545","32","1122","0","test_block","poldrack-single-stim","142","221142","0.0-5.0-128.0","go-nogo","true","0","","true","<div class = centerbox><div  id = stim1></div></div>","32","32","750","","test","go","128","random","","",""
"","-1","-1","1337","0","test_block","poldrack-single-stim","143","222602","0.0-5.0-129.0","go-nogo","true","0","","true","<div class = centerbox><div  id = stim2></div></div>","-1","32","750","","test","nogo","129","random","","",""
"","-1","-1","1166","0","test_block","poldrack-single-stim","144","223900","0.0-5.0-130.0","go-nogo","true","0","","false","<div class = centerbox><div  id = stim1></div></div>","32","32","750","","test","go","130","random","","",""
"","-1","-1","1486","0","test_block","poldrack-single-stim","145","225527","0.0-5.0-131.0","go-nogo","true","0","","true","<div class = centerbox><div  id = stim2></div></div>","-1","32","750","","test","nogo","131","random","","",""
"","-1","-1","1326","0","test_block","poldrack-single-stim","146","226987","0.0-5.0-132.0","go-nogo","true","0","","true","<div class = centerbox><div  id = stim2></div></div>","-1","32","750","","test","nogo","132","random","","",""
"","569","32","1228","0","test_block","poldrack-single-stim","147","228334","0.0-5.0-133.0","go-nogo","true","0","","true","<div class = centerbox><div  id = stim1></div></div>","32","32","750","","test","go","133","random","","",""
"","717","32","1239","0","test_block","poldrack-single-stim","148","229688","0.0-5.0-134.0","go-nogo","true","0","","true","<div class = centerbox><div  id = stim1></div></div>","32","32","750","","test","go","134","random","","",""
"","702","32","1281","0","test_block","poldrack-single-stim","149","231087","0.0-5.0-135.0","go-nogo","true","0","","true","<div class = centerbox><div  id = stim1></div></div>","32","32","750","","test","go","135","random","","",""
"","-1","-1","1108","0","test_block","poldrack-single-stim","150","232332","0.0-5.0-136.0","go-nogo","true","0","","false","<div class = centerbox><div  id = stim1></div></div>","32","32","750","","test","go","136","random","","",""
"","271","32","1316","0","test_block","poldrack-single-stim","151","233763","0.0-5.0-137.0","go-nogo","true","0","","true","<div class = centerbox><div  id = stim1></div></div>","32","32","750","","test","go","137","random","","",""
"","597","32","1023","0","test_block","poldrack-single-stim","152","234903","0.0-5.0-138.0","go-nogo","true","0","","true","<div class = centerbox><div  id = stim1></div></div>","32","32","750","","test","go","138","random","","",""
"","-1","-1","1056","0","test_block","poldrack-single-stim","153","236064","0.0-5.0-139.0","go-nogo","true","0","","false","<div class = centerbox><div  id = stim1></div></div>","32","32","750","","test","go","139","random","","",""
"","268","32","1287","0","test_block","poldrack-single-stim","154","237496","0.0-5.0-140.0","go-nogo","true","0","","true","<div class = centerbox><div  id = stim1></div></div>","32","32","750","","test","go","140","random","","",""
"","-1","-1","1489","0","test_block","poldrack-single-stim","155","239098","0.0-5.0-141.0","go-nogo","true","0","","true","<div class = centerbox><div  id = stim2></div></div>","-1","32","750","","test","nogo","141","random","","",""
"","426","32","1134","0","test_block","poldrack-single-stim","156","240354","0.0-5.0-142.0","go-nogo","true","0","","true","<div class = centerbox><div  id = stim1></div></div>","32","32","750","","test","go","142","random","","",""
"","537","32","1281","0","test_block","poldrack-single-stim","157","241749","0.0-5.0-143.0","go-nogo","true","0","","true","<div class = centerbox><div  id = stim1></div></div>","32","32","750","","test","go","143","random","","",""
"","552","32","1429","0","test_block","poldrack-single-stim","158","243299","0.0-5.0-144.0","go-nogo","true","0","","true","<div class = centerbox><div  id = stim1></div></div>","32","32","750","","test","go","144","random","","",""
"","314","32","1216","0","test_block","poldrack-single-stim","159","244629","0.0-5.0-145.0","go-nogo","true","0","","true","<div class = centerbox><div  id = stim1></div></div>","32","32","750","","test","go","145","random","","",""
"","623","32","1432","0","test_block","poldrack-single-stim","160","246202","0.0-5.0-146.0","go-nogo","true","0","","true","<div class = centerbox><div  id = stim1></div></div>","32","32","750","","test","go","146","random","","",""
"","411","32","1226","0","test_block","poldrack-single-stim","161","247547","0.0-5.0-147.0","go-nogo","true","0","","true","<div class = centerbox><div  id = stim1></div></div>","32","32","750","","test","go","147","random","","",""
"","392","32","1307","0","test_block","poldrack-single-stim","162","249005","0.0-5.0-148.0","go-nogo","true","0","","true","<div class = centerbox><div  id = stim1></div></div>","32","32","750","","test","go","148","random","","",""
"","877","32","1287","0","test_block","poldrack-single-stim","163","250395","0.0-5.0-149.0","go-nogo","true","0","","true","<div class = centerbox><div  id = stim1></div></div>","32","32","750","","test","go","149","random","","",""
"","288","32","1496","0","test_block","poldrack-single-stim","164","252015","0.0-5.0-150.0","go-nogo","true","0","","true","<div class = centerbox><div  id = stim1></div></div>","32","32","750","","test","go","150","random","","",""
"","696","32","1262","0","test_block","poldrack-single-stim","165","253404","0.0-5.0-151.0","go-nogo","true","0","","true","<div class = centerbox><div  id = stim1></div></div>","32","32","750","","test","go","151","random","","",""
"","792","32","1362","0","test_block","poldrack-single-stim","166","254862","0.0-5.0-152.0","go-nogo","true","0","","true","<div class = centerbox><div  id = stim1></div></div>","32","32","750","","test","go","152","random","","",""
"","-1","-1","1096","0","test_block","poldrack-single-stim","167","256082","0.0-5.0-153.0","go-nogo","true","0","","true","<div class = centerbox><div  id = stim2></div></div>","-1","32","750","","test","nogo","153","random","","",""
"","471","32","1192","0","test_block","poldrack-single-stim","168","257392","0.0-5.0-154.0","go-nogo","true","0","","true","<div class = centerbox><div  id = stim1></div></div>","32","32","750","","test","go","154","random","","",""
"","400","32","1072","0","test_block","poldrack-single-stim","169","258578","0.0-5.0-155.0","go-nogo","true","0","","true","<div class = centerbox><div  id = stim1></div></div>","32","32","750","","test","go","155","random","","",""
"","604","32","1121","0","test_block","poldrack-single-stim","170","259803","0.0-5.0-156.0","go-nogo","true","0","","true","<div class = centerbox><div  id = stim1></div></div>","32","32","750","","test","go","156","random","","",""
"","663","32","1299","0","test_block","poldrack-single-stim","171","261226","0.0-5.0-157.0","go-nogo","true","0","","false","<div class = centerbox><div  id = stim2></div></div>","-1","32","750","","test","nogo","157","random","","",""
"","1015","32","1063","0","test_block","poldrack-single-stim","172","262397","0.0-5.0-158.0","go-nogo","true","0","","true","<div class = centerbox><div  id = stim1></div></div>","32","32","750","","test","go","158","random","","",""
"","274","32","1032","0","test_block","poldrack-single-stim","173","263538","0.0-5.0-159.0","go-nogo","true","0","","false","<div class = centerbox><div  id = stim2></div></div>","-1","32","750","","test","nogo","159","random","","",""
"","-1","-1","1108","0","test_block","poldrack-single-stim","174","264776","0.0-5.0-160.0","go-nogo","true","0","","false","<div class = centerbox><div  id = stim1></div></div>","32","32","750","","test","go","160","random","","",""
"","697","32","1365","0","test_block","poldrack-single-stim","175","266236","0.0-5.0-161.0","go-nogo","true","0","","true","<div class = centerbox><div  id = stim1></div></div>","32","32","750","","test","go","161","random","","",""
"","-1","-1","1309","0","test_block","poldrack-single-stim","176","267645","0.0-5.0-162.0","go-nogo","true","0","","false","<div class = centerbox><div  id = stim1></div></div>","32","32","750","","test","go","162","random","","",""
"","979","32","1489","0","test_block","poldrack-single-stim","177","269236","0.0-5.0-163.0","go-nogo","true","0","","true","<div class = centerbox><div  id = stim1></div></div>","32","32","750","","test","go","163","random","","",""
"","349","32","1478","0","test_block","poldrack-single-stim","178","270839","0.0-5.0-164.0","go-nogo","true","0","","true","<div class = centerbox><div  id = stim1></div></div>","32","32","750","","test","go","164","random","","",""
"","-1","-1","1270","0","test_block","poldrack-single-stim","179","272264","0.0-5.0-165.0","go-nogo","true","0","","true","<div class = centerbox><div  id = stim2></div></div>","-1","32","750","","test","nogo","165","random","","",""
"","-1","-1","1213","0","test_block","poldrack-single-stim","180","273590","0.0-5.0-166.0","go-nogo","true","0","","true","<div class = centerbox><div  id = stim2></div></div>","-1","32","750","","test","nogo","166","random","","",""
"","378","32","1086","0","test_block","poldrack-single-stim","181","274790","0.0-5.0-167.0","go-nogo","true","0","","true","<div class = centerbox><div  id = stim1></div></div>","32","32","750","","test","go","167","random","","",""
"","-1","-1","1023","0","test_block","poldrack-single-stim","182","275921","0.0-5.0-168.0","go-nogo","true","0","","false","<div class = centerbox><div  id = stim1></div></div>","32","32","750","","test","go","168","random","","",""
"","648","32","1421","0","test_block","poldrack-single-stim","183","277440","0.0-5.0-169.0","go-nogo","true","0","","true","<div class = centerbox><div  id = stim1></div></div>","32","32","750","","test","go","169","random","","",""
"","-1","-1","1443","0","test_block","poldrack-single-stim","184","279004","0.0-5.0-170.0","go-nogo","true","0","","false","<div class = centerbox><div  id = stim1></div></div>","32","32","750","","test","go","170","random","","",""
"","357","32","1095","0","test_block","poldrack-single-stim","185","280218","0.0-5.0-171.0","go-nogo","true","0","","true","<div class = centerbox><div  id = stim1></div></div>","32","32","750","","test","go","171","random","","",""
"","587","32","1307","0","test_block","poldrack-single-stim","186","281639","0.0-5.0-172.0","go-nogo","true","0","","true","<div class = centerbox><div  id = stim1></div></div>","32","32","750","","test","go","172","random","","",""
"","575","32","1118","0","test_block","poldrack-single-stim","187","282869","0.0-5.0-173.0","go-nogo","true","0","","true","<div class = centerbox><div  id = stim1></div></div>","32","32","750","","test","go","173","random","","",""
"","-1","-1","1237","0","test_block","poldrack-single-stim","188","284210","0.0-5.0-174.0","go-nogo","true","0","","false","<div class = centerbox><div  id = stim1></div></div>","32","32","750","","test","go","174","random","","",""
"","-1","-1","1138","0","test_block","poldrack-single-stim","189","285456","0.0-5.0-175.0","go-nogo","true","0","","false","<div class = centerbox><div  id = stim1></div></div>","32","32","750","","test","go","175","random","","",""
"","784","32","1263","0","test_block","poldrack-single-stim","190","286838","0.0-5.0-176.0","go-nogo","true","0","","true","<div class = centerbox><div  id = stim1></div></div>","32","32","750","","test","go","176","random","","",""
"","293","32","1067","0","test_block","poldrack-single-stim","191","288061","0.0-5.0-177.0","go-nogo","true","0","","true","<div class = centerbox><div  id = stim1></div></div>","32","32","750","","test","go","177","random","","",""
"","412","32","1479","0","test_block","poldrack-single-stim","192","289666","0.0-5.0-178.0","go-nogo","true","0","","true","<div class = centerbox><div  id = stim1></div></div>","32","32","750","","test","go","178","random","","",""
"","617","32","1265","0","test_block","poldrack-single-stim","193","291052","0.0-5.0-179.0","go-nogo","true","0","","true","<div class = centerbox><div  id = stim1></div></div>","32","32","750","","test","go","179","random","","",""
"","408","32","1052","0","test_block","poldrack-single-stim","194","292226","0.0-5.0-180.0","go-nogo","true","0","","true","<div class = centerbox><div  id = stim1></div></div>","32","32","750","","test","go","180","random","","",""
"","604","32","1384","0","test_block","poldrack-single-stim","195","293726","0.0-5.0-181.0","go-nogo","true","0","","true","<div class = centerbox><div  id = stim1></div></div>","32","32","750","","test","go","181","random","","",""
"","551","32","1092","0","test_block","poldrack-single-stim","196","294947","0.0-5.0-182.0","go-nogo","true","0","","true","<div class = centerbox><div  id = stim1></div></div>","32","32","750","","test","go","182","random","","",""
"","612","32","1042","0","test_block","poldrack-single-stim","197","296106","0.0-5.0-183.0","go-nogo","true","0","","true","<div class = centerbox><div  id = stim1></div></div>","32","32","750","","test","go","183","random","","",""
"","613","32","1198","0","test_block","poldrack-single-stim","198","297421","0.0-5.0-184.0","go-nogo","true","0","","true","<div class = centerbox><div  id = stim1></div></div>","32","32","750","","test","go","184","random","","",""
"","-1","-1","1380","0","test_block","poldrack-single-stim","199","298903","0.0-5.0-185.0","go-nogo","true","0","","false","<div class = centerbox><div  id = stim1></div></div>","32","32","750","","test","go","185","random","","",""
"","246","32","1400","0","test_block","poldrack-single-stim","200","300416","0.0-5.0-186.0","go-nogo","true","0","","true","<div class = centerbox><div  id = stim1></div></div>","32","32","750","","test","go","186","random","","",""
"","-1","-1","1421","0","test_block","poldrack-single-stim","201","301962","0.0-5.0-187.0","go-nogo","true","0","","false","<div class = centerbox><div  id = stim1></div></div>","32","32","750","","test","go","187","random","","",""
"","717","32","1270","0","test_block","poldrack-single-stim","202","303341","0.0-5.0-188.0","go-nogo","true","0","","true","<div class = centerbox><div  id = stim1></div></div>","32","32","750","","test","go","188","random","","",""
"","392","32","1202","0","test_block","poldrack-single-stim","203","304663","0.0-5.0-189.0","go-nogo","true","0","","true","<div class = centerbox><div  id = stim1></div></div>","32","32","750","","test","go","189","random","","",""
"","440","32","1479","0","test_block","poldrack-single-stim","204","306249","0.0-5.0-190.0","go-nogo","true","0","","true","<div class = centerbox><div  id = stim1></div></div>","32","32","750","","test","go","190","random","","",""
"","921","32","1221","0","test_block","poldrack-single-stim","205","307583","0.0-5.0-191.0","go-nogo","true","0","","true","<div class = centerbox><div  id = stim1></div></div>","32","32","750","","test","go","191","random","","",""
"","253","32","1321","0","test_block","poldrack-single-stim","206","309021","0.0-5.0-192.0","go-nogo","true","0","","true","<div class = centerbox><div  id = stim1></div></div>","32","32","750","","test","go","192","random","","",""
"","1007","32","1441","0","test_block","poldrack-single-stim","207","310587","0.0-5.0-193.0","go-nogo","true","0","","true","<div class = centerbox><div  id = stim1></div></div>","32","32","750","","test","go","193","random","","",""
"","365","32","1061","0","test_block","poldrack-single-stim","208","311752","0.0-5.0-194.0","go-nogo","true","0","","true","<div class = centerbox><div  id = stim1></div></div>","32","32","750","","test","go","194","random","","",""
"","646","32","1028","0","test_block","poldrack-single-stim","209","312912","0.0-5.0-195.0","go-nogo","true","0","","true","<div class = centerbox><div  id = stim1></div></div>","32","32","750","","test","go","195","random","","",""
"","569","32","1060","0","test_block","poldrack-single-stim","210","314087","0.0-5.0-196.0","go-nogo","true","0","","true","<div class = centerbox><div  id = stim1></div></div>","32","32","750","","test","go","196","random","","",""
"","438","32","1029","0","test_block","poldrack-single-stim","211","315233","0.0-5.0-197.0","go-nogo","true","0","","true","<div class = centerbox><div  id = stim1></div></div>","32","32","750","","test","go","197","random","","",""
"","537","32","1272","0","test_block","poldrack-single-stim","212","316629","0.0-5.0-198.0","go-nogo","true","0","","true","<div class = centerbox><div  id = stim1></div></div>","32","32","750","","test","go","198","random","","",""
"","297","32","1146","0","test_block","poldrack-single-stim","213","317879","0.0-5.0-199.0","go-nogo","true","0","","true","<div class = centerbox><div  id = stim1></div></div>","32","32","750","","test","go","199","random","","",""
"","134","32","1074","0","test_block","poldrack-single-stim","214","319102","0.0-5.0-200.0","go-nogo","true","0","","true","<div class = centerbox><div  id = stim1></div></div>","32","32","750","","test","go","200","random","","",""
"","285","32","1408","0","test_block","poldrack-single-stim","215","320617","0.0-5.0-201.0","go-nogo","true","0","","true","<div class = centerbox><div  id = stim1></div></div>","32","32","750","","test","go","201","random","","",""
"","161","32","1282","0","test_block","poldrack-single-stim","216","322012","0.0-5.0-202.0","go-nogo","true","0","","true","<div class = centerbox><div  id = stim1></div></div>","32","32","750","","test","go","202","random","","",""
"","133","32","1182","0","test_block","poldrack-single-stim","217","323307","0.0-5.0-203.0","go-nogo","true","0","","true","<div class = centerbox><div  id = stim1></div></div>","32","32","750","","test","go","203","random","","",""
"","314","32","1388","0","test_block","poldrack-single-stim","218","324817","0.0-5.0-204.0","go-nogo","true","0","","true","<div class = centerbox><div  id = stim1></div></div>","32","32","750","","test","go","204","random","","",""
"","110","32","1251","0","test_block","poldrack-single-stim","219","326181","0.0-5.0-205.0","go-nogo","true","0","","false","<div class = centerbox><div  id = stim2></div></div>","-1","32","750","","test","nogo","205","random","","",""
"","591","32","1015","0","test_block","poldrack-single-stim","220","327327","0.0-5.0-206.0","go-nogo","true","0","","true","<div class = centerbox><div  id = stim1></div></div>","32","32","750","","test","go","206","random","","",""
"","864","32","1191","0","test_block","poldrack-single-stim","221","328625","0.0-5.0-207.0","go-nogo","true","0","","true","<div class = centerbox><div  id = stim1></div></div>","32","32","750","","test","go","207","random","","",""
"","330","32","1425","0","test_block","poldrack-single-stim","222","330163","0.0-5.0-208.0","go-nogo","true","0","","true","<div class = centerbox><div  id = stim1></div></div>","32","32","750","","test","go","208","random","","",""
"","267","32","1239","0","test_block","poldrack-single-stim","223","331499","0.0-5.0-209.0","go-nogo","true","0","","true","<div class = centerbox><div  id = stim1></div></div>","32","32","750","","test","go","209","random","","",""
"","499","32","1487","0","test_block","poldrack-single-stim","224","333111","0.0-5.0-210.0","go-nogo","true","1","","true","<div class = centerbox><div  id = stim1></div></div>","32","32","750","","test","go","210","random","","",""
"","-1","-1","1223","0","test_block","poldrack-single-stim","225","334388","0.0-5.0-211.0","go-nogo","true","0","","false","<div class = centerbox><div  id = stim1></div></div>","32","32","750","","test","go","211","random","","",""
"","509","32","1159","0","test_block","poldrack-single-stim","226","335654","0.0-5.0-212.0","go-nogo","true","0","","true","<div class = centerbox><div  id = stim1></div></div>","32","32","750","","test","go","212","random","","",""
"","358","32","1125","0","test_block","poldrack-single-stim","227","336884","0.0-5.0-213.0","go-nogo","true","0","","true","<div class = centerbox><div  id = stim1></div></div>","32","32","750","","test","go","213","random","","",""
"","403","32","1265","0","test_block","poldrack-single-stim","228","338279","0.0-5.0-214.0","go-nogo","true","0","","true","<div class = centerbox><div  id = stim1></div></div>","32","32","750","","test","go","214","random","","",""
"","247","32","1029","0","test_block","poldrack-single-stim","229","339438","0.0-5.0-215.0","go-nogo","true","0","","true","<div class = centerbox><div  id = stim1></div></div>","32","32","750","","test","go","215","random","","",""
"","235","32","1496","0","test_block","poldrack-single-stim","230","341051","0.0-5.0-216.0","go-nogo","true","0","","true","<div class = centerbox><div  id = stim1></div></div>","32","32","750","","test","go","216","random","","",""
"","-1","-1","1088","0","test_block","poldrack-single-stim","231","342279","0.0-5.0-217.0","go-nogo","true","1","","false","<div class = centerbox><div  id = stim1></div></div>","32","32","750","","test","go","217","random","","",""
"","-1","-1","1296","0","test_block","poldrack-single-stim","232","343658","0.0-5.0-218.0","go-nogo","true","0","","false","<div class = centerbox><div  id = stim1></div></div>","32","32","750","","test","go","218","random","","",""
"","679","32","1344","0","test_block","poldrack-single-stim","233","345086","0.0-5.0-219.0","go-nogo","true","0","","true","<div class = centerbox><div  id = stim1></div></div>","32","32","750","","test","go","219","random","","",""
"","268","32","1030","0","test_block","poldrack-single-stim","234","346217","0.0-5.0-220.0","go-nogo","true","0","","true","<div class = centerbox><div  id = stim1></div></div>","32","32","750","","test","go","220","random","","",""
"","-1","-1","1141","0","test_block","poldrack-single-stim","235","347446","0.0-5.0-221.0","go-nogo","true","1","","false","<div class = centerbox><div  id = stim1></div></div>","32","32","750","","test","go","221","random","","",""
"","36","32","1422","0","test_block","poldrack-single-stim","236","348946","0.0-5.0-222.0","go-nogo","true","0","","true","<div class = centerbox><div  id = stim1></div></div>","32","32","750","","test","go","222","random","","",""
"","631","32","1152","0","test_block","poldrack-single-stim","237","350184","0.0-5.0-223.0","go-nogo","true","1","","true","<div class = centerbox><div  id = stim1></div></div>","32","32","750","","test","go","223","random","","",""
"","1077","32","1430","0","test_block","poldrack-single-stim","238","351709","0.0-5.0-224.0","go-nogo","true","0","","true","<div class = centerbox><div  id = stim1></div></div>","32","32","750","","test","go","224","random","","",""
"","301","32","1003","0","test_block","poldrack-single-stim","239","352769","0.0-5.0-225.0","go-nogo","true","0","","true","<div class = centerbox><div  id = stim1></div></div>","32","32","750","","test","go","225","random","","",""
"","855","32","1458","0","test_block","poldrack-single-stim","240","354360","0.0-5.0-226.0","go-nogo","true","0","","true","<div class = centerbox><div  id = stim1></div></div>","32","32","750","","test","go","226","random","","",""
"","474","32","1449","0","test_block","poldrack-single-stim","241","355926","0.0-5.0-227.0","go-nogo","true","1","","true","<div class = centerbox><div  id = stim1></div></div>","32","32","750","","test","go","227","random","","",""
"","-1","-1","1429","0","test_block","poldrack-single-stim","242","357523","0.0-5.0-228.0","go-nogo","true","0","","false","<div class = centerbox><div  id = stim1></div></div>","32","32","750","","test","go","228","random","","",""
"","-1","-1","1066","0","test_block","poldrack-single-stim","243","358685","0.0-5.0-229.0","go-nogo","true","0","","true","<div class = centerbox><div  id = stim2></div></div>","-1","32","750","","test","nogo","229","random","","",""
"","-1","-1","1308","0","test_block","poldrack-single-stim","244","360074","0.0-5.0-230.0","go-nogo","true","0","","false","<div class = centerbox><div  id = stim1></div></div>","32","32","750","","test","go","230","random","","",""
"","402","32","1315","0","test_block","poldrack-single-stim","245","361458","0.0-5.0-231.0","go-nogo","true","0","","true","<div class = centerbox><div  id = stim1></div></div>","32","32","750","","test","go","231","random","","",""
"","809","32","1381","0","test_block","poldrack-single-stim","246","362916","0.0-5.0-232.0","go-nogo","true","1","","true","<div class = centerbox><div  id = stim1></div></div>","32","32","750","","test","go","232","random","","",""
"","312","32","1337","0","test_block","poldrack-single-stim","247","364372","0.0-5.0-233.0","go-nogo","true","1","","true","<div class = centerbox><div  id = stim1></div></div>","32","32","750","","test","go","233","random","","",""
"","-1","-1","1272","0","test_block","poldrack-single-stim","248","365804","0.0-5.0-234.0","go-nogo","true","0","","false","<div class = centerbox><div  id = stim1></div></div>","32","32","750","","test","go","234","random","","",""
"","1016","32","1180","0","test_block","poldrack-single-stim","249","367078","0.0-5.0-235.0","go-nogo","true","0","","true","<div class = centerbox><div  id = stim1></div></div>","32","32","750","","test","go","235","random","","",""
"","258","32","1475","0","test_block","poldrack-single-stim","250","368654","0.0-5.0-236.0","go-nogo","true","0","","true","<div class = centerbox><div  id = stim1></div></div>","32","32","750","","test","go","236","random","","",""
"","129","32","1460","0","test_block","poldrack-single-stim","251","370232","0.0-5.0-237.0","go-nogo","true","0","","true","<div class = centerbox><div  id = stim1></div></div>","32","32","750","","test","go","237","random","","",""
"","208","32","1128","0","test_block","poldrack-single-stim","252","371506","0.0-5.0-238.0","go-nogo","true","0","","true","<div class = centerbox><div  id = stim1></div></div>","32","32","750","","test","go","238","random","","",""
"","-1","-1","1173","0","test_block","poldrack-single-stim","253","372793","0.0-5.0-239.0","go-nogo","true","1","","false","<div class = centerbox><div  id = stim1></div></div>","32","32","750","","test","go","239","random","","",""
"","96","32","1482","0","test_block","poldrack-single-stim","254","374348","0.0-5.0-240.0","go-nogo","true","0","","true","<div class = centerbox><div  id = stim1></div></div>","32","32","750","","test","go","240","random","","",""
"","58","32","1206","0","test_block","poldrack-single-stim","255","375636","0.0-5.0-241.0","go-nogo","true","0","","true","<div class = centerbox><div  id = stim1></div></div>","32","32","750","","test","go","241","random","","",""
"","-1","-1","1184","0","test_block","poldrack-single-stim","256","376887","0.0-5.0-242.0","go-nogo","true","1","","false","<div class = centerbox><div  id = stim1></div></div>","32","32","750","","test","go","242","random","","",""
"","-1","-1","1147","0","test_block","poldrack-single-stim","257","378115","0.0-5.0-243.0","go-nogo","true","0","","false","<div class = centerbox><div  id = stim1></div></div>","32","32","750","","test","go","243","random","","",""
"","872","32","1481","0","test_block","poldrack-single-stim","258","379684","0.0-5.0-244.0","go-nogo","true","0","","true","<div class = centerbox><div  id = stim1></div></div>","32","32","750","","test","go","244","random","","",""
"","541","32","1061","0","test_block","poldrack-single-stim","259","380852","0.0-5.0-245.0","go-nogo","true","0","","true","<div class = centerbox><div  id = stim1></div></div>","32","32","750","","test","go","245","random","","",""
"","436","32","1470","0","test_block","poldrack-single-stim","260","382419","0.0-5.0-246.0","go-nogo","true","0","","false","<div class = centerbox><div  id = stim2></div></div>","-1","32","750","","test","nogo","246","random","","",""
"","374","32","1140","0","test_block","poldrack-single-stim","261","383672","0.0-5.0-247.0","go-nogo","true","0","","true","<div class = centerbox><div  id = stim1></div></div>","32","32","750","","test","go","247","random","","",""
"","481","32","1444","0","test_block","poldrack-single-stim","262","385272","0.0-5.0-248.0","go-nogo","true","0","","true","<div class = centerbox><div  id = stim1></div></div>","32","32","750","","test","go","248","random","","",""
"","-1","-1","1329","0","test_block","poldrack-single-stim","263","386695","0.0-5.0-249.0","go-nogo","true","1","","false","<div class = centerbox><div  id = stim1></div></div>","32","32","750","","test","go","249","random","","",""
"","509","32","1294","0","test_block","poldrack-single-stim","264","388124","0.0-5.0-250.0","go-nogo","true","0","","true","<div class = centerbox><div  id = stim1></div></div>","32","32","750","","test","go","250","random","","",""
"","-1","-1","1423","0","test_block","poldrack-single-stim","265","389647","0.0-5.0-251.0","go-nogo","true","0","","true","<div class = centerbox><div  id = stim2></div></div>","-1","32","750","","test","nogo","251","random","","",""
"","-1","-1","1362","0","test_block","poldrack-single-stim","266","391085","0.0-5.0-252.0","go-nogo","true","1","","true","<div class = centerbox><div  id = stim2></div></div>","-1","32","750","","test","nogo","252","random","","",""
"","-1","-1","1041","0","test_block","poldrack-single-stim","267","392227","0.0-5.0-253.0","go-nogo","true","0","","false","<div class = centerbox><div  id = stim1></div></div>","32","32","750","","test","go","253","random","","",""
"","71","32","1293","0","test_block","poldrack-single-stim","268","393647","0.0-5.0-254.0","go-nogo","true","0","","true","<div class = centerbox><div  id = stim1></div></div>","32","32","750","","test","go","254","random","","",""
"","428","32","1413","0","test_block","poldrack-single-stim","269","395168","0.0-5.0-255.0","go-nogo","true","0","","true","<div class = centerbox><div  id = stim1></div></div>","32","32","750","","test","go","255","random","","",""
"","303","32","1349","0","test_block","poldrack-single-stim","270","396588","0.0-5.0-256.0","go-nogo","true","0","","true","<div class = centerbox><div  id = stim1></div></div>","32","32","750","","test","go","256","random","","",""
"","345","32","1145","0","test_block","poldrack-single-stim","271","397831","0.0-5.0-257.0","go-nogo","true","0","","true","<div class = centerbox><div  id = stim1></div></div>","32","32","750","","test","go","257","random","","",""
"","277","32","1321","0","test_block","poldrack-single-stim","272","399244","0.0-5.0-258.0","go-nogo","true","0","","true","<div class = centerbox><div  id = stim1></div></div>","32","32","750","","test","go","258","random","","",""
"","211","32","1157","0","test_block","poldrack-single-stim","273","400517","0.0-5.0-259.0","go-nogo","true","0","","true","<div class = centerbox><div  id = stim1></div></div>","32","32","750","","test","go","259","random","","",""
"","985","32","1395","0","test_block","poldrack-single-stim","274","402011","0.0-5.0-260.0","go-nogo","true","0","","true","<div class = centerbox><div  id = stim1></div></div>","32","32","750","","test","go","260","random","","",""
"","229","32","1213","0","test_block","poldrack-single-stim","275","403317","0.0-5.0-261.0","go-nogo","true","0","","true","<div class = centerbox><div  id = stim1></div></div>","32","32","750","","test","go","261","random","","",""
"","124","32","1278","0","test_block","poldrack-single-stim","276","404726","0.0-5.0-262.0","go-nogo","true","0","","true","<div class = centerbox><div  id = stim1></div></div>","32","32","750","","test","go","262","random","","",""
"","218","32","1083","0","test_block","poldrack-single-stim","277","405916","0.0-5.0-263.0","go-nogo","true","0","","true","<div class = centerbox><div  id = stim1></div></div>","32","32","750","","test","go","263","random","","",""
"","274","32","1221","0","test_block","poldrack-single-stim","278","407244","0.0-5.0-264.0","go-nogo","true","0","","true","<div class = centerbox><div  id = stim1></div></div>","32","32","750","","test","go","264","random","","",""
"","1119","32","1459","0","test_block","poldrack-single-stim","279","408833","0.0-5.0-265.0","go-nogo","true","0","","true","<div class = centerbox><div  id = stim1></div></div>","32","32","750","","test","go","265","random","","",""
"","-1","-1","1400","0","test_block","poldrack-single-stim","280","410355","0.0-5.0-266.0","go-nogo","true","1","","false","<div class = centerbox><div  id = stim1></div></div>","32","32","750","","test","go","266","random","","",""
"","-1","-1","1257","0","test_block","poldrack-single-stim","281","411693","0.0-5.0-267.0","go-nogo","true","0","","false","<div class = centerbox><div  id = stim1></div></div>","32","32","750","","test","go","267","random","","",""
"","-1","-1","1292","0","test_block","poldrack-single-stim","282","413063","0.0-5.0-268.0","go-nogo","true","0","","false","<div class = centerbox><div  id = stim1></div></div>","32","32","750","","test","go","268","random","","",""
"","240","32","1393","0","test_block","poldrack-single-stim","283","414561","0.0-5.0-269.0","go-nogo","true","0","","true","<div class = centerbox><div  id = stim1></div></div>","32","32","750","","test","go","269","random","","",""
"","-1","-1","1421","0","test_block","poldrack-single-stim","284","416088","0.0-5.0-270.0","go-nogo","true","0","","true","<div class = centerbox><div  id = stim2></div></div>","-1","32","750","","test","nogo","270","random","","",""
"","-1","-1","1456","0","test_block","poldrack-single-stim","285","417661","0.0-5.0-271.0","go-nogo","true","0","","true","<div class = centerbox><div  id = stim2></div></div>","-1","32","750","","test","nogo","271","random","","",""
"","394","32","1311","0","test_block","poldrack-single-stim","286","419094","0.0-5.0-272.0","go-nogo","true","0","","true","<div class = centerbox><div  id = stim1></div></div>","32","32","750","","test","go","272","random","","",""
"","421","32","1396","0","test_block","poldrack-single-stim","287","420609","0.0-5.0-273.0","go-nogo","true","0","","true","<div class = centerbox><div  id = stim1></div></div>","32","32","750","","test","go","273","random","","",""
"","275","32","1353","0","test_block","poldrack-single-stim","288","422083","0.0-5.0-274.0","go-nogo","true","0","","true","<div class = centerbox><div  id = stim1></div></div>","32","32","750","","test","go","274","random","","",""
"","329","32","1208","0","test_block","poldrack-single-stim","289","423402","0.0-5.0-275.0","go-nogo","true","0","","true","<div class = centerbox><div  id = stim1></div></div>","32","32","750","","test","go","275","random","","",""
"","-1","-1","1227","0","test_block","poldrack-single-stim","290","424743","0.0-5.0-276.0","go-nogo","true","0","","false","<div class = centerbox><div  id = stim1></div></div>","32","32","750","","test","go","276","random","","",""
"","233","32","1460","0","test_block","poldrack-single-stim","291","426312","0.0-5.0-277.0","go-nogo","true","0","","true","<div class = centerbox><div  id = stim1></div></div>","32","32","750","","test","go","277","random","","",""
"","-1","-1","1464","0","test_block","poldrack-single-stim","292","427898","0.0-5.0-278.0","go-nogo","true","1","","false","<div class = centerbox><div  id = stim1></div></div>","32","32","750","","test","go","278","random","","",""
"","398","32","1293","0","test_block","poldrack-single-stim","293","429290","0.0-5.0-279.0","go-nogo","true","0","","true","<div class = centerbox><div  id = stim1></div></div>","32","32","750","","test","go","279","random","","",""
"","311","32","1311","0","test_block","poldrack-single-stim","294","430695","0.0-5.0-280.0","go-nogo","true","0","","true","<div class = centerbox><div  id = stim1></div></div>","32","32","750","","test","go","280","random","","",""
"","307","32","1107","0","test_block","poldrack-single-stim","295","431916","0.0-5.0-281.0","go-nogo","true","0","","true","<div class = centerbox><div  id = stim1></div></div>","32","32","750","","test","go","281","random","","",""
"","511","32","1269","0","test_block","poldrack-single-stim","296","433299","0.0-5.0-282.0","go-nogo","true","0","","true","<div class = centerbox><div  id = stim1></div></div>","32","32","750","","test","go","282","random","","",""
"","301","32","1044","0","test_block","poldrack-single-stim","297","434448","0.0-5.0-283.0","go-nogo","true","0","","true","<div class = centerbox><div  id = stim1></div></div>","32","32","750","","test","go","283","random","","",""
"","-1","-1","1077","0","test_block","poldrack-single-stim","298","435619","0.0-5.0-284.0","go-nogo","true","0","","false","<div class = centerbox><div  id = stim1></div></div>","32","32","750","","test","go","284","random","","",""
"","-1","-1","1230","0","test_block","poldrack-single-stim","299","436919","0.0-5.0-285.0","go-nogo","true","1","","false","<div class = centerbox><div  id = stim1></div></div>","32","32","750","","test","go","285","random","","",""
"","-1","-1","1185","0","test_block","poldrack-single-stim","300","438192","0.0-5.0-286.0","go-nogo","true","0","","true","<div class = centerbox><div  id = stim2></div></div>","-1","32","750","","test","nogo","286","random","","",""
"","-1","-1","1329","0","test_block","poldrack-single-stim","301","439629","0.0-5.0-287.0","go-nogo","true","0","","false","<div class = centerbox><div  id = stim1></div></div>","32","32","750","","test","go","287","random","","",""
"","685","32","1182","0","test_block","poldrack-single-stim","302","440888","0.0-5.0-288.0","go-nogo","true","0","","true","<div class = centerbox><div  id = stim1></div></div>","32","32","750","","test","go","288","random","","",""
"","-1","-1","1342","0","test_block","poldrack-single-stim","303","442293","0.0-5.0-289.0","go-nogo","true","0","","true","<div class = centerbox><div  id = stim2></div></div>","-1","32","750","","test","nogo","289","random","","",""
"","-1","-1","1477","0","test_block","poldrack-single-stim","304","443836","0.0-5.0-290.0","go-nogo","true","0","","false","<div class = centerbox><div  id = stim1></div></div>","32","32","750","","test","go","290","random","","",""
"","-1","-1","1058","0","test_block","poldrack-single-stim","305","444988","0.0-5.0-291.0","go-nogo","true","0","","false","<div class = centerbox><div  id = stim1></div></div>","32","32","750","","test","go","291","random","","",""
"","-1","-1","1067","0","test_block","poldrack-single-stim","306","446119","0.0-5.0-292.0","go-nogo","true","0","","false","<div class = centerbox><div  id = stim1></div></div>","32","32","750","","test","go","292","random","","",""
"","-1","-1","1286","0","test_block","poldrack-single-stim","307","447483","0.0-5.0-293.0","go-nogo","true","0","","false","<div class = centerbox><div  id = stim1></div></div>","32","32","750","","test","go","293","random","","",""
"","-1","-1","1495","0","test_block","poldrack-single-stim","308","449062","0.0-5.0-294.0","go-nogo","true","1","","false","<div class = centerbox><div  id = stim1></div></div>","32","32","750","","test","go","294","random","","",""
"","-1","-1","1235","0","test_block","poldrack-single-stim","309","450433","0.0-5.0-295.0","go-nogo","true","0","","false","<div class = centerbox><div  id = stim1></div></div>","32","32","750","","test","go","295","random","","",""
"","712","32","1259","0","test_block","poldrack-single-stim","310","451762","0.0-5.0-296.0","go-nogo","true","0","","false","<div class = centerbox><div  id = stim2></div></div>","-1","32","750","","test","nogo","296","random","","",""
"","677","32","1263","0","test_block","poldrack-single-stim","311","453122","0.0-5.0-297.0","go-nogo","true","0","","false","<div class = centerbox><div  id = stim2></div></div>","-1","32","750","","test","nogo","297","random","","",""
"","-1","-1","1355","0","test_block","poldrack-single-stim","312","454553","0.0-5.0-298.0","go-nogo","true","1","","true","<div class = centerbox><div  id = stim2></div></div>","-1","32","750","","test","nogo","298","random","","",""
"","-1","-1","1097","0","test_block","poldrack-single-stim","313","455743","0.0-5.0-299.0","go-nogo","true","0","","false","<div class = centerbox><div  id = stim1></div></div>","32","32","750","","test","go","299","random","","",""
"","-1","-1","1331","0","test_block","poldrack-single-stim","314","457171","0.0-5.0-300.0","go-nogo","true","0","","false","<div class = centerbox><div  id = stim1></div></div>","32","32","750","","test","go","300","random","","",""
"","-1","-1","1203","0","test_block","poldrack-single-stim","315","458435","0.0-5.0-301.0","go-nogo","true","0","","true","<div class = centerbox><div  id = stim2></div></div>","-1","32","750","","test","nogo","301","random","","",""
"","-1","-1","1201","0","test_block","poldrack-single-stim","316","459720","0.0-5.0-302.0","go-nogo","true","0","","false","<div class = centerbox><div  id = stim1></div></div>","32","32","750","","test","go","302","random","","",""
"","-1","-1","1061","0","test_block","poldrack-single-stim","317","460869","0.0-5.0-303.0","go-nogo","true","0","","false","<div class = centerbox><div  id = stim1></div></div>","32","32","750","","test","go","303","random","","",""
"","480","32","1308","0","test_block","poldrack-single-stim","318","462258","0.0-5.0-304.0","go-nogo","true","0","","true","<div class = centerbox><div  id = stim1></div></div>","32","32","750","","test","go","304","random","","",""
"","-1","-1","1372","0","test_block","poldrack-single-stim","319","463723","0.0-5.0-305.0","go-nogo","true","1","","false","<div class = centerbox><div  id = stim1></div></div>","32","32","750","","test","go","305","random","","",""
"","-1","-1","1050","0","test_block","poldrack-single-stim","320","464856","0.0-5.0-306.0","go-nogo","true","0","","false","<div class = centerbox><div  id = stim1></div></div>","32","32","750","","test","go","306","random","","",""
"","-1","-1","1166","0","test_block","poldrack-single-stim","321","466123","0.0-5.0-307.0","go-nogo","true","0","","false","<div class = centerbox><div  id = stim1></div></div>","32","32","750","","test","go","307","random","","",""
"","399","32","1103","0","test_block","poldrack-single-stim","322","467318","0.0-5.0-308.0","go-nogo","true","0","","true","<div class = centerbox><div  id = stim1></div></div>","32","32","750","","test","go","308","random","","",""
"","-1","-1","1478","0","test_block","poldrack-single-stim","323","468889","0.0-5.0-309.0","go-nogo","true","1","","false","<div class = centerbox><div  id = stim1></div></div>","32","32","750","","test","go","309","random","","",""
"","402","32","1156","0","test_block","poldrack-single-stim","324","470141","0.0-5.0-310.0","go-nogo","true","0","","true","<div class = centerbox><div  id = stim1></div></div>","32","32","750","","test","go","310","random","","",""
"","-1","-1","1011","0","test_block","poldrack-single-stim","325","471224","0.0-5.0-311.0","go-nogo","true","1","","false","<div class = centerbox><div  id = stim1></div></div>","32","32","750","","test","go","311","random","","",""
"","-1","-1","1170","0","test_block","poldrack-single-stim","326","472477","0.0-5.0-312.0","go-nogo","true","0","","false","<div class = centerbox><div  id = stim1></div></div>","32","32","750","","test","go","312","random","","",""
"","-1","-1","1385","0","test_block","poldrack-single-stim","327","473947","0.0-5.0-313.0","go-nogo","true","0","","false","<div class = centerbox><div  id = stim1></div></div>","32","32","750","","test","go","313","random","","",""
"","-1","-1","1496","0","test_block","poldrack-single-stim","328","475536","0.0-5.0-314.0","go-nogo","true","0","","false","<div class = centerbox><div  id = stim1></div></div>","32","32","750","","test","go","314","random","","",""
"","-1","-1","1495","0","test_block","poldrack-single-stim","329","477161","0.0-5.0-315.0","go-nogo","true","1","","false","<div class = centerbox><div  id = stim1></div></div>","32","32","750","","test","go","315","random","","",""
"","-1","-1","1237","0","test_block","poldrack-single-stim","330","478496","0.0-5.0-316.0","go-nogo","true","0","","false","<div class = centerbox><div  id = stim1></div></div>","32","32","750","","test","go","316","random","","",""
"","-1","-1","1062","0","test_block","poldrack-single-stim","331","479622","0.0-5.0-317.0","go-nogo","true","0","","false","<div class = centerbox><div  id = stim1></div></div>","32","32","750","","test","go","317","random","","",""
"","-1","-1","1126","0","test_block","poldrack-single-stim","332","480823","0.0-5.0-318.0","go-nogo","true","0","","false","<div class = centerbox><div  id = stim1></div></div>","32","32","750","","test","go","318","random","","",""
"","-1","-1","1206","0","test_block","poldrack-single-stim","333","482138","0.0-5.0-319.0","go-nogo","true","0","","false","<div class = centerbox><div  id = stim1></div></div>","32","32","750","","test","go","319","random","","",""
"","641","32","1184","0","test_block","poldrack-single-stim","334","483393","0.0-5.0-320.0","go-nogo","true","0","","true","<div class = centerbox><div  id = stim1></div></div>","32","32","750","","test","go","320","random","","",""
"","327","32","1077","0","test_block","poldrack-single-stim","335","484609","0.0-5.0-321.0","go-nogo","true","0","","true","<div class = centerbox><div  id = stim1></div></div>","32","32","750","","test","go","321","random","","",""
"","-1","-1","1125","0","test_block","poldrack-single-stim","336","485812","0.0-5.0-322.0","go-nogo","true","1","","false","<div class = centerbox><div  id = stim1></div></div>","32","32","750","","test","go","322","random","","",""
"","590","32","1495","0","test_block","poldrack-single-stim","337","487424","0.0-5.0-323.0","go-nogo","true","0","","true","<div class = centerbox><div  id = stim1></div></div>","32","32","750","","test","go","323","random","","",""
"","250","32","1197","0","test_block","poldrack-single-stim","338","488730","0.0-5.0-324.0","go-nogo","true","0","","true","<div class = centerbox><div  id = stim1></div></div>","32","32","750","","test","go","324","random","","",""
"","-1","-1","1400","0","test_block","poldrack-single-stim","339","490309","0.0-5.0-325.0","go-nogo","true","0","","false","<div class = centerbox><div  id = stim1></div></div>","32","32","750","","test","go","325","random","","",""
"","334","32","1241","0","test_block","poldrack-single-stim","340","491661","0.0-5.0-326.0","go-nogo","true","0","","true","<div class = centerbox><div  id = stim1></div></div>","32","32","750","","test","go","326","random","","",""
"","553","32","1231","0","test_block","poldrack-single-stim","341","493007","0.0-5.0-327.0","go-nogo","true","0","","true","<div class = centerbox><div  id = stim1></div></div>","32","32","750","","test","go","327","random","","",""
"","431","32","1349","0","test_block","poldrack-single-stim","342","494463","0.0-5.0-328.0","go-nogo","true","0","","true","<div class = centerbox><div  id = stim1></div></div>","32","32","750","","test","go","328","random","","",""
"","337","32","1223","0","test_block","poldrack-single-stim","343","495799","0.0-5.0-329.0","go-nogo","true","0","","true","<div class = centerbox><div  id = stim1></div></div>","32","32","750","","test","go","329","random","","",""
"","1031","32","1331","0","test_block","poldrack-single-stim","344","497261","0.0-5.0-330.0","go-nogo","true","0","","true","<div class = centerbox><div  id = stim1></div></div>","32","32","750","","test","go","330","random","","",""
"","217","32","1048","0","test_block","poldrack-single-stim","345","498435","0.0-5.0-331.0","go-nogo","true","0","","true","<div class = centerbox><div  id = stim1></div></div>","32","32","750","","test","go","331","random","","",""
"","340","32","1495","0","test_block","poldrack-single-stim","346","500049","0.0-5.0-332.0","go-nogo","true","0","","true","<div class = centerbox><div  id = stim1></div></div>","32","32","750","","test","go","332","random","","",""
"","279","32","1416","0","test_block","poldrack-single-stim","347","501682","0.0-5.0-333.0","go-nogo","true","0","","true","<div class = centerbox><div  id = stim1></div></div>","32","32","750","","test","go","333","random","","",""
"","307","32","1332","0","test_block","poldrack-single-stim","348","503124","0.0-5.0-334.0","go-nogo","true","0","","true","<div class = centerbox><div  id = stim1></div></div>","32","32","750","","test","go","334","random","","",""
"","458","32","1111","0","test_block","poldrack-single-stim","349","504353","0.0-5.0-335.0","go-nogo","true","0","","true","<div class = centerbox><div  id = stim1></div></div>","32","32","750","","test","go","335","random","","",""
"","715","32","1065","0","test_block","poldrack-single-stim","350","505530","0.0-5.0-336.0","go-nogo","true","0","","true","<div class = centerbox><div  id = stim1></div></div>","32","32","750","","test","go","336","random","","",""
"","465","32","1230","0","test_block","poldrack-single-stim","351","506892","0.0-5.0-337.0","go-nogo","true","0","","true","<div class = centerbox><div  id = stim1></div></div>","32","32","750","","test","go","337","random","","",""
"","269","32","1148","0","test_block","poldrack-single-stim","352","508139","0.0-5.0-338.0","go-nogo","true","0","","true","<div class = centerbox><div  id = stim1></div></div>","32","32","750","","test","go","338","random","","",""
"","275","32","1029","0","test_block","poldrack-single-stim","353","509285","0.0-5.0-339.0","go-nogo","true","0","","true","<div class = centerbox><div  id = stim1></div></div>","32","32","750","","test","go","339","random","","",""
"","515","32","1172","0","test_block","poldrack-single-stim","354","510604","0.0-5.0-340.0","go-nogo","true","0","","true","<div class = centerbox><div  id = stim1></div></div>","32","32","750","","test","go","340","random","","",""
"","217","32","1251","0","test_block","poldrack-single-stim","355","512022","0.0-5.0-341.0","go-nogo","true","0","","true","<div class = centerbox><div  id = stim1></div></div>","32","32","750","","test","go","341","random","","",""
"","82","32","1440","0","test_block","poldrack-single-stim","356","513577","0.0-5.0-342.0","go-nogo","true","0","","true","<div class = centerbox><div  id = stim1></div></div>","32","32","750","","test","go","342","random","","",""
"","-1","-1","1362","0","test_block","poldrack-single-stim","357","515059","0.0-5.0-343.0","go-nogo","true","0","","true","<div class = centerbox><div  id = stim2></div></div>","-1","32","750","","test","nogo","343","random","","",""
"","-1","-1","1301","0","test_block","poldrack-single-stim","358","517111","0.0-5.0-344.0","go-nogo","true","1","","false","<div class = centerbox><div  id = stim1></div></div>","32","32","750","","test","go","344","random","","",""
"","472","32","1466","0","test_block","poldrack-single-stim","359","518652","0.0-5.0-345.0","go-nogo","true","0","","true","<div class = centerbox><div  id = stim1></div></div>","32","32","750","","test","go","345","random","","",""
"","303","32","1281","0","test_block","poldrack-single-stim","360","520046","0.0-5.0-346.0","go-nogo","true","0","","true","<div class = centerbox><div  id = stim1></div></div>","32","32","750","","test","go","346","random","","",""
"","307","32","1118","0","test_block","poldrack-single-stim","361","521284","0.0-5.0-347.0","go-nogo","true","0","","true","<div class = centerbox><div  id = stim1></div></div>","32","32","750","","test","go","347","random","","",""
"","297","32","1385","0","test_block","poldrack-single-stim","362","522791","0.0-5.0-348.0","go-nogo","true","0","","true","<div class = centerbox><div  id = stim1></div></div>","32","32","750","","test","go","348","random","","",""
"","361","32","1380","0","test_block","poldrack-single-stim","363","524282","0.0-5.0-349.0","go-nogo","true","0","","true","<div class = centerbox><div  id = stim1></div></div>","32","32","750","","test","go","349","random","","",""
"","12005","","","","post task questions","survey-text","364","536416","0.0-7.0","go-nogo","true","0","","","","","","","","","","","","{""Q0"":""press the space bar when you see an orange square"",""Q1"":""""}","",""
"<div class = centerbox><p class = center-block-text>Thanks for completing this task!</p><p class = center-block-text>Insert the following code to collect your payment at Amazon Mechanical Turk:</p><p class = center-block-text>69154317</p><p class = center-block-text>Press <strong>enter</strong> to continue.</p></div>","7751","13","7751","0","end","poldrack-text","365","545171","0.0-8.0","go-nogo","true","1","","","","","","","","","","","","","69154317","true"
