"text","rt","key_press","block_duration","timing_post_trial","trial_id","trial_type","trial_index","time_elapsed","internal_node_id","exp_id","full_screen","focus_shifts","view_history","correct","stimulus","correct_response","possible_responses","stim_duration","feedback_duration","exp_stage","condition","trial_num","mode","responses","payment_id","credit_var"
"<div class = centerbox><p class = center-block-text>Welcome to the experiment. This task will take around 10 minutes. Press <strong>enter</strong> to begin.</p></div>","2554","13","2554","0","instruction","poldrack-text","0","2555","0.0-0.0-0.0","go-nogo","true","0","","","","","","","","","","","","","",""
"","18501","","","","instruction","poldrack-instructions","1","21057","0.0-0.0-1.0","go-nogo","false","2","[{""page_index"":0,""viewing_time"":18500}]","","","","","","","","","","","","",""
"","-1","-1","1027","250","practice","poldrack-categorize","2","24099","0.0-1.0-0.0","go-nogo","false","0","","true","<div class = centerbox><div id = stim1></div></div>","-1","32","750","1000","practice","nogo","0","random","","",""
"","338","32","1304","250","practice","poldrack-categorize","3","26659","0.0-1.0-1.0","go-nogo","false","0","","true","<div class = centerbox><div  id = stim2></div></div>","32","32","750","1000","practice","go","1","random","","",""
"","417","32","1074","250","practice","poldrack-categorize","4","29000","0.0-1.0-2.0","go-nogo","false","0","","true","<div class = centerbox><div  id = stim2></div></div>","32","32","750","1000","practice","go","2","random","","",""
"","-1","-1","1496","250","practice","poldrack-categorize","5","31753","0.0-1.0-3.0","go-nogo","false","0","","true","<div class = centerbox><div id = stim1></div></div>","-1","32","750","1000","practice","nogo","3","random","","",""
"","513","32","1448","250","practice","poldrack-categorize","6","34463","0.0-1.0-4.0","go-nogo","false","0","","true","<div class = centerbox><div  id = stim2></div></div>","32","32","750","1000","practice","go","4","random","","",""
"","-1","-1","1195","250","practice","poldrack-categorize","7","36919","0.0-1.0-5.0","go-nogo","false","0","","true","<div class = centerbox><div id = stim1></div></div>","-1","32","750","1000","practice","nogo","5","random","","",""
"","424","32","1305","250","practice","poldrack-categorize","8","39488","0.0-1.0-6.0","go-nogo","false","0","","true","<div class = centerbox><div  id = stim2></div></div>","32","32","750","1000","practice","go","6","random","","",""
"","-1","-1","1350","250","practice","poldrack-categorize","9","42102","0.0-1.0-7.0","go-nogo","false","0","","true","<div class = centerbox><div id = stim1></div></div>","-1","32","750","1000","practice","nogo","7","random","","",""
"","-1","-1","1478","250","practice","poldrack-categorize","10","44837","0.0-1.0-8.0","go-nogo","false","0","","true","<div class = centerbox><div id = stim1></div></div>","-1","32","750","1000","practice","nogo","8","random","","",""
"","457","32","1189","250","practice","poldrack-categorize","11","47286","0.0-1.0-9.0","go-nogo","false","0","","true","<div class = centerbox><div  id = stim2></div></div>","32","32","750","1000","practice","go","9","random","","",""
"","","","","","reset_trial","call-function","12","47536","0.0-3.0","go-nogo","false","0","","","","","","","","","","","","","",""
"<div class = centerbox><p class = block-text>Practice is over, we will now begin the experiment. You will no longer get feedback about your responses.</p><p class = block-text>Remember, if you see the <font color=""blue"">blue</font> square you should <strong> respond by pressing the spacebar as quickly as possible</strong>. If you see the <font color=""orange"">orange</font> square you should <strong> not respond</strong>. Press <strong>enter</strong> to begin.</p></div>","3860","13","3860","1000","test_intro","poldrack-text","13","51398","0.0-4.0","go-nogo","false","0","","","","","","","","","","","","","",""
"","488","32","1370","0","test_block","poldrack-single-stim","14","53776","0.0-5.0-0.0","go-nogo","false","0","","true","<div class = centerbox><div  id = stim2></div></div>","32","32","750","","test","go","0","random","","",""
"","463","32","1229","0","test_block","poldrack-single-stim","15","55027","0.0-5.0-1.0","go-nogo","false","0","","true","<div class = centerbox><div  id = stim2></div></div>","32","32","750","","test","go","1","random","","",""
"","375","32","1371","0","test_block","poldrack-single-stim","16","56408","0.0-5.0-2.0","go-nogo","false","0","","true","<div class = centerbox><div  id = stim2></div></div>","32","32","750","","test","go","2","random","","",""
"","374","32","1063","0","test_block","poldrack-single-stim","17","57486","0.0-5.0-3.0","go-nogo","false","0","","true","<div class = centerbox><div  id = stim2></div></div>","32","32","750","","test","go","3","random","","",""
"","367","32","1365","0","test_block","poldrack-single-stim","18","58861","0.0-5.0-4.0","go-nogo","false","0","","true","<div class = centerbox><div  id = stim2></div></div>","32","32","750","","test","go","4","random","","",""
"","-1","-1","1426","0","test_block","poldrack-single-stim","19","60299","0.0-5.0-5.0","go-nogo","false","0","","true","<div class = centerbox><div  id = stim1></div></div>","-1","32","750","","test","nogo","5","random","","",""
"","-1","-1","1179","0","test_block","poldrack-single-stim","20","61492","0.0-5.0-6.0","go-nogo","false","0","","true","<div class = centerbox><div  id = stim1></div></div>","-1","32","750","","test","nogo","6","random","","",""
"","380","32","1434","0","test_block","poldrack-single-stim","21","62944","0.0-5.0-7.0","go-nogo","false","0","","true","<div class = centerbox><div  id = stim2></div></div>","32","32","750","","test","go","7","random","","",""
"","360","32","1317","0","test_block","poldrack-single-stim","22","64273","0.0-5.0-8.0","go-nogo","false","0","","true","<div class = centerbox><div  id = stim2></div></div>","32","32","750","","test","go","8","random","","",""
"","377","32","1339","0","test_block","poldrack-single-stim","23","65626","0.0-5.0-9.0","go-nogo","false","0","","true","<div class = centerbox><div  id = stim2></div></div>","32","32","750","","test","go","9","random","","",""
"","327","32","1463","0","test_block","poldrack-single-stim","24","67102","0.0-5.0-10.0","go-nogo","false","0","","true","<div class = centerbox><div  id = stim2></div></div>","32","32","750","","test","go","10","random","","",""
"","326","32","1002","0","test_block","poldrack-single-stim","25","68115","0.0-5.0-11.0","go-nogo","false","0","","true","<div class = centerbox><div  id = stim2></div></div>","32","32","750","","test","go","11","random","","",""
"","394","32","1492","0","test_block","poldrack-single-stim","26","69617","0.0-5.0-12.0","go-nogo","false","0","","true","<div class = centerbox><div  id = stim2></div></div>","32","32","750","","test","go","12","random","","",""
"","318","32","1062","0","test_block","poldrack-single-stim","27","70687","0.0-5.0-13.0","go-nogo","false","0","","true","<div class = centerbox><div  id = stim2></div></div>","32","32","750","","test","go","13","random","","",""
"","311","32","1295","0","test_block","poldrack-single-stim","28","71993","0.0-5.0-14.0","go-nogo","false","0","","true","<div class = centerbox><div  id = stim2></div></div>","32","32","750","","test","go","14","random","","",""
"","364","32","1102","0","test_block","poldrack-single-stim","29","73108","0.0-5.0-15.0","go-nogo","false","0","","true","<div class = centerbox><div  id = stim2></div></div>","32","32","750","","test","go","15","random","","",""
"","300","32","1111","0","test_block","poldrack-single-stim","30","74227","0.0-5.0-16.0","go-nogo","false","0","","true","<div class = centerbox><div  id = stim2></div></div>","32","32","750","","test","go","16","random","","",""
"","379","32","1232","0","test_block","poldrack-single-stim","31","75472","0.0-5.0-17.0","go-nogo","false","0","","true","<div class = centerbox><div  id = stim2></div></div>","32","32","750","","test","go","17","random","","",""
"","326","32","1014","0","test_block","poldrack-single-stim","32","76500","0.0-5.0-18.0","go-nogo","false","0","","true","<div class = centerbox><div  id = stim2></div></div>","32","32","750","","test","go","18","random","","",""
"","315","32","1088","0","test_block","poldrack-single-stim","33","77601","0.0-5.0-19.0","go-nogo","false","0","","true","<div class = centerbox><div  id = stim2></div></div>","32","32","750","","test","go","19","random","","",""
"","312","32","1404","0","test_block","poldrack-single-stim","34","79017","0.0-5.0-20.0","go-nogo","false","0","","true","<div class = centerbox><div  id = stim2></div></div>","32","32","750","","test","go","20","random","","",""
"","307","32","1443","0","test_block","poldrack-single-stim","35","80469","0.0-5.0-21.0","go-nogo","false","0","","true","<div class = centerbox><div  id = stim2></div></div>","32","32","750","","test","go","21","random","","",""
"","359","32","1044","0","test_block","poldrack-single-stim","36","81524","0.0-5.0-22.0","go-nogo","false","0","","true","<div class = centerbox><div  id = stim2></div></div>","32","32","750","","test","go","22","random","","",""
"","314","32","1005","0","test_block","poldrack-single-stim","37","82535","0.0-5.0-23.0","go-nogo","false","0","","true","<div class = centerbox><div  id = stim2></div></div>","32","32","750","","test","go","23","random","","",""
"","313","32","1120","0","test_block","poldrack-single-stim","38","83661","0.0-5.0-24.0","go-nogo","false","0","","true","<div class = centerbox><div  id = stim2></div></div>","32","32","750","","test","go","24","random","","",""
"","-1","-1","1411","0","test_block","poldrack-single-stim","39","85075","0.0-5.0-25.0","go-nogo","false","0","","true","<div class = centerbox><div  id = stim1></div></div>","-1","32","750","","test","nogo","25","random","","",""
"","436","32","1199","0","test_block","poldrack-single-stim","40","86280","0.0-5.0-26.0","go-nogo","false","0","","true","<div class = centerbox><div  id = stim2></div></div>","32","32","750","","test","go","26","random","","",""
"","306","32","1231","0","test_block","poldrack-single-stim","41","87524","0.0-5.0-27.0","go-nogo","false","0","","true","<div class = centerbox><div  id = stim2></div></div>","32","32","750","","test","go","27","random","","",""
"","-1","-1","1461","0","test_block","poldrack-single-stim","42","88991","0.0-5.0-28.0","go-nogo","false","0","","true","<div class = centerbox><div  id = stim1></div></div>","-1","32","750","","test","nogo","28","random","","",""
"","346","32","1479","0","test_block","poldrack-single-stim","43","90482","0.0-5.0-29.0","go-nogo","false","0","","true","<div class = centerbox><div  id = stim2></div></div>","32","32","750","","test","go","29","random","","",""
"","365","32","1106","0","test_block","poldrack-single-stim","44","91595","0.0-5.0-30.0","go-nogo","false","0","","true","<div class = centerbox><div  id = stim2></div></div>","32","32","750","","test","go","30","random","","",""
"","350","32","1287","0","test_block","poldrack-single-stim","45","92890","0.0-5.0-31.0","go-nogo","false","0","","true","<div class = centerbox><div  id = stim2></div></div>","32","32","750","","test","go","31","random","","",""
"","298","32","1220","0","test_block","poldrack-single-stim","46","94120","0.0-5.0-32.0","go-nogo","false","0","","true","<div class = centerbox><div  id = stim2></div></div>","32","32","750","","test","go","32","random","","",""
"","314","32","1332","0","test_block","poldrack-single-stim","47","95463","0.0-5.0-33.0","go-nogo","false","0","","true","<div class = centerbox><div  id = stim2></div></div>","32","32","750","","test","go","33","random","","",""
"","-1","-1","1000","0","test_block","poldrack-single-stim","48","96477","0.0-5.0-34.0","go-nogo","false","0","","true","<div class = centerbox><div  id = stim1></div></div>","-1","32","750","","test","nogo","34","random","","",""
"","368","32","1058","0","test_block","poldrack-single-stim","49","97546","0.0-5.0-35.0","go-nogo","false","0","","true","<div class = centerbox><div  id = stim2></div></div>","32","32","750","","test","go","35","random","","",""
"","351","32","1433","0","test_block","poldrack-single-stim","50","98991","0.0-5.0-36.0","go-nogo","false","0","","true","<div class = centerbox><div  id = stim2></div></div>","32","32","750","","test","go","36","random","","",""
"","361","32","1054","0","test_block","poldrack-single-stim","51","100055","0.0-5.0-37.0","go-nogo","false","0","","true","<div class = centerbox><div  id = stim2></div></div>","32","32","750","","test","go","37","random","","",""
"","312","32","1228","0","test_block","poldrack-single-stim","52","101290","0.0-5.0-38.0","go-nogo","false","0","","true","<div class = centerbox><div  id = stim2></div></div>","32","32","750","","test","go","38","random","","",""
"","-1","-1","1451","0","test_block","poldrack-single-stim","53","102750","0.0-5.0-39.0","go-nogo","false","0","","true","<div class = centerbox><div  id = stim1></div></div>","-1","32","750","","test","nogo","39","random","","",""
"","422","32","1247","0","test_block","poldrack-single-stim","54","104008","0.0-5.0-40.0","go-nogo","false","0","","true","<div class = centerbox><div  id = stim2></div></div>","32","32","750","","test","go","40","random","","",""
"","311","32","1349","0","test_block","poldrack-single-stim","55","105369","0.0-5.0-41.0","go-nogo","false","0","","true","<div class = centerbox><div  id = stim2></div></div>","32","32","750","","test","go","41","random","","",""
"","-1","-1","1284","0","test_block","poldrack-single-stim","56","106660","0.0-5.0-42.0","go-nogo","false","0","","true","<div class = centerbox><div  id = stim1></div></div>","-1","32","750","","test","nogo","42","random","","",""
"","328","32","1231","0","test_block","poldrack-single-stim","57","107900","0.0-5.0-43.0","go-nogo","false","0","","true","<div class = centerbox><div  id = stim2></div></div>","32","32","750","","test","go","43","random","","",""
"","485","32","1285","0","test_block","poldrack-single-stim","58","109198","0.0-5.0-44.0","go-nogo","false","0","","true","<div class = centerbox><div  id = stim2></div></div>","32","32","750","","test","go","44","random","","",""
"","310","32","1042","0","test_block","poldrack-single-stim","59","110248","0.0-5.0-45.0","go-nogo","false","0","","true","<div class = centerbox><div  id = stim2></div></div>","32","32","750","","test","go","45","random","","",""
"","423","32","1310","0","test_block","poldrack-single-stim","60","111566","0.0-5.0-46.0","go-nogo","false","0","","true","<div class = centerbox><div  id = stim2></div></div>","32","32","750","","test","go","46","random","","",""
"","393","32","1365","0","test_block","poldrack-single-stim","61","112945","0.0-5.0-47.0","go-nogo","false","0","","true","<div class = centerbox><div  id = stim2></div></div>","32","32","750","","test","go","47","random","","",""
"","364","32","1479","0","test_block","poldrack-single-stim","62","114434","0.0-5.0-48.0","go-nogo","false","0","","true","<div class = centerbox><div  id = stim2></div></div>","32","32","750","","test","go","48","random","","",""
"","716","32","1342","0","test_block","poldrack-single-stim","63","115787","0.0-5.0-49.0","go-nogo","false","0","","true","<div class = centerbox><div  id = stim2></div></div>","32","32","750","","test","go","49","random","","",""
"","369","32","1485","0","test_block","poldrack-single-stim","64","117281","0.0-5.0-50.0","go-nogo","false","0","","true","<div class = centerbox><div  id = stim2></div></div>","32","32","750","","test","go","50","random","","",""
"","313","32","1035","0","test_block","poldrack-single-stim","65","118324","0.0-5.0-51.0","go-nogo","false","0","","true","<div class = centerbox><div  id = stim2></div></div>","32","32","750","","test","go","51","random","","",""
"","367","32","1483","0","test_block","poldrack-single-stim","66","119818","0.0-5.0-52.0","go-nogo","false","0","","true","<div class = centerbox><div  id = stim2></div></div>","32","32","750","","test","go","52","random","","",""
"","391","32","1458","0","test_block","poldrack-single-stim","67","121296","0.0-5.0-53.0","go-nogo","false","0","","true","<div class = centerbox><div  id = stim2></div></div>","32","32","750","","test","go","53","random","","",""
"","332","32","1426","0","test_block","poldrack-single-stim","68","122729","0.0-5.0-54.0","go-nogo","false","0","","true","<div class = centerbox><div  id = stim2></div></div>","32","32","750","","test","go","54","random","","",""
"","332","32","1094","0","test_block","poldrack-single-stim","69","123828","0.0-5.0-55.0","go-nogo","false","0","","true","<div class = centerbox><div  id = stim2></div></div>","32","32","750","","test","go","55","random","","",""
"","382","32","1299","0","test_block","poldrack-single-stim","70","125133","0.0-5.0-56.0","go-nogo","false","0","","true","<div class = centerbox><div  id = stim2></div></div>","32","32","750","","test","go","56","random","","",""
"","337","32","1126","0","test_block","poldrack-single-stim","71","126266","0.0-5.0-57.0","go-nogo","false","0","","true","<div class = centerbox><div  id = stim2></div></div>","32","32","750","","test","go","57","random","","",""
"","491","32","1204","0","test_block","poldrack-single-stim","72","127478","0.0-5.0-58.0","go-nogo","false","0","","true","<div class = centerbox><div  id = stim2></div></div>","32","32","750","","test","go","58","random","","",""
"","543","32","1365","0","test_block","poldrack-single-stim","73","128854","0.0-5.0-59.0","go-nogo","false","0","","true","<div class = centerbox><div  id = stim2></div></div>","32","32","750","","test","go","59","random","","",""
"","499","32","1488","0","test_block","poldrack-single-stim","74","130349","0.0-5.0-60.0","go-nogo","false","0","","true","<div class = centerbox><div  id = stim2></div></div>","32","32","750","","test","go","60","random","","",""
"","379","32","1046","0","test_block","poldrack-single-stim","75","131401","0.0-5.0-61.0","go-nogo","false","0","","true","<div class = centerbox><div  id = stim2></div></div>","32","32","750","","test","go","61","random","","",""
"","450","32","1282","0","test_block","poldrack-single-stim","76","132691","0.0-5.0-62.0","go-nogo","false","0","","true","<div class = centerbox><div  id = stim2></div></div>","32","32","750","","test","go","62","random","","",""
"","355","32","1248","0","test_block","poldrack-single-stim","77","133947","0.0-5.0-63.0","go-nogo","false","0","","true","<div class = centerbox><div  id = stim2></div></div>","32","32","750","","test","go","63","random","","",""
"","340","32","1478","0","test_block","poldrack-single-stim","78","135432","0.0-5.0-64.0","go-nogo","false","0","","true","<div class = centerbox><div  id = stim2></div></div>","32","32","750","","test","go","64","random","","",""
"","351","32","1219","0","test_block","poldrack-single-stim","79","136657","0.0-5.0-65.0","go-nogo","false","0","","true","<div class = centerbox><div  id = stim2></div></div>","32","32","750","","test","go","65","random","","",""
"","562","32","1344","0","test_block","poldrack-single-stim","80","138011","0.0-5.0-66.0","go-nogo","false","0","","true","<div class = centerbox><div  id = stim2></div></div>","32","32","750","","test","go","66","random","","",""
"","554","32","1343","0","test_block","poldrack-single-stim","81","139364","0.0-5.0-67.0","go-nogo","false","0","","true","<div class = centerbox><div  id = stim2></div></div>","32","32","750","","test","go","67","random","","",""
"","-1","-1","1115","0","test_block","poldrack-single-stim","82","140489","0.0-5.0-68.0","go-nogo","false","0","","true","<div class = centerbox><div  id = stim1></div></div>","-1","32","750","","test","nogo","68","random","","",""
"","455","32","1136","0","test_block","poldrack-single-stim","83","141632","0.0-5.0-69.0","go-nogo","false","0","","true","<div class = centerbox><div  id = stim2></div></div>","32","32","750","","test","go","69","random","","",""
"","566","32","1195","0","test_block","poldrack-single-stim","84","142834","0.0-5.0-70.0","go-nogo","false","0","","true","<div class = centerbox><div  id = stim2></div></div>","32","32","750","","test","go","70","random","","",""
"","465","32","1344","0","test_block","poldrack-single-stim","85","144188","0.0-5.0-71.0","go-nogo","false","0","","true","<div class = centerbox><div  id = stim2></div></div>","32","32","750","","test","go","71","random","","",""
"","676","32","1436","0","test_block","poldrack-single-stim","86","145630","0.0-5.0-72.0","go-nogo","false","0","","true","<div class = centerbox><div  id = stim2></div></div>","32","32","750","","test","go","72","random","","",""
"","341","32","1330","0","test_block","poldrack-single-stim","87","146964","0.0-5.0-73.0","go-nogo","false","0","","true","<div class = centerbox><div  id = stim2></div></div>","32","32","750","","test","go","73","random","","",""
"","390","32","1348","0","test_block","poldrack-single-stim","88","148322","0.0-5.0-74.0","go-nogo","false","0","","true","<div class = centerbox><div  id = stim2></div></div>","32","32","750","","test","go","74","random","","",""
"","383","32","1334","0","test_block","poldrack-single-stim","89","149664","0.0-5.0-75.0","go-nogo","false","0","","true","<div class = centerbox><div  id = stim2></div></div>","32","32","750","","test","go","75","random","","",""
"","327","32","1491","0","test_block","poldrack-single-stim","90","151162","0.0-5.0-76.0","go-nogo","false","0","","true","<div class = centerbox><div  id = stim2></div></div>","32","32","750","","test","go","76","random","","",""
"","344","32","1203","0","test_block","poldrack-single-stim","91","152377","0.0-5.0-77.0","go-nogo","false","0","","true","<div class = centerbox><div  id = stim2></div></div>","32","32","750","","test","go","77","random","","",""
"","313","32","1114","0","test_block","poldrack-single-stim","92","153503","0.0-5.0-78.0","go-nogo","false","0","","true","<div class = centerbox><div  id = stim2></div></div>","32","32","750","","test","go","78","random","","",""
"","289","32","1452","0","test_block","poldrack-single-stim","93","154960","0.0-5.0-79.0","go-nogo","false","0","","true","<div class = centerbox><div  id = stim2></div></div>","32","32","750","","test","go","79","random","","",""
"","717","32","1106","0","test_block","poldrack-single-stim","94","156074","0.0-5.0-80.0","go-nogo","false","0","","true","<div class = centerbox><div  id = stim2></div></div>","32","32","750","","test","go","80","random","","",""
"","345","32","1191","0","test_block","poldrack-single-stim","95","157276","0.0-5.0-81.0","go-nogo","false","0","","true","<div class = centerbox><div  id = stim2></div></div>","32","32","750","","test","go","81","random","","",""
"","295","32","1040","0","test_block","poldrack-single-stim","96","158322","0.0-5.0-82.0","go-nogo","false","0","","true","<div class = centerbox><div  id = stim2></div></div>","32","32","750","","test","go","82","random","","",""
"","-1","-1","1254","0","test_block","poldrack-single-stim","97","159583","0.0-5.0-83.0","go-nogo","false","0","","true","<div class = centerbox><div  id = stim1></div></div>","-1","32","750","","test","nogo","83","random","","",""
"","329","32","1282","0","test_block","poldrack-single-stim","98","160870","0.0-5.0-84.0","go-nogo","false","0","","true","<div class = centerbox><div  id = stim2></div></div>","32","32","750","","test","go","84","random","","",""
"","-1","-1","1003","0","test_block","poldrack-single-stim","99","161879","0.0-5.0-85.0","go-nogo","false","0","","true","<div class = centerbox><div  id = stim1></div></div>","-1","32","750","","test","nogo","85","random","","",""
"","375","32","1004","0","test_block","poldrack-single-stim","100","162889","0.0-5.0-86.0","go-nogo","false","0","","true","<div class = centerbox><div  id = stim2></div></div>","32","32","750","","test","go","86","random","","",""
"","343","32","1001","0","test_block","poldrack-single-stim","101","163895","0.0-5.0-87.0","go-nogo","false","0","","true","<div class = centerbox><div  id = stim2></div></div>","32","32","750","","test","go","87","random","","",""
"","319","32","1082","0","test_block","poldrack-single-stim","102","164986","0.0-5.0-88.0","go-nogo","false","0","","true","<div class = centerbox><div  id = stim2></div></div>","32","32","750","","test","go","88","random","","",""
"","-1","-1","1392","0","test_block","poldrack-single-stim","103","166385","0.0-5.0-89.0","go-nogo","false","0","","true","<div class = centerbox><div  id = stim1></div></div>","-1","32","750","","test","nogo","89","random","","",""
"","419","32","1301","0","test_block","poldrack-single-stim","104","167691","0.0-5.0-90.0","go-nogo","false","0","","true","<div class = centerbox><div  id = stim2></div></div>","32","32","750","","test","go","90","random","","",""
"","345","32","1357","0","test_block","poldrack-single-stim","105","169059","0.0-5.0-91.0","go-nogo","false","0","","true","<div class = centerbox><div  id = stim2></div></div>","32","32","750","","test","go","91","random","","",""
"","313","32","1235","0","test_block","poldrack-single-stim","106","170301","0.0-5.0-92.0","go-nogo","false","0","","true","<div class = centerbox><div  id = stim2></div></div>","32","32","750","","test","go","92","random","","",""
"","316","32","1210","0","test_block","poldrack-single-stim","107","171522","0.0-5.0-93.0","go-nogo","false","0","","true","<div class = centerbox><div  id = stim2></div></div>","32","32","750","","test","go","93","random","","",""
"","320","32","1484","0","test_block","poldrack-single-stim","108","173017","0.0-5.0-94.0","go-nogo","false","0","","true","<div class = centerbox><div  id = stim2></div></div>","32","32","750","","test","go","94","random","","",""
"","321","32","1048","0","test_block","poldrack-single-stim","109","174074","0.0-5.0-95.0","go-nogo","false","0","","true","<div class = centerbox><div  id = stim2></div></div>","32","32","750","","test","go","95","random","","",""
"","312","32","1274","0","test_block","poldrack-single-stim","110","175355","0.0-5.0-96.0","go-nogo","false","0","","true","<div class = centerbox><div  id = stim2></div></div>","32","32","750","","test","go","96","random","","",""
"","308","32","1069","0","test_block","poldrack-single-stim","111","176432","0.0-5.0-97.0","go-nogo","false","0","","true","<div class = centerbox><div  id = stim2></div></div>","32","32","750","","test","go","97","random","","",""
"","303","32","1283","0","test_block","poldrack-single-stim","112","177721","0.0-5.0-98.0","go-nogo","false","0","","true","<div class = centerbox><div  id = stim2></div></div>","32","32","750","","test","go","98","random","","",""
"","313","32","1438","0","test_block","poldrack-single-stim","113","179166","0.0-5.0-99.0","go-nogo","false","0","","true","<div class = centerbox><div  id = stim2></div></div>","32","32","750","","test","go","99","random","","",""
"","334","32","1188","0","test_block","poldrack-single-stim","114","180364","0.0-5.0-100.0","go-nogo","false","0","","true","<div class = centerbox><div  id = stim2></div></div>","32","32","750","","test","go","100","random","","",""
"","301","32","1019","0","test_block","poldrack-single-stim","115","181391","0.0-5.0-101.0","go-nogo","false","0","","true","<div class = centerbox><div  id = stim2></div></div>","32","32","750","","test","go","101","random","","",""
"","298","32","1215","0","test_block","poldrack-single-stim","116","182613","0.0-5.0-102.0","go-nogo","false","0","","true","<div class = centerbox><div  id = stim2></div></div>","32","32","750","","test","go","102","random","","",""
"","291","32","1173","0","test_block","poldrack-single-stim","117","183794","0.0-5.0-103.0","go-nogo","false","0","","true","<div class = centerbox><div  id = stim2></div></div>","32","32","750","","test","go","103","random","","",""
"","338","32","1000","0","test_block","poldrack-single-stim","118","184798","0.0-5.0-104.0","go-nogo","false","0","","true","<div class = centerbox><div  id = stim2></div></div>","32","32","750","","test","go","104","random","","",""
"","333","32","1449","0","test_block","poldrack-single-stim","119","186255","0.0-5.0-105.0","go-nogo","false","0","","true","<div class = centerbox><div  id = stim2></div></div>","32","32","750","","test","go","105","random","","",""
"","321","32","1142","0","test_block","poldrack-single-stim","120","187405","0.0-5.0-106.0","go-nogo","false","0","","true","<div class = centerbox><div  id = stim2></div></div>","32","32","750","","test","go","106","random","","",""
"","-1","-1","1126","0","test_block","poldrack-single-stim","121","188542","0.0-5.0-107.0","go-nogo","false","0","","true","<div class = centerbox><div  id = stim1></div></div>","-1","32","750","","test","nogo","107","random","","",""
"","330","32","1006","0","test_block","poldrack-single-stim","122","189554","0.0-5.0-108.0","go-nogo","false","0","","true","<div class = centerbox><div  id = stim2></div></div>","32","32","750","","test","go","108","random","","",""
"","309","32","1381","0","test_block","poldrack-single-stim","123","190940","0.0-5.0-109.0","go-nogo","false","0","","true","<div class = centerbox><div  id = stim2></div></div>","32","32","750","","test","go","109","random","","",""
"","478","32","1019","0","test_block","poldrack-single-stim","124","191968","0.0-5.0-110.0","go-nogo","false","0","","true","<div class = centerbox><div  id = stim2></div></div>","32","32","750","","test","go","110","random","","",""
"","400","32","1487","0","test_block","poldrack-single-stim","125","193466","0.0-5.0-111.0","go-nogo","false","0","","true","<div class = centerbox><div  id = stim2></div></div>","32","32","750","","test","go","111","random","","",""
"","303","32","1171","0","test_block","poldrack-single-stim","126","194645","0.0-5.0-112.0","go-nogo","false","0","","true","<div class = centerbox><div  id = stim2></div></div>","32","32","750","","test","go","112","random","","",""
"","322","32","1382","0","test_block","poldrack-single-stim","127","196037","0.0-5.0-113.0","go-nogo","false","0","","true","<div class = centerbox><div  id = stim2></div></div>","32","32","750","","test","go","113","random","","",""
"","313","32","1117","0","test_block","poldrack-single-stim","128","197164","0.0-5.0-114.0","go-nogo","false","0","","true","<div class = centerbox><div  id = stim2></div></div>","32","32","750","","test","go","114","random","","",""
"","318","32","1026","0","test_block","poldrack-single-stim","129","198202","0.0-5.0-115.0","go-nogo","false","0","","true","<div class = centerbox><div  id = stim2></div></div>","32","32","750","","test","go","115","random","","",""
"","304","32","1051","0","test_block","poldrack-single-stim","130","199259","0.0-5.0-116.0","go-nogo","false","0","","true","<div class = centerbox><div  id = stim2></div></div>","32","32","750","","test","go","116","random","","",""
"","-1","-1","1186","0","test_block","poldrack-single-stim","131","200452","0.0-5.0-117.0","go-nogo","false","0","","true","<div class = centerbox><div  id = stim1></div></div>","-1","32","750","","test","nogo","117","random","","",""
"","340","32","1294","0","test_block","poldrack-single-stim","132","201754","0.0-5.0-118.0","go-nogo","false","0","","true","<div class = centerbox><div  id = stim2></div></div>","32","32","750","","test","go","118","random","","",""
"","289","32","1423","0","test_block","poldrack-single-stim","133","203183","0.0-5.0-119.0","go-nogo","false","0","","true","<div class = centerbox><div  id = stim2></div></div>","32","32","750","","test","go","119","random","","",""
"","356","32","1082","0","test_block","poldrack-single-stim","134","204278","0.0-5.0-120.0","go-nogo","false","0","","false","<div class = centerbox><div  id = stim1></div></div>","-1","32","750","","test","nogo","120","random","","",""
"","389","32","1100","0","test_block","poldrack-single-stim","135","205389","0.0-5.0-121.0","go-nogo","false","0","","true","<div class = centerbox><div  id = stim2></div></div>","32","32","750","","test","go","121","random","","",""
"","312","32","1065","0","test_block","poldrack-single-stim","136","206463","0.0-5.0-122.0","go-nogo","false","0","","false","<div class = centerbox><div  id = stim1></div></div>","-1","32","750","","test","nogo","122","random","","",""
"","410","32","1018","0","test_block","poldrack-single-stim","137","207491","0.0-5.0-123.0","go-nogo","false","0","","true","<div class = centerbox><div  id = stim2></div></div>","32","32","750","","test","go","123","random","","",""
"","401","32","1124","0","test_block","poldrack-single-stim","138","208623","0.0-5.0-124.0","go-nogo","false","0","","true","<div class = centerbox><div  id = stim2></div></div>","32","32","750","","test","go","124","random","","",""
"","351","32","1259","0","test_block","poldrack-single-stim","139","209888","0.0-5.0-125.0","go-nogo","false","0","","true","<div class = centerbox><div  id = stim2></div></div>","32","32","750","","test","go","125","random","","",""
"","405","32","1467","0","test_block","poldrack-single-stim","140","211363","0.0-5.0-126.0","go-nogo","false","0","","true","<div class = centerbox><div  id = stim2></div></div>","32","32","750","","test","go","126","random","","",""
"","524","32","1153","0","test_block","poldrack-single-stim","141","212527","0.0-5.0-127.0","go-nogo","false","0","","true","<div class = centerbox><div  id = stim2></div></div>","32","32","750","","test","go","127","random","","",""
"","353","32","1171","0","test_block","poldrack-single-stim","142","213707","0.0-5.0-128.0","go-nogo","false","0","","true","<div class = centerbox><div  id = stim2></div></div>","32","32","750","","test","go","128","random","","",""
"","388","32","1444","0","test_block","poldrack-single-stim","143","215155","0.0-5.0-129.0","go-nogo","false","0","","true","<div class = centerbox><div  id = stim2></div></div>","32","32","750","","test","go","129","random","","",""
"","362","32","1083","0","test_block","poldrack-single-stim","144","216245","0.0-5.0-130.0","go-nogo","false","0","","true","<div class = centerbox><div  id = stim2></div></div>","32","32","750","","test","go","130","random","","",""
"","373","32","1271","0","test_block","poldrack-single-stim","145","217529","0.0-5.0-131.0","go-nogo","false","0","","true","<div class = centerbox><div  id = stim2></div></div>","32","32","750","","test","go","131","random","","",""
"","363","32","1364","0","test_block","poldrack-single-stim","146","218902","0.0-5.0-132.0","go-nogo","false","0","","true","<div class = centerbox><div  id = stim2></div></div>","32","32","750","","test","go","132","random","","",""
"","338","32","1113","0","test_block","poldrack-single-stim","147","220025","0.0-5.0-133.0","go-nogo","false","0","","true","<div class = centerbox><div  id = stim2></div></div>","32","32","750","","test","go","133","random","","",""
"","321","32","1326","0","test_block","poldrack-single-stim","148","221358","0.0-5.0-134.0","go-nogo","false","0","","true","<div class = centerbox><div  id = stim2></div></div>","32","32","750","","test","go","134","random","","",""
"","377","32","1474","0","test_block","poldrack-single-stim","149","222840","0.0-5.0-135.0","go-nogo","false","0","","true","<div class = centerbox><div  id = stim2></div></div>","32","32","750","","test","go","135","random","","",""
"","-1","-1","1415","0","test_block","poldrack-single-stim","150","224258","0.0-5.0-136.0","go-nogo","false","0","","true","<div class = centerbox><div  id = stim1></div></div>","-1","32","750","","test","nogo","136","random","","",""
"","416","32","1141","0","test_block","poldrack-single-stim","151","225408","0.0-5.0-137.0","go-nogo","false","0","","true","<div class = centerbox><div  id = stim2></div></div>","32","32","750","","test","go","137","random","","",""
"","349","32","1345","0","test_block","poldrack-single-stim","152","226764","0.0-5.0-138.0","go-nogo","false","0","","true","<div class = centerbox><div  id = stim2></div></div>","32","32","750","","test","go","138","random","","",""
"","327","32","1219","0","test_block","poldrack-single-stim","153","227991","0.0-5.0-139.0","go-nogo","false","0","","true","<div class = centerbox><div  id = stim2></div></div>","32","32","750","","test","go","139","random","","",""
"","323","32","1290","0","test_block","poldrack-single-stim","154","229284","0.0-5.0-140.0","go-nogo","false","0","","true","<div class = centerbox><div  id = stim2></div></div>","32","32","750","","test","go","140","random","","",""
"","353","32","1420","0","test_block","poldrack-single-stim","155","230708","0.0-5.0-141.0","go-nogo","false","0","","true","<div class = centerbox><div  id = stim2></div></div>","32","32","750","","test","go","141","random","","",""
"","293","32","1013","0","test_block","poldrack-single-stim","156","231728","0.0-5.0-142.0","go-nogo","false","0","","true","<div class = centerbox><div  id = stim2></div></div>","32","32","750","","test","go","142","random","","",""
"","380","32","1112","0","test_block","poldrack-single-stim","157","232843","0.0-5.0-143.0","go-nogo","false","0","","true","<div class = centerbox><div  id = stim2></div></div>","32","32","750","","test","go","143","random","","",""
"","359","32","1091","0","test_block","poldrack-single-stim","158","233939","0.0-5.0-144.0","go-nogo","false","0","","true","<div class = centerbox><div  id = stim2></div></div>","32","32","750","","test","go","144","random","","",""
"","331","32","1156","0","test_block","poldrack-single-stim","159","235106","0.0-5.0-145.0","go-nogo","false","0","","true","<div class = centerbox><div  id = stim2></div></div>","32","32","750","","test","go","145","random","","",""
"","433","32","1084","0","test_block","poldrack-single-stim","160","236200","0.0-5.0-146.0","go-nogo","false","0","","true","<div class = centerbox><div  id = stim2></div></div>","32","32","750","","test","go","146","random","","",""
"","350","32","1061","0","test_block","poldrack-single-stim","161","237270","0.0-5.0-147.0","go-nogo","false","0","","true","<div class = centerbox><div  id = stim2></div></div>","32","32","750","","test","go","147","random","","",""
"","350","32","1327","0","test_block","poldrack-single-stim","162","238606","0.0-5.0-148.0","go-nogo","false","0","","true","<div class = centerbox><div  id = stim2></div></div>","32","32","750","","test","go","148","random","","",""
"","396","32","1173","0","test_block","poldrack-single-stim","163","239783","0.0-5.0-149.0","go-nogo","false","0","","true","<div class = centerbox><div  id = stim2></div></div>","32","32","750","","test","go","149","random","","",""
"","377","32","1052","0","test_block","poldrack-single-stim","164","240841","0.0-5.0-150.0","go-nogo","false","0","","true","<div class = centerbox><div  id = stim2></div></div>","32","32","750","","test","go","150","random","","",""
"","431","32","1351","0","test_block","poldrack-single-stim","165","242200","0.0-5.0-151.0","go-nogo","false","0","","true","<div class = centerbox><div  id = stim2></div></div>","32","32","750","","test","go","151","random","","",""
"","346","32","1033","0","test_block","poldrack-single-stim","166","243239","0.0-5.0-152.0","go-nogo","false","0","","true","<div class = centerbox><div  id = stim2></div></div>","32","32","750","","test","go","152","random","","",""
"","366","32","1360","0","test_block","poldrack-single-stim","167","244604","0.0-5.0-153.0","go-nogo","false","0","","true","<div class = centerbox><div  id = stim2></div></div>","32","32","750","","test","go","153","random","","",""
"","326","32","1397","0","test_block","poldrack-single-stim","168","246008","0.0-5.0-154.0","go-nogo","false","0","","true","<div class = centerbox><div  id = stim2></div></div>","32","32","750","","test","go","154","random","","",""
"","314","32","1029","0","test_block","poldrack-single-stim","169","247046","0.0-5.0-155.0","go-nogo","false","0","","true","<div class = centerbox><div  id = stim2></div></div>","32","32","750","","test","go","155","random","","",""
"","306","32","1072","0","test_block","poldrack-single-stim","170","248129","0.0-5.0-156.0","go-nogo","false","0","","true","<div class = centerbox><div  id = stim2></div></div>","32","32","750","","test","go","156","random","","",""
"","329","32","1308","0","test_block","poldrack-single-stim","171","249445","0.0-5.0-157.0","go-nogo","false","0","","true","<div class = centerbox><div  id = stim2></div></div>","32","32","750","","test","go","157","random","","",""
"","318","32","1216","0","test_block","poldrack-single-stim","172","250669","0.0-5.0-158.0","go-nogo","false","0","","true","<div class = centerbox><div  id = stim2></div></div>","32","32","750","","test","go","158","random","","",""
"","342","32","1161","0","test_block","poldrack-single-stim","173","251836","0.0-5.0-159.0","go-nogo","false","0","","true","<div class = centerbox><div  id = stim2></div></div>","32","32","750","","test","go","159","random","","",""
"","333","32","1336","0","test_block","poldrack-single-stim","174","253177","0.0-5.0-160.0","go-nogo","false","0","","true","<div class = centerbox><div  id = stim2></div></div>","32","32","750","","test","go","160","random","","",""
"","280","32","1054","0","test_block","poldrack-single-stim","175","254241","0.0-5.0-161.0","go-nogo","false","0","","true","<div class = centerbox><div  id = stim2></div></div>","32","32","750","","test","go","161","random","","",""
"","274","32","1155","0","test_block","poldrack-single-stim","176","255407","0.0-5.0-162.0","go-nogo","false","0","","true","<div class = centerbox><div  id = stim2></div></div>","32","32","750","","test","go","162","random","","",""
"","291","32","1174","0","test_block","poldrack-single-stim","177","256590","0.0-5.0-163.0","go-nogo","false","0","","true","<div class = centerbox><div  id = stim2></div></div>","32","32","750","","test","go","163","random","","",""
"","310","32","1198","0","test_block","poldrack-single-stim","178","257795","0.0-5.0-164.0","go-nogo","false","0","","true","<div class = centerbox><div  id = stim2></div></div>","32","32","750","","test","go","164","random","","",""
"","336","32","1449","0","test_block","poldrack-single-stim","179","259250","0.0-5.0-165.0","go-nogo","false","0","","true","<div class = centerbox><div  id = stim2></div></div>","32","32","750","","test","go","165","random","","",""
"","302","32","1097","0","test_block","poldrack-single-stim","180","260353","0.0-5.0-166.0","go-nogo","false","0","","true","<div class = centerbox><div  id = stim2></div></div>","32","32","750","","test","go","166","random","","",""
"","302","32","1056","0","test_block","poldrack-single-stim","181","261418","0.0-5.0-167.0","go-nogo","false","0","","true","<div class = centerbox><div  id = stim2></div></div>","32","32","750","","test","go","167","random","","",""
"","429","32","1424","0","test_block","poldrack-single-stim","182","262849","0.0-5.0-168.0","go-nogo","false","0","","true","<div class = centerbox><div  id = stim2></div></div>","32","32","750","","test","go","168","random","","",""
"","298","32","1113","0","test_block","poldrack-single-stim","183","263965","0.0-5.0-169.0","go-nogo","false","0","","true","<div class = centerbox><div  id = stim2></div></div>","32","32","750","","test","go","169","random","","",""
"","305","32","1232","0","test_block","poldrack-single-stim","184","265207","0.0-5.0-170.0","go-nogo","false","0","","true","<div class = centerbox><div  id = stim2></div></div>","32","32","750","","test","go","170","random","","",""
"","309","32","1182","0","test_block","poldrack-single-stim","185","266398","0.0-5.0-171.0","go-nogo","false","0","","true","<div class = centerbox><div  id = stim2></div></div>","32","32","750","","test","go","171","random","","",""
"","-1","-1","1044","0","test_block","poldrack-single-stim","186","267450","0.0-5.0-172.0","go-nogo","false","0","","true","<div class = centerbox><div  id = stim1></div></div>","-1","32","750","","test","nogo","172","random","","",""
"","396","32","1324","0","test_block","poldrack-single-stim","187","268780","0.0-5.0-173.0","go-nogo","false","0","","true","<div class = centerbox><div  id = stim2></div></div>","32","32","750","","test","go","173","random","","",""
"","449","32","1432","0","test_block","poldrack-single-stim","188","270219","0.0-5.0-174.0","go-nogo","false","0","","true","<div class = centerbox><div  id = stim2></div></div>","32","32","750","","test","go","174","random","","",""
"","327","32","1086","0","test_block","poldrack-single-stim","189","271310","0.0-5.0-175.0","go-nogo","false","0","","true","<div class = centerbox><div  id = stim2></div></div>","32","32","750","","test","go","175","random","","",""
"","317","32","1020","0","test_block","poldrack-single-stim","190","272340","0.0-5.0-176.0","go-nogo","false","0","","true","<div class = centerbox><div  id = stim2></div></div>","32","32","750","","test","go","176","random","","",""
"","335","32","1446","0","test_block","poldrack-single-stim","191","273791","0.0-5.0-177.0","go-nogo","false","0","","true","<div class = centerbox><div  id = stim2></div></div>","32","32","750","","test","go","177","random","","",""
"","395","32","1337","0","test_block","poldrack-single-stim","192","275133","0.0-5.0-178.0","go-nogo","false","0","","true","<div class = centerbox><div  id = stim2></div></div>","32","32","750","","test","go","178","random","","",""
"","381","32","1233","0","test_block","poldrack-single-stim","193","276377","0.0-5.0-179.0","go-nogo","false","0","","true","<div class = centerbox><div  id = stim2></div></div>","32","32","750","","test","go","179","random","","",""
"","318","32","1277","0","test_block","poldrack-single-stim","194","277661","0.0-5.0-180.0","go-nogo","false","0","","true","<div class = centerbox><div  id = stim2></div></div>","32","32","750","","test","go","180","random","","",""
"","333","32","1000","0","test_block","poldrack-single-stim","195","278668","0.0-5.0-181.0","go-nogo","false","0","","true","<div class = centerbox><div  id = stim2></div></div>","32","32","750","","test","go","181","random","","",""
"","-1","-1","1170","0","test_block","poldrack-single-stim","196","279845","0.0-5.0-182.0","go-nogo","false","0","","true","<div class = centerbox><div  id = stim1></div></div>","-1","32","750","","test","nogo","182","random","","",""
"","368","32","1143","0","test_block","poldrack-single-stim","197","280992","0.0-5.0-183.0","go-nogo","false","0","","true","<div class = centerbox><div  id = stim2></div></div>","32","32","750","","test","go","183","random","","",""
"","317","32","1001","0","test_block","poldrack-single-stim","198","281999","0.0-5.0-184.0","go-nogo","false","0","","true","<div class = centerbox><div  id = stim2></div></div>","32","32","750","","test","go","184","random","","",""
"","331","32","1350","0","test_block","poldrack-single-stim","199","283355","0.0-5.0-185.0","go-nogo","false","0","","true","<div class = centerbox><div  id = stim2></div></div>","32","32","750","","test","go","185","random","","",""
"","305","32","1267","0","test_block","poldrack-single-stim","200","284630","0.0-5.0-186.0","go-nogo","false","0","","true","<div class = centerbox><div  id = stim2></div></div>","32","32","750","","test","go","186","random","","",""
"","284","32","1258","0","test_block","poldrack-single-stim","201","285896","0.0-5.0-187.0","go-nogo","false","0","","true","<div class = centerbox><div  id = stim2></div></div>","32","32","750","","test","go","187","random","","",""
"","354","32","1109","0","test_block","poldrack-single-stim","202","287011","0.0-5.0-188.0","go-nogo","false","0","","true","<div class = centerbox><div  id = stim2></div></div>","32","32","750","","test","go","188","random","","",""
"","315","32","1058","0","test_block","poldrack-single-stim","203","288078","0.0-5.0-189.0","go-nogo","false","0","","true","<div class = centerbox><div  id = stim2></div></div>","32","32","750","","test","go","189","random","","",""
"","312","32","1177","0","test_block","poldrack-single-stim","204","289261","0.0-5.0-190.0","go-nogo","false","0","","true","<div class = centerbox><div  id = stim2></div></div>","32","32","750","","test","go","190","random","","",""
"","281","32","1427","0","test_block","poldrack-single-stim","205","290691","0.0-5.0-191.0","go-nogo","false","0","","true","<div class = centerbox><div  id = stim2></div></div>","32","32","750","","test","go","191","random","","",""
"","-1","-1","1093","0","test_block","poldrack-single-stim","206","291792","0.0-5.0-192.0","go-nogo","false","0","","true","<div class = centerbox><div  id = stim1></div></div>","-1","32","750","","test","nogo","192","random","","",""
"","317","32","1004","0","test_block","poldrack-single-stim","207","292803","0.0-5.0-193.0","go-nogo","false","0","","true","<div class = centerbox><div  id = stim2></div></div>","32","32","750","","test","go","193","random","","",""
"","289","32","1282","0","test_block","poldrack-single-stim","208","294090","0.0-5.0-194.0","go-nogo","false","0","","true","<div class = centerbox><div  id = stim2></div></div>","32","32","750","","test","go","194","random","","",""
"","366","32","1443","0","test_block","poldrack-single-stim","209","295542","0.0-5.0-195.0","go-nogo","false","0","","true","<div class = centerbox><div  id = stim2></div></div>","32","32","750","","test","go","195","random","","",""
"","321","32","1480","0","test_block","poldrack-single-stim","210","297029","0.0-5.0-196.0","go-nogo","false","0","","true","<div class = centerbox><div  id = stim2></div></div>","32","32","750","","test","go","196","random","","",""
"","290","32","1291","0","test_block","poldrack-single-stim","211","298328","0.0-5.0-197.0","go-nogo","false","0","","true","<div class = centerbox><div  id = stim2></div></div>","32","32","750","","test","go","197","random","","",""
"","313","32","1007","0","test_block","poldrack-single-stim","212","299346","0.0-5.0-198.0","go-nogo","false","0","","true","<div class = centerbox><div  id = stim2></div></div>","32","32","750","","test","go","198","random","","",""
"","-1","-1","1181","0","test_block","poldrack-single-stim","213","300536","0.0-5.0-199.0","go-nogo","false","0","","true","<div class = centerbox><div  id = stim1></div></div>","-1","32","750","","test","nogo","199","random","","",""
"","360","32","1310","0","test_block","poldrack-single-stim","214","301851","0.0-5.0-200.0","go-nogo","false","0","","true","<div class = centerbox><div  id = stim2></div></div>","32","32","750","","test","go","200","random","","",""
"","304","32","1043","0","test_block","poldrack-single-stim","215","302899","0.0-5.0-201.0","go-nogo","false","0","","true","<div class = centerbox><div  id = stim2></div></div>","32","32","750","","test","go","201","random","","",""
"","300","32","1415","0","test_block","poldrack-single-stim","216","304322","0.0-5.0-202.0","go-nogo","false","0","","true","<div class = centerbox><div  id = stim2></div></div>","32","32","750","","test","go","202","random","","",""
"","339","32","1375","0","test_block","poldrack-single-stim","217","305707","0.0-5.0-203.0","go-nogo","false","0","","true","<div class = centerbox><div  id = stim2></div></div>","32","32","750","","test","go","203","random","","",""
"","313","32","1120","0","test_block","poldrack-single-stim","218","306833","0.0-5.0-204.0","go-nogo","false","0","","true","<div class = centerbox><div  id = stim2></div></div>","32","32","750","","test","go","204","random","","",""
"","302","32","1070","0","test_block","poldrack-single-stim","219","307909","0.0-5.0-205.0","go-nogo","false","0","","true","<div class = centerbox><div  id = stim2></div></div>","32","32","750","","test","go","205","random","","",""
"","435","32","1100","0","test_block","poldrack-single-stim","220","309017","0.0-5.0-206.0","go-nogo","false","0","","true","<div class = centerbox><div  id = stim2></div></div>","32","32","750","","test","go","206","random","","",""
"","346","32","1122","0","test_block","poldrack-single-stim","221","310144","0.0-5.0-207.0","go-nogo","false","0","","true","<div class = centerbox><div  id = stim2></div></div>","32","32","750","","test","go","207","random","","",""
"","310","32","1314","0","test_block","poldrack-single-stim","222","311465","0.0-5.0-208.0","go-nogo","false","0","","true","<div class = centerbox><div  id = stim2></div></div>","32","32","750","","test","go","208","random","","",""
"","297","32","1194","0","test_block","poldrack-single-stim","223","312665","0.0-5.0-209.0","go-nogo","false","0","","true","<div class = centerbox><div  id = stim2></div></div>","32","32","750","","test","go","209","random","","",""
"","286","32","1274","0","test_block","poldrack-single-stim","224","313947","0.0-5.0-210.0","go-nogo","false","0","","true","<div class = centerbox><div  id = stim2></div></div>","32","32","750","","test","go","210","random","","",""
"","277","32","1467","0","test_block","poldrack-single-stim","225","315421","0.0-5.0-211.0","go-nogo","false","0","","true","<div class = centerbox><div  id = stim2></div></div>","32","32","750","","test","go","211","random","","",""
"","367","32","1262","0","test_block","poldrack-single-stim","226","316687","0.0-5.0-212.0","go-nogo","false","0","","true","<div class = centerbox><div  id = stim2></div></div>","32","32","750","","test","go","212","random","","",""
"","317","32","1063","0","test_block","poldrack-single-stim","227","317753","0.0-5.0-213.0","go-nogo","false","0","","true","<div class = centerbox><div  id = stim2></div></div>","32","32","750","","test","go","213","random","","",""
"","334","32","1017","0","test_block","poldrack-single-stim","228","318773","0.0-5.0-214.0","go-nogo","false","0","","true","<div class = centerbox><div  id = stim2></div></div>","32","32","750","","test","go","214","random","","",""
"","344","32","1092","0","test_block","poldrack-single-stim","229","319873","0.0-5.0-215.0","go-nogo","false","0","","true","<div class = centerbox><div  id = stim2></div></div>","32","32","750","","test","go","215","random","","",""
"","346","32","1002","0","test_block","poldrack-single-stim","230","320884","0.0-5.0-216.0","go-nogo","false","0","","true","<div class = centerbox><div  id = stim2></div></div>","32","32","750","","test","go","216","random","","",""
"","331","32","1042","0","test_block","poldrack-single-stim","231","321934","0.0-5.0-217.0","go-nogo","false","0","","true","<div class = centerbox><div  id = stim2></div></div>","32","32","750","","test","go","217","random","","",""
"","382","32","1384","0","test_block","poldrack-single-stim","232","323327","0.0-5.0-218.0","go-nogo","false","0","","true","<div class = centerbox><div  id = stim2></div></div>","32","32","750","","test","go","218","random","","",""
"","321","32","1136","0","test_block","poldrack-single-stim","233","324471","0.0-5.0-219.0","go-nogo","false","0","","true","<div class = centerbox><div  id = stim2></div></div>","32","32","750","","test","go","219","random","","",""
"","329","32","1101","0","test_block","poldrack-single-stim","234","325584","0.0-5.0-220.0","go-nogo","false","0","","true","<div class = centerbox><div  id = stim2></div></div>","32","32","750","","test","go","220","random","","",""
"","334","32","1053","0","test_block","poldrack-single-stim","235","326641","0.0-5.0-221.0","go-nogo","false","0","","true","<div class = centerbox><div  id = stim2></div></div>","32","32","750","","test","go","221","random","","",""
"","434","32","1067","0","test_block","poldrack-single-stim","236","327717","0.0-5.0-222.0","go-nogo","false","0","","true","<div class = centerbox><div  id = stim2></div></div>","32","32","750","","test","go","222","random","","",""
"","425","32","1399","0","test_block","poldrack-single-stim","237","329120","0.0-5.0-223.0","go-nogo","false","0","","true","<div class = centerbox><div  id = stim2></div></div>","32","32","750","","test","go","223","random","","",""
"","292","32","1058","0","test_block","poldrack-single-stim","238","330183","0.0-5.0-224.0","go-nogo","false","0","","true","<div class = centerbox><div  id = stim2></div></div>","32","32","750","","test","go","224","random","","",""
"","332","32","1122","0","test_block","poldrack-single-stim","239","331316","0.0-5.0-225.0","go-nogo","false","0","","true","<div class = centerbox><div  id = stim2></div></div>","32","32","750","","test","go","225","random","","",""
"","348","32","1161","0","test_block","poldrack-single-stim","240","332482","0.0-5.0-226.0","go-nogo","false","0","","true","<div class = centerbox><div  id = stim2></div></div>","32","32","750","","test","go","226","random","","",""
"","347","32","1065","0","test_block","poldrack-single-stim","241","333552","0.0-5.0-227.0","go-nogo","false","0","","true","<div class = centerbox><div  id = stim2></div></div>","32","32","750","","test","go","227","random","","",""
"","359","32","1050","0","test_block","poldrack-single-stim","242","334607","0.0-5.0-228.0","go-nogo","false","0","","true","<div class = centerbox><div  id = stim2></div></div>","32","32","750","","test","go","228","random","","",""
"","476","32","1442","0","test_block","poldrack-single-stim","243","336053","0.0-5.0-229.0","go-nogo","false","0","","true","<div class = centerbox><div  id = stim2></div></div>","32","32","750","","test","go","229","random","","",""
"","467","32","1139","0","test_block","poldrack-single-stim","244","337201","0.0-5.0-230.0","go-nogo","false","0","","true","<div class = centerbox><div  id = stim2></div></div>","32","32","750","","test","go","230","random","","",""
"","455","32","1165","0","test_block","poldrack-single-stim","245","338377","0.0-5.0-231.0","go-nogo","false","0","","true","<div class = centerbox><div  id = stim2></div></div>","32","32","750","","test","go","231","random","","",""
"","314","32","1121","0","test_block","poldrack-single-stim","246","339508","0.0-5.0-232.0","go-nogo","false","0","","true","<div class = centerbox><div  id = stim2></div></div>","32","32","750","","test","go","232","random","","",""
"","334","32","1267","0","test_block","poldrack-single-stim","247","340780","0.0-5.0-233.0","go-nogo","false","0","","true","<div class = centerbox><div  id = stim2></div></div>","32","32","750","","test","go","233","random","","",""
"","375","32","1150","0","test_block","poldrack-single-stim","248","341940","0.0-5.0-234.0","go-nogo","false","0","","true","<div class = centerbox><div  id = stim2></div></div>","32","32","750","","test","go","234","random","","",""
"","348","32","1066","0","test_block","poldrack-single-stim","249","343018","0.0-5.0-235.0","go-nogo","false","0","","true","<div class = centerbox><div  id = stim2></div></div>","32","32","750","","test","go","235","random","","",""
"","332","32","1312","0","test_block","poldrack-single-stim","250","344336","0.0-5.0-236.0","go-nogo","false","0","","true","<div class = centerbox><div  id = stim2></div></div>","32","32","750","","test","go","236","random","","",""
"","342","32","1137","0","test_block","poldrack-single-stim","251","345480","0.0-5.0-237.0","go-nogo","false","0","","true","<div class = centerbox><div  id = stim2></div></div>","32","32","750","","test","go","237","random","","",""
"","609","32","1189","0","test_block","poldrack-single-stim","252","346676","0.0-5.0-238.0","go-nogo","false","0","","true","<div class = centerbox><div  id = stim2></div></div>","32","32","750","","test","go","238","random","","",""
"","-1","-1","1060","0","test_block","poldrack-single-stim","253","347741","0.0-5.0-239.0","go-nogo","false","0","","true","<div class = centerbox><div  id = stim1></div></div>","-1","32","750","","test","nogo","239","random","","",""
"","473","32","1380","0","test_block","poldrack-single-stim","254","349126","0.0-5.0-240.0","go-nogo","false","0","","true","<div class = centerbox><div  id = stim2></div></div>","32","32","750","","test","go","240","random","","",""
"","319","32","1277","0","test_block","poldrack-single-stim","255","350412","0.0-5.0-241.0","go-nogo","false","0","","true","<div class = centerbox><div  id = stim2></div></div>","32","32","750","","test","go","241","random","","",""
"","297","32","1038","0","test_block","poldrack-single-stim","256","351459","0.0-5.0-242.0","go-nogo","false","0","","true","<div class = centerbox><div  id = stim2></div></div>","32","32","750","","test","go","242","random","","",""
"","358","32","1427","0","test_block","poldrack-single-stim","257","352893","0.0-5.0-243.0","go-nogo","false","0","","true","<div class = centerbox><div  id = stim2></div></div>","32","32","750","","test","go","243","random","","",""
"","342","32","1367","0","test_block","poldrack-single-stim","258","354265","0.0-5.0-244.0","go-nogo","false","0","","true","<div class = centerbox><div  id = stim2></div></div>","32","32","750","","test","go","244","random","","",""
"","313","32","1124","0","test_block","poldrack-single-stim","259","356085","0.0-5.0-245.0","go-nogo","false","1","","true","<div class = centerbox><div  id = stim2></div></div>","32","32","750","","test","go","245","random","","",""
"","540","32","1455","0","test_block","poldrack-single-stim","260","357548","0.0-5.0-246.0","go-nogo","false","0","","true","<div class = centerbox><div  id = stim2></div></div>","32","32","750","","test","go","246","random","","",""
"","338","32","1263","0","test_block","poldrack-single-stim","261","358820","0.0-5.0-247.0","go-nogo","false","0","","true","<div class = centerbox><div  id = stim2></div></div>","32","32","750","","test","go","247","random","","",""
"","-1","-1","1235","0","test_block","poldrack-single-stim","262","360063","0.0-5.0-248.0","go-nogo","false","0","","true","<div class = centerbox><div  id = stim1></div></div>","-1","32","750","","test","nogo","248","random","","",""
"","324","32","1309","0","test_block","poldrack-single-stim","263","361380","0.0-5.0-249.0","go-nogo","false","0","","true","<div class = centerbox><div  id = stim2></div></div>","32","32","750","","test","go","249","random","","",""
"","416","32","1002","0","test_block","poldrack-single-stim","264","362390","0.0-5.0-250.0","go-nogo","false","0","","true","<div class = centerbox><div  id = stim2></div></div>","32","32","750","","test","go","250","random","","",""
"","318","32","1218","0","test_block","poldrack-single-stim","265","363615","0.0-5.0-251.0","go-nogo","false","0","","true","<div class = centerbox><div  id = stim2></div></div>","32","32","750","","test","go","251","random","","",""
"","304","32","1057","0","test_block","poldrack-single-stim","266","364684","0.0-5.0-252.0","go-nogo","false","0","","true","<div class = centerbox><div  id = stim2></div></div>","32","32","750","","test","go","252","random","","",""
"","313","32","1183","0","test_block","poldrack-single-stim","267","365874","0.0-5.0-253.0","go-nogo","false","0","","true","<div class = centerbox><div  id = stim2></div></div>","32","32","750","","test","go","253","random","","",""
"","362","32","1052","0","test_block","poldrack-single-stim","268","366936","0.0-5.0-254.0","go-nogo","false","0","","true","<div class = centerbox><div  id = stim2></div></div>","32","32","750","","test","go","254","random","","",""
"","468","32","1253","0","test_block","poldrack-single-stim","269","368200","0.0-5.0-255.0","go-nogo","false","0","","true","<div class = centerbox><div  id = stim2></div></div>","32","32","750","","test","go","255","random","","",""
"","315","32","1089","0","test_block","poldrack-single-stim","270","369299","0.0-5.0-256.0","go-nogo","false","0","","true","<div class = centerbox><div  id = stim2></div></div>","32","32","750","","test","go","256","random","","",""
"","369","32","1273","0","test_block","poldrack-single-stim","271","370586","0.0-5.0-257.0","go-nogo","false","0","","true","<div class = centerbox><div  id = stim2></div></div>","32","32","750","","test","go","257","random","","",""
"","307","32","1443","0","test_block","poldrack-single-stim","272","372038","0.0-5.0-258.0","go-nogo","false","0","","true","<div class = centerbox><div  id = stim2></div></div>","32","32","750","","test","go","258","random","","",""
"","1055","32","1376","0","test_block","poldrack-single-stim","273","373425","0.0-5.0-259.0","go-nogo","false","0","","true","<div class = centerbox><div  id = stim2></div></div>","32","32","750","","test","go","259","random","","",""
"","-1","-1","1376","0","test_block","poldrack-single-stim","274","374814","0.0-5.0-260.0","go-nogo","false","0","","true","<div class = centerbox><div  id = stim1></div></div>","-1","32","750","","test","nogo","260","random","","",""
"","305","32","1101","0","test_block","poldrack-single-stim","275","375922","0.0-5.0-261.0","go-nogo","false","0","","true","<div class = centerbox><div  id = stim2></div></div>","32","32","750","","test","go","261","random","","",""
"","294","32","1122","0","test_block","poldrack-single-stim","276","377054","0.0-5.0-262.0","go-nogo","false","0","","true","<div class = centerbox><div  id = stim2></div></div>","32","32","750","","test","go","262","random","","",""
"","-1","-1","1105","0","test_block","poldrack-single-stim","277","378167","0.0-5.0-263.0","go-nogo","false","0","","true","<div class = centerbox><div  id = stim1></div></div>","-1","32","750","","test","nogo","263","random","","",""
"","286","32","1418","0","test_block","poldrack-single-stim","278","379591","0.0-5.0-264.0","go-nogo","false","0","","true","<div class = centerbox><div  id = stim2></div></div>","32","32","750","","test","go","264","random","","",""
"","332","32","1340","0","test_block","poldrack-single-stim","279","380938","0.0-5.0-265.0","go-nogo","false","0","","true","<div class = centerbox><div  id = stim2></div></div>","32","32","750","","test","go","265","random","","",""
"","292","32","1464","0","test_block","poldrack-single-stim","280","382415","0.0-5.0-266.0","go-nogo","false","0","","true","<div class = centerbox><div  id = stim2></div></div>","32","32","750","","test","go","266","random","","",""
"","300","32","1405","0","test_block","poldrack-single-stim","281","383825","0.0-5.0-267.0","go-nogo","false","0","","true","<div class = centerbox><div  id = stim2></div></div>","32","32","750","","test","go","267","random","","",""
"","280","32","1245","0","test_block","poldrack-single-stim","282","385079","0.0-5.0-268.0","go-nogo","false","0","","true","<div class = centerbox><div  id = stim2></div></div>","32","32","750","","test","go","268","random","","",""
"","351","32","1362","0","test_block","poldrack-single-stim","283","386451","0.0-5.0-269.0","go-nogo","false","0","","false","<div class = centerbox><div  id = stim1></div></div>","-1","32","750","","test","nogo","269","random","","",""
"","327","32","1138","0","test_block","poldrack-single-stim","284","387596","0.0-5.0-270.0","go-nogo","false","0","","true","<div class = centerbox><div  id = stim2></div></div>","32","32","750","","test","go","270","random","","",""
"","374","32","1330","0","test_block","poldrack-single-stim","285","388936","0.0-5.0-271.0","go-nogo","false","0","","true","<div class = centerbox><div  id = stim2></div></div>","32","32","750","","test","go","271","random","","",""
"","358","32","1443","0","test_block","poldrack-single-stim","286","390388","0.0-5.0-272.0","go-nogo","false","0","","true","<div class = centerbox><div  id = stim2></div></div>","32","32","750","","test","go","272","random","","",""
"","396","32","1360","0","test_block","poldrack-single-stim","287","391754","0.0-5.0-273.0","go-nogo","false","0","","true","<div class = centerbox><div  id = stim2></div></div>","32","32","750","","test","go","273","random","","",""
"","324","32","1101","0","test_block","poldrack-single-stim","288","392859","0.0-5.0-274.0","go-nogo","false","0","","true","<div class = centerbox><div  id = stim2></div></div>","32","32","750","","test","go","274","random","","",""
"","362","32","1091","0","test_block","poldrack-single-stim","289","393953","0.0-5.0-275.0","go-nogo","false","0","","true","<div class = centerbox><div  id = stim2></div></div>","32","32","750","","test","go","275","random","","",""
"","367","32","1460","0","test_block","poldrack-single-stim","290","395421","0.0-5.0-276.0","go-nogo","false","0","","true","<div class = centerbox><div  id = stim2></div></div>","32","32","750","","test","go","276","random","","",""
"","441","32","1130","0","test_block","poldrack-single-stim","291","396557","0.0-5.0-277.0","go-nogo","false","0","","true","<div class = centerbox><div  id = stim2></div></div>","32","32","750","","test","go","277","random","","",""
"","337","32","1010","0","test_block","poldrack-single-stim","292","397576","0.0-5.0-278.0","go-nogo","false","0","","true","<div class = centerbox><div  id = stim2></div></div>","32","32","750","","test","go","278","random","","",""
"","423","32","1397","0","test_block","poldrack-single-stim","293","398981","0.0-5.0-279.0","go-nogo","false","0","","true","<div class = centerbox><div  id = stim2></div></div>","32","32","750","","test","go","279","random","","",""
"","507","32","1178","0","test_block","poldrack-single-stim","294","400164","0.0-5.0-280.0","go-nogo","false","0","","true","<div class = centerbox><div  id = stim2></div></div>","32","32","750","","test","go","280","random","","",""
"","465","32","1466","0","test_block","poldrack-single-stim","295","401639","0.0-5.0-281.0","go-nogo","false","0","","true","<div class = centerbox><div  id = stim2></div></div>","32","32","750","","test","go","281","random","","",""
"","332","32","1285","0","test_block","poldrack-single-stim","296","402931","0.0-5.0-282.0","go-nogo","false","0","","true","<div class = centerbox><div  id = stim2></div></div>","32","32","750","","test","go","282","random","","",""
"","-1","-1","1203","0","test_block","poldrack-single-stim","297","404144","0.0-5.0-283.0","go-nogo","false","0","","true","<div class = centerbox><div  id = stim1></div></div>","-1","32","750","","test","nogo","283","random","","",""
"","301","32","1460","0","test_block","poldrack-single-stim","298","405612","0.0-5.0-284.0","go-nogo","false","0","","true","<div class = centerbox><div  id = stim2></div></div>","32","32","750","","test","go","284","random","","",""
"","309","32","1444","0","test_block","poldrack-single-stim","299","407061","0.0-5.0-285.0","go-nogo","false","0","","true","<div class = centerbox><div  id = stim2></div></div>","32","32","750","","test","go","285","random","","",""
"","328","32","1123","0","test_block","poldrack-single-stim","300","408193","0.0-5.0-286.0","go-nogo","false","0","","true","<div class = centerbox><div  id = stim2></div></div>","32","32","750","","test","go","286","random","","",""
"","300","32","1188","0","test_block","poldrack-single-stim","301","409388","0.0-5.0-287.0","go-nogo","false","0","","true","<div class = centerbox><div  id = stim2></div></div>","32","32","750","","test","go","287","random","","",""
"","400","32","1419","0","test_block","poldrack-single-stim","302","410817","0.0-5.0-288.0","go-nogo","false","0","","true","<div class = centerbox><div  id = stim2></div></div>","32","32","750","","test","go","288","random","","",""
"","339","32","1388","0","test_block","poldrack-single-stim","303","412211","0.0-5.0-289.0","go-nogo","false","0","","true","<div class = centerbox><div  id = stim2></div></div>","32","32","750","","test","go","289","random","","",""
"","342","32","1451","0","test_block","poldrack-single-stim","304","413667","0.0-5.0-290.0","go-nogo","false","0","","true","<div class = centerbox><div  id = stim2></div></div>","32","32","750","","test","go","290","random","","",""
"","382","32","1140","0","test_block","poldrack-single-stim","305","414810","0.0-5.0-291.0","go-nogo","false","0","","true","<div class = centerbox><div  id = stim2></div></div>","32","32","750","","test","go","291","random","","",""
"","443","32","1067","0","test_block","poldrack-single-stim","306","415885","0.0-5.0-292.0","go-nogo","false","0","","true","<div class = centerbox><div  id = stim2></div></div>","32","32","750","","test","go","292","random","","",""
"","326","32","1383","0","test_block","poldrack-single-stim","307","417278","0.0-5.0-293.0","go-nogo","false","0","","true","<div class = centerbox><div  id = stim2></div></div>","32","32","750","","test","go","293","random","","",""
"","-1","-1","1188","0","test_block","poldrack-single-stim","308","418474","0.0-5.0-294.0","go-nogo","false","0","","true","<div class = centerbox><div  id = stim1></div></div>","-1","32","750","","test","nogo","294","random","","",""
"","-1","-1","1283","0","test_block","poldrack-single-stim","309","419763","0.0-5.0-295.0","go-nogo","false","0","","true","<div class = centerbox><div  id = stim1></div></div>","-1","32","750","","test","nogo","295","random","","",""
"","374","32","1172","0","test_block","poldrack-single-stim","310","420941","0.0-5.0-296.0","go-nogo","false","0","","true","<div class = centerbox><div  id = stim2></div></div>","32","32","750","","test","go","296","random","","",""
"","314","32","1461","0","test_block","poldrack-single-stim","311","422411","0.0-5.0-297.0","go-nogo","false","0","","true","<div class = centerbox><div  id = stim2></div></div>","32","32","750","","test","go","297","random","","",""
"","287","32","1420","0","test_block","poldrack-single-stim","312","423839","0.0-5.0-298.0","go-nogo","false","0","","true","<div class = centerbox><div  id = stim2></div></div>","32","32","750","","test","go","298","random","","",""
"","548","32","1015","0","test_block","poldrack-single-stim","313","424861","0.0-5.0-299.0","go-nogo","false","0","","false","<div class = centerbox><div  id = stim1></div></div>","-1","32","750","","test","nogo","299","random","","",""
"","556","32","1113","0","test_block","poldrack-single-stim","314","425981","0.0-5.0-300.0","go-nogo","false","0","","true","<div class = centerbox><div  id = stim2></div></div>","32","32","750","","test","go","300","random","","",""
"","510","32","1476","0","test_block","poldrack-single-stim","315","427462","0.0-5.0-301.0","go-nogo","false","0","","true","<div class = centerbox><div  id = stim2></div></div>","32","32","750","","test","go","301","random","","",""
"","300","32","1202","0","test_block","poldrack-single-stim","316","428670","0.0-5.0-302.0","go-nogo","false","0","","true","<div class = centerbox><div  id = stim2></div></div>","32","32","750","","test","go","302","random","","",""
"","325","32","1111","0","test_block","poldrack-single-stim","317","429793","0.0-5.0-303.0","go-nogo","false","0","","false","<div class = centerbox><div  id = stim1></div></div>","-1","32","750","","test","nogo","303","random","","",""
"","-1","-1","1267","0","test_block","poldrack-single-stim","318","431065","0.0-5.0-304.0","go-nogo","false","0","","false","<div class = centerbox><div  id = stim2></div></div>","32","32","750","","test","go","304","random","","",""
"","-1","-1","1463","0","test_block","poldrack-single-stim","319","432537","0.0-5.0-305.0","go-nogo","false","0","","true","<div class = centerbox><div  id = stim1></div></div>","-1","32","750","","test","nogo","305","random","","",""
"","421","32","1095","0","test_block","poldrack-single-stim","320","433637","0.0-5.0-306.0","go-nogo","false","0","","true","<div class = centerbox><div  id = stim2></div></div>","32","32","750","","test","go","306","random","","",""
"","328","32","1020","0","test_block","poldrack-single-stim","321","434664","0.0-5.0-307.0","go-nogo","false","0","","true","<div class = centerbox><div  id = stim2></div></div>","32","32","750","","test","go","307","random","","",""
"","342","32","1266","0","test_block","poldrack-single-stim","322","435936","0.0-5.0-308.0","go-nogo","false","0","","true","<div class = centerbox><div  id = stim2></div></div>","32","32","750","","test","go","308","random","","",""
"","380","32","1068","0","test_block","poldrack-single-stim","323","437013","0.0-5.0-309.0","go-nogo","false","0","","true","<div class = centerbox><div  id = stim2></div></div>","32","32","750","","test","go","309","random","","",""
"","335","32","1248","0","test_block","poldrack-single-stim","324","438266","0.0-5.0-310.0","go-nogo","false","0","","true","<div class = centerbox><div  id = stim2></div></div>","32","32","750","","test","go","310","random","","",""
"","319","32","1046","0","test_block","poldrack-single-stim","325","439321","0.0-5.0-311.0","go-nogo","false","0","","true","<div class = centerbox><div  id = stim2></div></div>","32","32","750","","test","go","311","random","","",""
"","403","32","1458","0","test_block","poldrack-single-stim","326","440785","0.0-5.0-312.0","go-nogo","false","0","","true","<div class = centerbox><div  id = stim2></div></div>","32","32","750","","test","go","312","random","","",""
"","328","32","1161","0","test_block","poldrack-single-stim","327","441950","0.0-5.0-313.0","go-nogo","false","0","","true","<div class = centerbox><div  id = stim2></div></div>","32","32","750","","test","go","313","random","","",""
"","329","32","1095","0","test_block","poldrack-single-stim","328","443054","0.0-5.0-314.0","go-nogo","false","0","","true","<div class = centerbox><div  id = stim2></div></div>","32","32","750","","test","go","314","random","","",""
"","351","32","1142","0","test_block","poldrack-single-stim","329","444203","0.0-5.0-315.0","go-nogo","false","0","","true","<div class = centerbox><div  id = stim2></div></div>","32","32","750","","test","go","315","random","","",""
"","402","32","1298","0","test_block","poldrack-single-stim","330","445506","0.0-5.0-316.0","go-nogo","false","0","","true","<div class = centerbox><div  id = stim2></div></div>","32","32","750","","test","go","316","random","","",""
"","344","32","1269","0","test_block","poldrack-single-stim","331","446780","0.0-5.0-317.0","go-nogo","false","0","","true","<div class = centerbox><div  id = stim2></div></div>","32","32","750","","test","go","317","random","","",""
"","363","32","1285","0","test_block","poldrack-single-stim","332","448068","0.0-5.0-318.0","go-nogo","false","0","","true","<div class = centerbox><div  id = stim2></div></div>","32","32","750","","test","go","318","random","","",""
"","-1","-1","1045","0","test_block","poldrack-single-stim","333","449124","0.0-5.0-319.0","go-nogo","false","0","","true","<div class = centerbox><div  id = stim1></div></div>","-1","32","750","","test","nogo","319","random","","",""
"","416","32","1313","0","test_block","poldrack-single-stim","334","450448","0.0-5.0-320.0","go-nogo","false","0","","true","<div class = centerbox><div  id = stim2></div></div>","32","32","750","","test","go","320","random","","",""
"","436","32","1121","0","test_block","poldrack-single-stim","335","451575","0.0-5.0-321.0","go-nogo","false","0","","true","<div class = centerbox><div  id = stim2></div></div>","32","32","750","","test","go","321","random","","",""
"","338","32","1051","0","test_block","poldrack-single-stim","336","452630","0.0-5.0-322.0","go-nogo","false","0","","true","<div class = centerbox><div  id = stim2></div></div>","32","32","750","","test","go","322","random","","",""
"","377","32","1022","0","test_block","poldrack-single-stim","337","453658","0.0-5.0-323.0","go-nogo","false","0","","true","<div class = centerbox><div  id = stim2></div></div>","32","32","750","","test","go","323","random","","",""
"","341","32","1112","0","test_block","poldrack-single-stim","338","454774","0.0-5.0-324.0","go-nogo","false","0","","true","<div class = centerbox><div  id = stim2></div></div>","32","32","750","","test","go","324","random","","",""
"","-1","-1","1299","0","test_block","poldrack-single-stim","339","456080","0.0-5.0-325.0","go-nogo","false","0","","true","<div class = centerbox><div  id = stim1></div></div>","-1","32","750","","test","nogo","325","random","","",""
"","367","32","1231","0","test_block","poldrack-single-stim","340","457316","0.0-5.0-326.0","go-nogo","false","0","","true","<div class = centerbox><div  id = stim2></div></div>","32","32","750","","test","go","326","random","","",""
"","344","32","1176","0","test_block","poldrack-single-stim","341","458500","0.0-5.0-327.0","go-nogo","false","0","","true","<div class = centerbox><div  id = stim2></div></div>","32","32","750","","test","go","327","random","","",""
"","320","32","1132","0","test_block","poldrack-single-stim","342","459638","0.0-5.0-328.0","go-nogo","false","0","","true","<div class = centerbox><div  id = stim2></div></div>","32","32","750","","test","go","328","random","","",""
"","314","32","1462","0","test_block","poldrack-single-stim","343","461107","0.0-5.0-329.0","go-nogo","false","0","","true","<div class = centerbox><div  id = stim2></div></div>","32","32","750","","test","go","329","random","","",""
"","324","32","1088","0","test_block","poldrack-single-stim","344","462205","0.0-5.0-330.0","go-nogo","false","0","","true","<div class = centerbox><div  id = stim2></div></div>","32","32","750","","test","go","330","random","","",""
"","429","32","1449","0","test_block","poldrack-single-stim","345","463659","0.0-5.0-331.0","go-nogo","false","0","","true","<div class = centerbox><div  id = stim2></div></div>","32","32","750","","test","go","331","random","","",""
"","303","32","1141","0","test_block","poldrack-single-stim","346","464805","0.0-5.0-332.0","go-nogo","false","0","","true","<div class = centerbox><div  id = stim2></div></div>","32","32","750","","test","go","332","random","","",""
"","275","32","1422","0","test_block","poldrack-single-stim","347","466233","0.0-5.0-333.0","go-nogo","false","0","","true","<div class = centerbox><div  id = stim2></div></div>","32","32","750","","test","go","333","random","","",""
"","356","32","1202","0","test_block","poldrack-single-stim","348","467446","0.0-5.0-334.0","go-nogo","false","0","","true","<div class = centerbox><div  id = stim2></div></div>","32","32","750","","test","go","334","random","","",""
"","288","32","1443","0","test_block","poldrack-single-stim","349","468898","0.0-5.0-335.0","go-nogo","false","0","","true","<div class = centerbox><div  id = stim2></div></div>","32","32","750","","test","go","335","random","","",""
"","330","32","1403","0","test_block","poldrack-single-stim","350","470310","0.0-5.0-336.0","go-nogo","false","0","","true","<div class = centerbox><div  id = stim2></div></div>","32","32","750","","test","go","336","random","","",""
"","-1","-1","1112","0","test_block","poldrack-single-stim","351","471430","0.0-5.0-337.0","go-nogo","false","0","","true","<div class = centerbox><div  id = stim1></div></div>","-1","32","750","","test","nogo","337","random","","",""
"","294","32","1005","0","test_block","poldrack-single-stim","352","472449","0.0-5.0-338.0","go-nogo","false","0","","true","<div class = centerbox><div  id = stim2></div></div>","32","32","750","","test","go","338","random","","",""
"","301","32","1241","0","test_block","poldrack-single-stim","353","473698","0.0-5.0-339.0","go-nogo","false","0","","true","<div class = centerbox><div  id = stim2></div></div>","32","32","750","","test","go","339","random","","",""
"","309","32","1485","0","test_block","poldrack-single-stim","354","475190","0.0-5.0-340.0","go-nogo","false","0","","true","<div class = centerbox><div  id = stim2></div></div>","32","32","750","","test","go","340","random","","",""
"","300","32","1035","0","test_block","poldrack-single-stim","355","476230","0.0-5.0-341.0","go-nogo","false","0","","true","<div class = centerbox><div  id = stim2></div></div>","32","32","750","","test","go","341","random","","",""
"","350","32","1290","0","test_block","poldrack-single-stim","356","477530","0.0-5.0-342.0","go-nogo","false","0","","true","<div class = centerbox><div  id = stim2></div></div>","32","32","750","","test","go","342","random","","",""
"","292","32","1106","0","test_block","poldrack-single-stim","357","478642","0.0-5.0-343.0","go-nogo","false","0","","false","<div class = centerbox><div  id = stim1></div></div>","-1","32","750","","test","nogo","343","random","","",""
"","-1","-1","1297","0","test_block","poldrack-single-stim","358","479945","0.0-5.0-344.0","go-nogo","false","0","","false","<div class = centerbox><div  id = stim2></div></div>","32","32","750","","test","go","344","random","","",""
"","447","32","1108","0","test_block","poldrack-single-stim","359","481059","0.0-5.0-345.0","go-nogo","false","0","","true","<div class = centerbox><div  id = stim2></div></div>","32","32","750","","test","go","345","random","","",""
"","336","32","1479","0","test_block","poldrack-single-stim","360","482545","0.0-5.0-346.0","go-nogo","false","0","","true","<div class = centerbox><div  id = stim2></div></div>","32","32","750","","test","go","346","random","","",""
"","347","32","1461","0","test_block","poldrack-single-stim","361","484015","0.0-5.0-347.0","go-nogo","false","0","","true","<div class = centerbox><div  id = stim2></div></div>","32","32","750","","test","go","347","random","","",""
"","385","32","1331","0","test_block","poldrack-single-stim","362","485355","0.0-5.0-348.0","go-nogo","false","0","","true","<div class = centerbox><div  id = stim2></div></div>","32","32","750","","test","go","348","random","","",""
"","354","32","1218","0","test_block","poldrack-single-stim","363","486582","0.0-5.0-349.0","go-nogo","false","0","","true","<div class = centerbox><div  id = stim2></div></div>","32","32","750","","test","go","349","random","","",""
"","25720","","","","post task questions","survey-text","364","512315","0.0-7.0","go-nogo","false","0","","","","","","","","","","","","{""Q0"":""Respond to a certain color by hitting space bar"",""Q1"":""It's a bit underpaid.""}","",""
"<div class = centerbox><p class = center-block-text>Thanks for completing this task!</p><p class = center-block-text>Insert the following code to collect your payment at Amazon Mechanical Turk:</p><p class = center-block-text>41508317</p><p class = center-block-text>Press <strong>enter</strong> to continue.</p></div>","2940","13","2940","0","end","poldrack-text","365","516257","0.0-8.0","go-nogo","false","0","","","","","","","","","","","","","41508317","true"
