"text","rt","key_press","block_duration","timing_post_trial","trial_id","trial_type","trial_index","time_elapsed","internal_node_id","exp_id","full_screen","focus_shifts","view_history","correct","stimulus","correct_response","possible_responses","stim_duration","feedback_duration","exp_stage","condition","trial_num","mode","responses","payment_id","credit_var"
"<div class = centerbox><p class = center-block-text>Welcome to the experiment. This task will take around 10 minutes. Press <strong>enter</strong> to begin.</p></div>","10767","13","10767","0","instruction","poldrack-text","0","10776","0.0-0.0-0.0","go-nogo","false","4","","","","","","","","","","","","","",""
"","20712","","","","instruction","poldrack-instructions","1","31492","0.0-0.0-1.0","go-nogo","false","0","[{""page_index"":0,""viewing_time"":20709}]","","","","","","","","","","","","",""
"","684","32","1068","250","practice","poldrack-categorize","2","34591","0.0-1.0-0.0","go-nogo","false","0","","true","<div class = centerbox><div  id = stim2></div></div>","32","32","750","1000","practice","go","0","random","","",""
"","-1","-1","1244","250","practice","poldrack-categorize","3","37104","0.0-1.0-1.0","go-nogo","false","0","","false","<div class = centerbox><div  id = stim2></div></div>","32","32","750","1000","practice","go","1","random","","",""
"","-1","-1","1009","250","practice","poldrack-categorize","4","39377","0.0-1.0-2.0","go-nogo","false","0","","true","<div class = centerbox><div id = stim1></div></div>","-1","32","750","1000","practice","nogo","2","random","","",""
"","-1","-1","1139","250","practice","poldrack-categorize","5","41777","0.0-1.0-3.0","go-nogo","false","0","","true","<div class = centerbox><div id = stim1></div></div>","-1","32","750","1000","practice","nogo","3","random","","",""
"","-1","-1","1384","250","practice","poldrack-categorize","6","44424","0.0-1.0-4.0","go-nogo","false","0","","true","<div class = centerbox><div id = stim1></div></div>","-1","32","750","1000","practice","nogo","4","random","","",""
"","-1","-1","1199","250","practice","poldrack-categorize","7","46887","0.0-1.0-5.0","go-nogo","false","0","","true","<div class = centerbox><div id = stim1></div></div>","-1","32","750","1000","practice","nogo","5","random","","",""
"","378","32","1121","250","practice","poldrack-categorize","8","49270","0.0-1.0-6.0","go-nogo","false","0","","true","<div class = centerbox><div  id = stim2></div></div>","32","32","750","1000","practice","go","6","random","","",""
"","352","32","1261","250","practice","poldrack-categorize","9","51790","0.0-1.0-7.0","go-nogo","false","0","","true","<div class = centerbox><div  id = stim2></div></div>","32","32","750","1000","practice","go","7","random","","",""
"","343","32","1124","250","practice","poldrack-categorize","10","54176","0.0-1.0-8.0","go-nogo","false","0","","true","<div class = centerbox><div  id = stim2></div></div>","32","32","750","1000","practice","go","8","random","","",""
"","-1","-1","1452","250","practice","poldrack-categorize","11","56889","0.0-1.0-9.0","go-nogo","false","0","","true","<div class = centerbox><div id = stim1></div></div>","-1","32","750","1000","practice","nogo","9","random","","",""
"","","","","","reset_trial","call-function","12","57142","0.0-3.0","go-nogo","false","0","","","","","","","","","","","","","",""
"<div class = centerbox><p class = block-text>Practice is over, we will now begin the experiment. You will no longer get feedback about your responses.</p><p class = block-text>Remember, if you see the <font color=""blue"">blue</font> square you should <strong> respond by pressing the spacebar as quickly as possible</strong>. If you see the <font color=""orange"">orange</font> square you should <strong> not respond</strong>. Press <strong>enter</strong> to begin.</p></div>","6826","13","6826","1000","test_intro","poldrack-text","13","63976","0.0-4.0","go-nogo","false","0","","","","","","","","","","","","","",""
"","540","32","1405","0","test_block","poldrack-single-stim","14","66398","0.0-5.0-0.0","go-nogo","false","0","","true","<div class = centerbox><div  id = stim2></div></div>","32","32","750","","test","go","0","random","","",""
"","519","32","1433","0","test_block","poldrack-single-stim","15","68192","0.0-5.0-1.0","go-nogo","false","0","","true","<div class = centerbox><div  id = stim2></div></div>","32","32","750","","test","go","1","random","","",""
"","360","32","1433","0","test_block","poldrack-single-stim","16","69864","0.0-5.0-2.0","go-nogo","false","0","","true","<div class = centerbox><div  id = stim2></div></div>","32","32","750","","test","go","2","random","","",""
"","442","32","1018","0","test_block","poldrack-single-stim","17","71109","0.0-5.0-3.0","go-nogo","false","0","","true","<div class = centerbox><div  id = stim2></div></div>","32","32","750","","test","go","3","random","","",""
"","354","32","1278","0","test_block","poldrack-single-stim","18","72611","0.0-5.0-4.0","go-nogo","false","0","","true","<div class = centerbox><div  id = stim2></div></div>","32","32","750","","test","go","4","random","","",""
"","365","32","1235","0","test_block","poldrack-single-stim","19","74052","0.0-5.0-5.0","go-nogo","false","0","","true","<div class = centerbox><div  id = stim2></div></div>","32","32","750","","test","go","5","random","","",""
"","359","32","1463","0","test_block","poldrack-single-stim","20","75692","0.0-5.0-6.0","go-nogo","false","0","","true","<div class = centerbox><div  id = stim2></div></div>","32","32","750","","test","go","6","random","","",""
"","369","32","1207","0","test_block","poldrack-single-stim","21","77051","0.0-5.0-7.0","go-nogo","false","0","","true","<div class = centerbox><div  id = stim2></div></div>","32","32","750","","test","go","7","random","","",""
"","346","32","1011","0","test_block","poldrack-single-stim","22","78241","0.0-5.0-8.0","go-nogo","false","0","","true","<div class = centerbox><div  id = stim2></div></div>","32","32","750","","test","go","8","random","","",""
"","-1","-1","1398","0","test_block","poldrack-single-stim","23","79794","0.0-5.0-9.0","go-nogo","false","0","","true","<div class = centerbox><div  id = stim1></div></div>","-1","32","750","","test","nogo","9","random","","",""
"","-1","-1","1456","0","test_block","poldrack-single-stim","24","81397","0.0-5.0-10.0","go-nogo","false","0","","true","<div class = centerbox><div  id = stim1></div></div>","-1","32","750","","test","nogo","10","random","","",""
"","436","32","1285","0","test_block","poldrack-single-stim","25","82827","0.0-5.0-11.0","go-nogo","false","0","","true","<div class = centerbox><div  id = stim2></div></div>","32","32","750","","test","go","11","random","","",""
"","368","32","1449","0","test_block","poldrack-single-stim","26","84399","0.0-5.0-12.0","go-nogo","false","0","","true","<div class = centerbox><div  id = stim2></div></div>","32","32","750","","test","go","12","random","","",""
"","374","32","1298","0","test_block","poldrack-single-stim","27","85832","0.0-5.0-13.0","go-nogo","false","0","","true","<div class = centerbox><div  id = stim2></div></div>","32","32","750","","test","go","13","random","","",""
"","343","32","1476","0","test_block","poldrack-single-stim","28","87434","0.0-5.0-14.0","go-nogo","false","0","","true","<div class = centerbox><div  id = stim2></div></div>","32","32","750","","test","go","14","random","","",""
"","309","32","1427","0","test_block","poldrack-single-stim","29","88979","0.0-5.0-15.0","go-nogo","false","0","","true","<div class = centerbox><div  id = stim2></div></div>","32","32","750","","test","go","15","random","","",""
"","334","32","1049","0","test_block","poldrack-single-stim","30","90143","0.0-5.0-16.0","go-nogo","false","0","","true","<div class = centerbox><div  id = stim2></div></div>","32","32","750","","test","go","16","random","","",""
"","368","32","1335","0","test_block","poldrack-single-stim","31","91611","0.0-5.0-17.0","go-nogo","false","0","","true","<div class = centerbox><div  id = stim2></div></div>","32","32","750","","test","go","17","random","","",""
"","409","32","1090","0","test_block","poldrack-single-stim","32","92838","0.0-5.0-18.0","go-nogo","false","0","","true","<div class = centerbox><div  id = stim2></div></div>","32","32","750","","test","go","18","random","","",""
"","317","32","1187","0","test_block","poldrack-single-stim","33","94155","0.0-5.0-19.0","go-nogo","false","0","","true","<div class = centerbox><div  id = stim2></div></div>","32","32","750","","test","go","19","random","","",""
"","326","32","1278","0","test_block","poldrack-single-stim","34","95573","0.0-5.0-20.0","go-nogo","false","0","","true","<div class = centerbox><div  id = stim2></div></div>","32","32","750","","test","go","20","random","","",""
"","318","32","1386","0","test_block","poldrack-single-stim","35","97071","0.0-5.0-21.0","go-nogo","false","0","","true","<div class = centerbox><div  id = stim2></div></div>","32","32","750","","test","go","21","random","","",""
"","326","32","1391","0","test_block","poldrack-single-stim","36","98604","0.0-5.0-22.0","go-nogo","false","0","","true","<div class = centerbox><div  id = stim2></div></div>","32","32","750","","test","go","22","random","","",""
"","292","32","1216","0","test_block","poldrack-single-stim","37","99960","0.0-5.0-23.0","go-nogo","false","0","","true","<div class = centerbox><div  id = stim2></div></div>","32","32","750","","test","go","23","random","","",""
"","308","32","1471","0","test_block","poldrack-single-stim","38","101560","0.0-5.0-24.0","go-nogo","false","0","","true","<div class = centerbox><div  id = stim2></div></div>","32","32","750","","test","go","24","random","","",""
"","354","32","1200","0","test_block","poldrack-single-stim","39","102898","0.0-5.0-25.0","go-nogo","false","0","","true","<div class = centerbox><div  id = stim2></div></div>","32","32","750","","test","go","25","random","","",""
"","322","32","1121","0","test_block","poldrack-single-stim","40","104131","0.0-5.0-26.0","go-nogo","false","0","","true","<div class = centerbox><div  id = stim2></div></div>","32","32","750","","test","go","26","random","","",""
"","-1","-1","1231","0","test_block","poldrack-single-stim","41","105506","0.0-5.0-27.0","go-nogo","false","0","","true","<div class = centerbox><div  id = stim1></div></div>","-1","32","750","","test","nogo","27","random","","",""
"","422","32","1460","0","test_block","poldrack-single-stim","42","107083","0.0-5.0-28.0","go-nogo","false","0","","true","<div class = centerbox><div  id = stim2></div></div>","32","32","750","","test","go","28","random","","",""
"","339","32","1209","0","test_block","poldrack-single-stim","43","108404","0.0-5.0-29.0","go-nogo","false","0","","true","<div class = centerbox><div  id = stim2></div></div>","32","32","750","","test","go","29","random","","",""
"","315","32","1256","0","test_block","poldrack-single-stim","44","109776","0.0-5.0-30.0","go-nogo","false","0","","true","<div class = centerbox><div  id = stim2></div></div>","32","32","750","","test","go","30","random","","",""
"","327","32","1436","0","test_block","poldrack-single-stim","45","111352","0.0-5.0-31.0","go-nogo","false","0","","true","<div class = centerbox><div  id = stim2></div></div>","32","32","750","","test","go","31","random","","",""
"","357","32","1463","0","test_block","poldrack-single-stim","46","112933","0.0-5.0-32.0","go-nogo","false","0","","true","<div class = centerbox><div  id = stim2></div></div>","32","32","750","","test","go","32","random","","",""
"","363","32","1142","0","test_block","poldrack-single-stim","47","114199","0.0-5.0-33.0","go-nogo","false","0","","true","<div class = centerbox><div  id = stim2></div></div>","32","32","750","","test","go","33","random","","",""
"","381","32","1433","0","test_block","poldrack-single-stim","48","115761","0.0-5.0-34.0","go-nogo","false","0","","true","<div class = centerbox><div  id = stim2></div></div>","32","32","750","","test","go","34","random","","",""
"","-1","-1","1410","0","test_block","poldrack-single-stim","49","117278","0.0-5.0-35.0","go-nogo","false","0","","true","<div class = centerbox><div  id = stim1></div></div>","-1","32","750","","test","nogo","35","random","","",""
"","377","32","1410","0","test_block","poldrack-single-stim","50","118818","0.0-5.0-36.0","go-nogo","false","0","","true","<div class = centerbox><div  id = stim2></div></div>","32","32","750","","test","go","36","random","","",""
"","395","32","1499","0","test_block","poldrack-single-stim","51","120452","0.0-5.0-37.0","go-nogo","false","0","","true","<div class = centerbox><div  id = stim2></div></div>","32","32","750","","test","go","37","random","","",""
"","341","32","1248","0","test_block","poldrack-single-stim","52","121815","0.0-5.0-38.0","go-nogo","false","0","","true","<div class = centerbox><div  id = stim2></div></div>","32","32","750","","test","go","38","random","","",""
"","496","32","1023","0","test_block","poldrack-single-stim","53","122962","0.0-5.0-39.0","go-nogo","false","0","","true","<div class = centerbox><div  id = stim2></div></div>","32","32","750","","test","go","39","random","","",""
"","317","32","1190","0","test_block","poldrack-single-stim","54","124275","0.0-5.0-40.0","go-nogo","false","0","","true","<div class = centerbox><div  id = stim2></div></div>","32","32","750","","test","go","40","random","","",""
"","390","32","1347","0","test_block","poldrack-single-stim","55","125770","0.0-5.0-41.0","go-nogo","false","0","","true","<div class = centerbox><div  id = stim2></div></div>","32","32","750","","test","go","41","random","","",""
"","300","32","1473","0","test_block","poldrack-single-stim","56","127395","0.0-5.0-42.0","go-nogo","false","0","","true","<div class = centerbox><div  id = stim2></div></div>","32","32","750","","test","go","42","random","","",""
"","359","32","1275","0","test_block","poldrack-single-stim","57","128810","0.0-5.0-43.0","go-nogo","false","0","","true","<div class = centerbox><div  id = stim2></div></div>","32","32","750","","test","go","43","random","","",""
"","354","32","1310","0","test_block","poldrack-single-stim","58","130255","0.0-5.0-44.0","go-nogo","false","0","","true","<div class = centerbox><div  id = stim2></div></div>","32","32","750","","test","go","44","random","","",""
"","338","32","1011","0","test_block","poldrack-single-stim","59","131396","0.0-5.0-45.0","go-nogo","false","0","","true","<div class = centerbox><div  id = stim2></div></div>","32","32","750","","test","go","45","random","","",""
"","372","32","1043","0","test_block","poldrack-single-stim","60","132585","0.0-5.0-46.0","go-nogo","false","0","","true","<div class = centerbox><div  id = stim2></div></div>","32","32","750","","test","go","46","random","","",""
"","-1","-1","1386","0","test_block","poldrack-single-stim","61","134080","0.0-5.0-47.0","go-nogo","false","0","","false","<div class = centerbox><div  id = stim2></div></div>","32","32","750","","test","go","47","random","","",""
"","293","32","1075","0","test_block","poldrack-single-stim","62","135281","0.0-5.0-48.0","go-nogo","false","0","","true","<div class = centerbox><div  id = stim2></div></div>","32","32","750","","test","go","48","random","","",""
"","306","32","1457","0","test_block","poldrack-single-stim","63","136859","0.0-5.0-49.0","go-nogo","false","0","","true","<div class = centerbox><div  id = stim2></div></div>","32","32","750","","test","go","49","random","","",""
"","312","32","1489","0","test_block","poldrack-single-stim","64","138484","0.0-5.0-50.0","go-nogo","false","0","","true","<div class = centerbox><div  id = stim2></div></div>","32","32","750","","test","go","50","random","","",""
"","316","32","1150","0","test_block","poldrack-single-stim","65","139749","0.0-5.0-51.0","go-nogo","false","0","","true","<div class = centerbox><div  id = stim2></div></div>","32","32","750","","test","go","51","random","","",""
"","396","32","1160","0","test_block","poldrack-single-stim","66","141031","0.0-5.0-52.0","go-nogo","false","0","","true","<div class = centerbox><div  id = stim2></div></div>","32","32","750","","test","go","52","random","","",""
"","322","32","1255","0","test_block","poldrack-single-stim","67","142393","0.0-5.0-53.0","go-nogo","false","0","","true","<div class = centerbox><div  id = stim2></div></div>","32","32","750","","test","go","53","random","","",""
"","331","32","1130","0","test_block","poldrack-single-stim","68","143634","0.0-5.0-54.0","go-nogo","false","0","","true","<div class = centerbox><div  id = stim2></div></div>","32","32","750","","test","go","54","random","","",""
"","358","32","1118","0","test_block","poldrack-single-stim","69","144859","0.0-5.0-55.0","go-nogo","false","0","","true","<div class = centerbox><div  id = stim2></div></div>","32","32","750","","test","go","55","random","","",""
"","373","32","1144","0","test_block","poldrack-single-stim","70","146126","0.0-5.0-56.0","go-nogo","false","0","","true","<div class = centerbox><div  id = stim2></div></div>","32","32","750","","test","go","56","random","","",""
"","274","32","1399","0","test_block","poldrack-single-stim","71","147646","0.0-5.0-57.0","go-nogo","false","0","","true","<div class = centerbox><div  id = stim2></div></div>","32","32","750","","test","go","57","random","","",""
"","0","32","1483","0","test_block","poldrack-single-stim","72","149240","0.0-5.0-58.0","go-nogo","false","0","","true","<div class = centerbox><div  id = stim2></div></div>","32","32","750","","test","go","58","random","","",""
"","547","32","1318","0","test_block","poldrack-single-stim","73","150670","0.0-5.0-59.0","go-nogo","false","0","","true","<div class = centerbox><div  id = stim2></div></div>","32","32","750","","test","go","59","random","","",""
"","334","32","1352","0","test_block","poldrack-single-stim","74","152125","0.0-5.0-60.0","go-nogo","false","0","","true","<div class = centerbox><div  id = stim2></div></div>","32","32","750","","test","go","60","random","","",""
"","318","32","1229","0","test_block","poldrack-single-stim","75","153468","0.0-5.0-61.0","go-nogo","false","0","","true","<div class = centerbox><div  id = stim2></div></div>","32","32","750","","test","go","61","random","","",""
"","358","32","1365","0","test_block","poldrack-single-stim","76","154935","0.0-5.0-62.0","go-nogo","false","0","","true","<div class = centerbox><div  id = stim2></div></div>","32","32","750","","test","go","62","random","","",""
"","324","32","1077","0","test_block","poldrack-single-stim","77","156139","0.0-5.0-63.0","go-nogo","false","0","","true","<div class = centerbox><div  id = stim2></div></div>","32","32","750","","test","go","63","random","","",""
"","548","32","1187","0","test_block","poldrack-single-stim","78","157443","0.0-5.0-64.0","go-nogo","false","0","","true","<div class = centerbox><div  id = stim2></div></div>","32","32","750","","test","go","64","random","","",""
"","313","32","1124","0","test_block","poldrack-single-stim","79","158661","0.0-5.0-65.0","go-nogo","false","0","","true","<div class = centerbox><div  id = stim2></div></div>","32","32","750","","test","go","65","random","","",""
"","293","32","1279","0","test_block","poldrack-single-stim","80","160062","0.0-5.0-66.0","go-nogo","false","0","","true","<div class = centerbox><div  id = stim2></div></div>","32","32","750","","test","go","66","random","","",""
"","297","32","1136","0","test_block","poldrack-single-stim","81","161335","0.0-5.0-67.0","go-nogo","false","0","","true","<div class = centerbox><div  id = stim2></div></div>","32","32","750","","test","go","67","random","","",""
"","317","32","1432","0","test_block","poldrack-single-stim","82","162908","0.0-5.0-68.0","go-nogo","false","0","","true","<div class = centerbox><div  id = stim2></div></div>","32","32","750","","test","go","68","random","","",""
"","303","32","1275","0","test_block","poldrack-single-stim","83","164309","0.0-5.0-69.0","go-nogo","false","0","","true","<div class = centerbox><div  id = stim2></div></div>","32","32","750","","test","go","69","random","","",""
"","280","32","1348","0","test_block","poldrack-single-stim","84","165759","0.0-5.0-70.0","go-nogo","false","0","","true","<div class = centerbox><div  id = stim2></div></div>","32","32","750","","test","go","70","random","","",""
"","295","32","1075","0","test_block","poldrack-single-stim","85","166941","0.0-5.0-71.0","go-nogo","false","0","","true","<div class = centerbox><div  id = stim2></div></div>","32","32","750","","test","go","71","random","","",""
"","322","32","1147","0","test_block","poldrack-single-stim","86","168204","0.0-5.0-72.0","go-nogo","false","0","","true","<div class = centerbox><div  id = stim2></div></div>","32","32","750","","test","go","72","random","","",""
"","317","32","1438","0","test_block","poldrack-single-stim","87","169762","0.0-5.0-73.0","go-nogo","false","0","","true","<div class = centerbox><div  id = stim2></div></div>","32","32","750","","test","go","73","random","","",""
"","327","32","1328","0","test_block","poldrack-single-stim","88","171226","0.0-5.0-74.0","go-nogo","false","0","","true","<div class = centerbox><div  id = stim2></div></div>","32","32","750","","test","go","74","random","","",""
"","323","32","1344","0","test_block","poldrack-single-stim","89","172702","0.0-5.0-75.0","go-nogo","false","0","","true","<div class = centerbox><div  id = stim2></div></div>","32","32","750","","test","go","75","random","","",""
"","284","32","1188","0","test_block","poldrack-single-stim","90","174001","0.0-5.0-76.0","go-nogo","false","0","","true","<div class = centerbox><div  id = stim2></div></div>","32","32","750","","test","go","76","random","","",""
"","-1","-1","1235","0","test_block","poldrack-single-stim","91","175357","0.0-5.0-77.0","go-nogo","false","0","","false","<div class = centerbox><div  id = stim2></div></div>","32","32","750","","test","go","77","random","","",""
"","384","32","1060","0","test_block","poldrack-single-stim","92","176553","0.0-5.0-78.0","go-nogo","false","0","","true","<div class = centerbox><div  id = stim2></div></div>","32","32","750","","test","go","78","random","","",""
"","347","32","1161","0","test_block","poldrack-single-stim","93","177846","0.0-5.0-79.0","go-nogo","false","0","","true","<div class = centerbox><div  id = stim2></div></div>","32","32","750","","test","go","79","random","","",""
"","340","32","1175","0","test_block","poldrack-single-stim","94","179149","0.0-5.0-80.0","go-nogo","false","0","","true","<div class = centerbox><div  id = stim2></div></div>","32","32","750","","test","go","80","random","","",""
"","530","32","1166","0","test_block","poldrack-single-stim","95","180437","0.0-5.0-81.0","go-nogo","false","1","","true","<div class = centerbox><div  id = stim2></div></div>","32","32","750","","test","go","81","random","","",""
"","-1","-1","1063","0","test_block","poldrack-single-stim","96","181642","0.0-5.0-82.0","go-nogo","false","0","","false","<div class = centerbox><div  id = stim2></div></div>","32","32","750","","test","go","82","random","","",""
"","357","32","1395","0","test_block","poldrack-single-stim","97","183169","0.0-5.0-83.0","go-nogo","false","0","","true","<div class = centerbox><div  id = stim2></div></div>","32","32","750","","test","go","83","random","","",""
"","334","32","1125","0","test_block","poldrack-single-stim","98","184427","0.0-5.0-84.0","go-nogo","false","0","","true","<div class = centerbox><div  id = stim2></div></div>","32","32","750","","test","go","84","random","","",""
"","291","32","1392","0","test_block","poldrack-single-stim","99","185936","0.0-5.0-85.0","go-nogo","false","0","","true","<div class = centerbox><div  id = stim2></div></div>","32","32","750","","test","go","85","random","","",""
"","351","32","1397","0","test_block","poldrack-single-stim","100","187432","0.0-5.0-86.0","go-nogo","false","0","","true","<div class = centerbox><div  id = stim2></div></div>","32","32","750","","test","go","86","random","","",""
"","261","32","1355","0","test_block","poldrack-single-stim","101","188885","0.0-5.0-87.0","go-nogo","false","0","","true","<div class = centerbox><div  id = stim2></div></div>","32","32","750","","test","go","87","random","","",""
"","331","32","1460","0","test_block","poldrack-single-stim","102","190474","0.0-5.0-88.0","go-nogo","false","0","","true","<div class = centerbox><div  id = stim2></div></div>","32","32","750","","test","go","88","random","","",""
"","348","32","1344","0","test_block","poldrack-single-stim","103","191934","0.0-5.0-89.0","go-nogo","false","0","","true","<div class = centerbox><div  id = stim2></div></div>","32","32","750","","test","go","89","random","","",""
"","291","32","1285","0","test_block","poldrack-single-stim","104","193349","0.0-5.0-90.0","go-nogo","false","0","","true","<div class = centerbox><div  id = stim2></div></div>","32","32","750","","test","go","90","random","","",""
"","290","32","1389","0","test_block","poldrack-single-stim","105","194843","0.0-5.0-91.0","go-nogo","false","0","","true","<div class = centerbox><div  id = stim2></div></div>","32","32","750","","test","go","91","random","","",""
"","309","32","1153","0","test_block","poldrack-single-stim","106","196119","0.0-5.0-92.0","go-nogo","false","0","","false","<div class = centerbox><div  id = stim1></div></div>","-1","32","750","","test","nogo","92","random","","",""
"","347","32","1480","0","test_block","poldrack-single-stim","107","197712","0.0-5.0-93.0","go-nogo","false","0","","true","<div class = centerbox><div  id = stim2></div></div>","32","32","750","","test","go","93","random","","",""
"","350","32","1234","0","test_block","poldrack-single-stim","108","199053","0.0-5.0-94.0","go-nogo","false","0","","true","<div class = centerbox><div  id = stim2></div></div>","32","32","750","","test","go","94","random","","",""
"","322","32","1331","0","test_block","poldrack-single-stim","109","200489","0.0-5.0-95.0","go-nogo","false","0","","true","<div class = centerbox><div  id = stim2></div></div>","32","32","750","","test","go","95","random","","",""
"","346","32","1441","0","test_block","poldrack-single-stim","110","202025","0.0-5.0-96.0","go-nogo","false","0","","true","<div class = centerbox><div  id = stim2></div></div>","32","32","750","","test","go","96","random","","",""
"","321","32","1137","0","test_block","poldrack-single-stim","111","203260","0.0-5.0-97.0","go-nogo","false","0","","true","<div class = centerbox><div  id = stim2></div></div>","32","32","750","","test","go","97","random","","",""
"","-1","-1","1485","0","test_block","poldrack-single-stim","112","204856","0.0-5.0-98.0","go-nogo","false","0","","true","<div class = centerbox><div  id = stim1></div></div>","-1","32","750","","test","nogo","98","random","","",""
"","303","32","1439","0","test_block","poldrack-single-stim","113","206409","0.0-5.0-99.0","go-nogo","false","0","","true","<div class = centerbox><div  id = stim2></div></div>","32","32","750","","test","go","99","random","","",""
"","307","32","1087","0","test_block","poldrack-single-stim","114","207628","0.0-5.0-100.0","go-nogo","false","0","","true","<div class = centerbox><div  id = stim2></div></div>","32","32","750","","test","go","100","random","","",""
"","-1","-1","1221","0","test_block","poldrack-single-stim","115","208974","0.0-5.0-101.0","go-nogo","false","0","","true","<div class = centerbox><div  id = stim1></div></div>","-1","32","750","","test","nogo","101","random","","",""
"","300","32","1067","0","test_block","poldrack-single-stim","116","210144","0.0-5.0-102.0","go-nogo","false","0","","true","<div class = centerbox><div  id = stim2></div></div>","32","32","750","","test","go","102","random","","",""
"","-1","-1","1445","0","test_block","poldrack-single-stim","117","211684","0.0-5.0-103.0","go-nogo","false","0","","true","<div class = centerbox><div  id = stim1></div></div>","-1","32","750","","test","nogo","103","random","","",""
"","326","32","1290","0","test_block","poldrack-single-stim","118","213069","0.0-5.0-104.0","go-nogo","false","0","","true","<div class = centerbox><div  id = stim2></div></div>","32","32","750","","test","go","104","random","","",""
"","-1","-1","1066","0","test_block","poldrack-single-stim","119","214241","0.0-5.0-105.0","go-nogo","false","0","","true","<div class = centerbox><div  id = stim1></div></div>","-1","32","750","","test","nogo","105","random","","",""
"","323","32","1119","0","test_block","poldrack-single-stim","120","215454","0.0-5.0-106.0","go-nogo","false","0","","true","<div class = centerbox><div  id = stim2></div></div>","32","32","750","","test","go","106","random","","",""
"","485","32","1252","0","test_block","poldrack-single-stim","121","216816","0.0-5.0-107.0","go-nogo","false","0","","true","<div class = centerbox><div  id = stim2></div></div>","32","32","750","","test","go","107","random","","",""
"","298","32","1495","0","test_block","poldrack-single-stim","122","218429","0.0-5.0-108.0","go-nogo","false","0","","true","<div class = centerbox><div  id = stim2></div></div>","32","32","750","","test","go","108","random","","",""
"","335","32","1294","0","test_block","poldrack-single-stim","123","219832","0.0-5.0-109.0","go-nogo","false","0","","true","<div class = centerbox><div  id = stim2></div></div>","32","32","750","","test","go","109","random","","",""
"","311","32","1455","0","test_block","poldrack-single-stim","124","221399","0.0-5.0-110.0","go-nogo","false","0","","true","<div class = centerbox><div  id = stim2></div></div>","32","32","750","","test","go","110","random","","",""
"","372","32","1331","0","test_block","poldrack-single-stim","125","222832","0.0-5.0-111.0","go-nogo","false","0","","true","<div class = centerbox><div  id = stim2></div></div>","32","32","750","","test","go","111","random","","",""
"","314","32","1089","0","test_block","poldrack-single-stim","126","224033","0.0-5.0-112.0","go-nogo","false","0","","false","<div class = centerbox><div  id = stim1></div></div>","-1","32","750","","test","nogo","112","random","","",""
"","391","32","1179","0","test_block","poldrack-single-stim","127","225308","0.0-5.0-113.0","go-nogo","false","0","","true","<div class = centerbox><div  id = stim2></div></div>","32","32","750","","test","go","113","random","","",""
"","457","32","1197","0","test_block","poldrack-single-stim","128","226609","0.0-5.0-114.0","go-nogo","false","0","","true","<div class = centerbox><div  id = stim2></div></div>","32","32","750","","test","go","114","random","","",""
"","360","32","1112","0","test_block","poldrack-single-stim","129","227823","0.0-5.0-115.0","go-nogo","false","0","","true","<div class = centerbox><div  id = stim2></div></div>","32","32","750","","test","go","115","random","","",""
"","-1","-1","1174","0","test_block","poldrack-single-stim","130","229092","0.0-5.0-116.0","go-nogo","false","0","","true","<div class = centerbox><div  id = stim1></div></div>","-1","32","750","","test","nogo","116","random","","",""
"","317","32","1004","0","test_block","poldrack-single-stim","131","230199","0.0-5.0-117.0","go-nogo","false","0","","true","<div class = centerbox><div  id = stim2></div></div>","32","32","750","","test","go","117","random","","",""
"","462","32","1340","0","test_block","poldrack-single-stim","132","231646","0.0-5.0-118.0","go-nogo","false","0","","true","<div class = centerbox><div  id = stim2></div></div>","32","32","750","","test","go","118","random","","",""
"","380","32","1101","0","test_block","poldrack-single-stim","133","232858","0.0-5.0-119.0","go-nogo","false","0","","true","<div class = centerbox><div  id = stim2></div></div>","32","32","750","","test","go","119","random","","",""
"","405","32","1135","0","test_block","poldrack-single-stim","134","234104","0.0-5.0-120.0","go-nogo","false","0","","true","<div class = centerbox><div  id = stim2></div></div>","32","32","750","","test","go","120","random","","",""
"","454","32","1373","0","test_block","poldrack-single-stim","135","235574","0.0-5.0-121.0","go-nogo","false","0","","true","<div class = centerbox><div  id = stim2></div></div>","32","32","750","","test","go","121","random","","",""
"","804","32","1069","0","test_block","poldrack-single-stim","136","236752","0.0-5.0-122.0","go-nogo","false","0","","true","<div class = centerbox><div  id = stim2></div></div>","32","32","750","","test","go","122","random","","",""
"","-1","-1","1349","0","test_block","poldrack-single-stim","137","238214","0.0-5.0-123.0","go-nogo","false","0","","false","<div class = centerbox><div  id = stim2></div></div>","32","32","750","","test","go","123","random","","",""
"","444","32","1397","0","test_block","poldrack-single-stim","138","239714","0.0-5.0-124.0","go-nogo","false","0","","true","<div class = centerbox><div  id = stim2></div></div>","32","32","750","","test","go","124","random","","",""
"","279","32","1196","0","test_block","poldrack-single-stim","139","241029","0.0-5.0-125.0","go-nogo","false","0","","true","<div class = centerbox><div  id = stim2></div></div>","32","32","750","","test","go","125","random","","",""
"","358","32","1225","0","test_block","poldrack-single-stim","140","242380","0.0-5.0-126.0","go-nogo","false","0","","true","<div class = centerbox><div  id = stim2></div></div>","32","32","750","","test","go","126","random","","",""
"","427","32","1259","0","test_block","poldrack-single-stim","141","243745","0.0-5.0-127.0","go-nogo","false","0","","false","<div class = centerbox><div  id = stim1></div></div>","-1","32","750","","test","nogo","127","random","","",""
"","391","32","1380","0","test_block","poldrack-single-stim","142","245222","0.0-5.0-128.0","go-nogo","false","0","","true","<div class = centerbox><div  id = stim2></div></div>","32","32","750","","test","go","128","random","","",""
"","350","32","1098","0","test_block","poldrack-single-stim","143","246420","0.0-5.0-129.0","go-nogo","false","0","","true","<div class = centerbox><div  id = stim2></div></div>","32","32","750","","test","go","129","random","","",""
"","362","32","1064","0","test_block","poldrack-single-stim","144","247582","0.0-5.0-130.0","go-nogo","false","0","","true","<div class = centerbox><div  id = stim2></div></div>","32","32","750","","test","go","130","random","","",""
"","384","32","1321","0","test_block","poldrack-single-stim","145","249003","0.0-5.0-131.0","go-nogo","false","0","","true","<div class = centerbox><div  id = stim2></div></div>","32","32","750","","test","go","131","random","","",""
"","385","32","1316","0","test_block","poldrack-single-stim","146","250442","0.0-5.0-132.0","go-nogo","false","0","","true","<div class = centerbox><div  id = stim2></div></div>","32","32","750","","test","go","132","random","","",""
"","390","32","1288","0","test_block","poldrack-single-stim","147","251842","0.0-5.0-133.0","go-nogo","false","0","","true","<div class = centerbox><div  id = stim2></div></div>","32","32","750","","test","go","133","random","","",""
"","351","32","1216","0","test_block","poldrack-single-stim","148","253153","0.0-5.0-134.0","go-nogo","false","0","","true","<div class = centerbox><div  id = stim2></div></div>","32","32","750","","test","go","134","random","","",""
"","-1","-1","1271","0","test_block","poldrack-single-stim","149","254552","0.0-5.0-135.0","go-nogo","false","0","","true","<div class = centerbox><div  id = stim1></div></div>","-1","32","750","","test","nogo","135","random","","",""
"","401","32","1441","0","test_block","poldrack-single-stim","150","256088","0.0-5.0-136.0","go-nogo","false","0","","true","<div class = centerbox><div  id = stim2></div></div>","32","32","750","","test","go","136","random","","",""
"","379","32","1361","0","test_block","poldrack-single-stim","151","257550","0.0-5.0-137.0","go-nogo","false","0","","true","<div class = centerbox><div  id = stim2></div></div>","32","32","750","","test","go","137","random","","",""
"","347","32","1456","0","test_block","poldrack-single-stim","152","259102","0.0-5.0-138.0","go-nogo","false","0","","true","<div class = centerbox><div  id = stim2></div></div>","32","32","750","","test","go","138","random","","",""
"","338","32","1392","0","test_block","poldrack-single-stim","153","260597","0.0-5.0-139.0","go-nogo","false","0","","true","<div class = centerbox><div  id = stim2></div></div>","32","32","750","","test","go","139","random","","",""
"","366","32","1066","0","test_block","poldrack-single-stim","154","261764","0.0-5.0-140.0","go-nogo","false","0","","true","<div class = centerbox><div  id = stim2></div></div>","32","32","750","","test","go","140","random","","",""
"","370","32","1472","0","test_block","poldrack-single-stim","155","263343","0.0-5.0-141.0","go-nogo","false","0","","true","<div class = centerbox><div  id = stim2></div></div>","32","32","750","","test","go","141","random","","",""
"","337","32","1313","0","test_block","poldrack-single-stim","156","264766","0.0-5.0-142.0","go-nogo","false","0","","true","<div class = centerbox><div  id = stim2></div></div>","32","32","750","","test","go","142","random","","",""
"","409","32","1493","0","test_block","poldrack-single-stim","157","266374","0.0-5.0-143.0","go-nogo","false","0","","true","<div class = centerbox><div  id = stim2></div></div>","32","32","750","","test","go","143","random","","",""
"","433","32","1172","0","test_block","poldrack-single-stim","158","267658","0.0-5.0-144.0","go-nogo","false","0","","true","<div class = centerbox><div  id = stim2></div></div>","32","32","750","","test","go","144","random","","",""
"","409","32","1474","0","test_block","poldrack-single-stim","159","269245","0.0-5.0-145.0","go-nogo","false","0","","true","<div class = centerbox><div  id = stim2></div></div>","32","32","750","","test","go","145","random","","",""
"","330","32","1332","0","test_block","poldrack-single-stim","160","270689","0.0-5.0-146.0","go-nogo","false","0","","true","<div class = centerbox><div  id = stim2></div></div>","32","32","750","","test","go","146","random","","",""
"","-1","-1","1021","0","test_block","poldrack-single-stim","161","271820","0.0-5.0-147.0","go-nogo","false","0","","true","<div class = centerbox><div  id = stim1></div></div>","-1","32","750","","test","nogo","147","random","","",""
"","-1","-1","1201","0","test_block","poldrack-single-stim","162","273132","0.0-5.0-148.0","go-nogo","false","0","","true","<div class = centerbox><div  id = stim1></div></div>","-1","32","750","","test","nogo","148","random","","",""
"","404","32","1254","0","test_block","poldrack-single-stim","163","274491","0.0-5.0-149.0","go-nogo","false","0","","true","<div class = centerbox><div  id = stim2></div></div>","32","32","750","","test","go","149","random","","",""
"","333","32","1424","0","test_block","poldrack-single-stim","164","276022","0.0-5.0-150.0","go-nogo","false","0","","true","<div class = centerbox><div  id = stim2></div></div>","32","32","750","","test","go","150","random","","",""
"","342","32","1477","0","test_block","poldrack-single-stim","165","277604","0.0-5.0-151.0","go-nogo","false","0","","true","<div class = centerbox><div  id = stim2></div></div>","32","32","750","","test","go","151","random","","",""
"","364","32","1132","0","test_block","poldrack-single-stim","166","278845","0.0-5.0-152.0","go-nogo","false","0","","true","<div class = centerbox><div  id = stim2></div></div>","32","32","750","","test","go","152","random","","",""
"","-1","-1","1177","0","test_block","poldrack-single-stim","167","280126","0.0-5.0-153.0","go-nogo","false","0","","true","<div class = centerbox><div  id = stim1></div></div>","-1","32","750","","test","nogo","153","random","","",""
"","480","32","1218","0","test_block","poldrack-single-stim","168","281448","0.0-5.0-154.0","go-nogo","false","0","","true","<div class = centerbox><div  id = stim2></div></div>","32","32","750","","test","go","154","random","","",""
"","-1","-1","1120","0","test_block","poldrack-single-stim","169","282672","0.0-5.0-155.0","go-nogo","false","0","","true","<div class = centerbox><div  id = stim1></div></div>","-1","32","750","","test","nogo","155","random","","",""
"","373","32","1254","0","test_block","poldrack-single-stim","170","284027","0.0-5.0-156.0","go-nogo","false","0","","true","<div class = centerbox><div  id = stim2></div></div>","32","32","750","","test","go","156","random","","",""
"","356","32","1116","0","test_block","poldrack-single-stim","171","285255","0.0-5.0-157.0","go-nogo","false","0","","true","<div class = centerbox><div  id = stim2></div></div>","32","32","750","","test","go","157","random","","",""
"","875","32","1236","0","test_block","poldrack-single-stim","172","286582","0.0-5.0-158.0","go-nogo","false","0","","true","<div class = centerbox><div  id = stim2></div></div>","32","32","750","","test","go","158","random","","",""
"","311","32","1209","0","test_block","poldrack-single-stim","173","287886","0.0-5.0-159.0","go-nogo","false","0","","true","<div class = centerbox><div  id = stim2></div></div>","32","32","750","","test","go","159","random","","",""
"","660","32","1228","0","test_block","poldrack-single-stim","174","289208","0.0-5.0-160.0","go-nogo","false","0","","true","<div class = centerbox><div  id = stim2></div></div>","32","32","750","","test","go","160","random","","",""
"","-1","-1","1058","0","test_block","poldrack-single-stim","175","290362","0.0-5.0-161.0","go-nogo","false","0","","true","<div class = centerbox><div  id = stim1></div></div>","-1","32","750","","test","nogo","161","random","","",""
"","302","32","1130","0","test_block","poldrack-single-stim","176","291612","0.0-5.0-162.0","go-nogo","false","0","","true","<div class = centerbox><div  id = stim2></div></div>","32","32","750","","test","go","162","random","","",""
"","320","32","1101","0","test_block","poldrack-single-stim","177","292833","0.0-5.0-163.0","go-nogo","false","0","","true","<div class = centerbox><div  id = stim2></div></div>","32","32","750","","test","go","163","random","","",""
"","342","32","1392","0","test_block","poldrack-single-stim","178","294334","0.0-5.0-164.0","go-nogo","false","0","","true","<div class = centerbox><div  id = stim2></div></div>","32","32","750","","test","go","164","random","","",""
"","375","32","1278","0","test_block","poldrack-single-stim","179","295721","0.0-5.0-165.0","go-nogo","false","0","","true","<div class = centerbox><div  id = stim2></div></div>","32","32","750","","test","go","165","random","","",""
"","313","32","1207","0","test_block","poldrack-single-stim","180","297042","0.0-5.0-166.0","go-nogo","false","0","","true","<div class = centerbox><div  id = stim2></div></div>","32","32","750","","test","go","166","random","","",""
"","469","32","1209","0","test_block","poldrack-single-stim","181","298391","0.0-5.0-167.0","go-nogo","false","0","","true","<div class = centerbox><div  id = stim2></div></div>","32","32","750","","test","go","167","random","","",""
"","613","32","1270","0","test_block","poldrack-single-stim","182","299772","0.0-5.0-168.0","go-nogo","false","0","","true","<div class = centerbox><div  id = stim2></div></div>","32","32","750","","test","go","168","random","","",""
"","478","32","1247","0","test_block","poldrack-single-stim","183","301167","0.0-5.0-169.0","go-nogo","false","0","","true","<div class = centerbox><div  id = stim2></div></div>","32","32","750","","test","go","169","random","","",""
"","403","32","1018","0","test_block","poldrack-single-stim","184","302308","0.0-5.0-170.0","go-nogo","false","0","","true","<div class = centerbox><div  id = stim2></div></div>","32","32","750","","test","go","170","random","","",""
"","272","32","1100","0","test_block","poldrack-single-stim","185","303591","0.0-5.0-171.0","go-nogo","false","0","","true","<div class = centerbox><div  id = stim2></div></div>","32","32","750","","test","go","171","random","","",""
"","305","32","1271","0","test_block","poldrack-single-stim","186","304994","0.0-5.0-172.0","go-nogo","false","0","","true","<div class = centerbox><div  id = stim2></div></div>","32","32","750","","test","go","172","random","","",""
"","295","32","1227","0","test_block","poldrack-single-stim","187","306384","0.0-5.0-173.0","go-nogo","false","0","","true","<div class = centerbox><div  id = stim2></div></div>","32","32","750","","test","go","173","random","","",""
"","309","32","1188","0","test_block","poldrack-single-stim","188","307667","0.0-5.0-174.0","go-nogo","false","0","","true","<div class = centerbox><div  id = stim2></div></div>","32","32","750","","test","go","174","random","","",""
"","293","32","1245","0","test_block","poldrack-single-stim","189","309021","0.0-5.0-175.0","go-nogo","false","0","","true","<div class = centerbox><div  id = stim2></div></div>","32","32","750","","test","go","175","random","","",""
"","295","32","1409","0","test_block","poldrack-single-stim","190","310535","0.0-5.0-176.0","go-nogo","false","0","","true","<div class = centerbox><div  id = stim2></div></div>","32","32","750","","test","go","176","random","","",""
"","84","32","1483","0","test_block","poldrack-single-stim","191","312124","0.0-5.0-177.0","go-nogo","false","0","","true","<div class = centerbox><div  id = stim2></div></div>","32","32","750","","test","go","177","random","","",""
"","314","32","1023","0","test_block","poldrack-single-stim","192","313241","0.0-5.0-178.0","go-nogo","false","0","","true","<div class = centerbox><div  id = stim2></div></div>","32","32","750","","test","go","178","random","","",""
"","567","32","1403","0","test_block","poldrack-single-stim","193","314753","0.0-5.0-179.0","go-nogo","false","0","","true","<div class = centerbox><div  id = stim2></div></div>","32","32","750","","test","go","179","random","","",""
"","362","32","1481","0","test_block","poldrack-single-stim","194","316348","0.0-5.0-180.0","go-nogo","false","0","","true","<div class = centerbox><div  id = stim2></div></div>","32","32","750","","test","go","180","random","","",""
"","313","32","1468","0","test_block","poldrack-single-stim","195","317926","0.0-5.0-181.0","go-nogo","false","0","","true","<div class = centerbox><div  id = stim2></div></div>","32","32","750","","test","go","181","random","","",""
"","305","32","1413","0","test_block","poldrack-single-stim","196","319440","0.0-5.0-182.0","go-nogo","false","0","","true","<div class = centerbox><div  id = stim2></div></div>","32","32","750","","test","go","182","random","","",""
"","332","32","1311","0","test_block","poldrack-single-stim","197","320859","0.0-5.0-183.0","go-nogo","false","1","","true","<div class = centerbox><div  id = stim2></div></div>","32","32","750","","test","go","183","random","","",""
"","-1","-1","1029","0","test_block","poldrack-single-stim","198","322010","0.0-5.0-184.0","go-nogo","false","0","","false","<div class = centerbox><div  id = stim2></div></div>","32","32","750","","test","go","184","random","","",""
"","781","32","1074","0","test_block","poldrack-single-stim","199","323183","0.0-5.0-185.0","go-nogo","false","0","","true","<div class = centerbox><div  id = stim2></div></div>","32","32","750","","test","go","185","random","","",""
"","418","32","1354","0","test_block","poldrack-single-stim","200","324638","0.0-5.0-186.0","go-nogo","false","0","","true","<div class = centerbox><div  id = stim2></div></div>","32","32","750","","test","go","186","random","","",""
"","292","32","1054","0","test_block","poldrack-single-stim","201","325797","0.0-5.0-187.0","go-nogo","false","0","","true","<div class = centerbox><div  id = stim2></div></div>","32","32","750","","test","go","187","random","","",""
"","301","32","1064","0","test_block","poldrack-single-stim","202","326966","0.0-5.0-188.0","go-nogo","false","0","","true","<div class = centerbox><div  id = stim2></div></div>","32","32","750","","test","go","188","random","","",""
"","315","32","1239","0","test_block","poldrack-single-stim","203","328296","0.0-5.0-189.0","go-nogo","false","0","","true","<div class = centerbox><div  id = stim2></div></div>","32","32","750","","test","go","189","random","","",""
"","300","32","1412","0","test_block","poldrack-single-stim","204","329816","0.0-5.0-190.0","go-nogo","false","0","","true","<div class = centerbox><div  id = stim2></div></div>","32","32","750","","test","go","190","random","","",""
"","1","32","1289","0","test_block","poldrack-single-stim","205","331215","0.0-5.0-191.0","go-nogo","false","0","","true","<div class = centerbox><div  id = stim2></div></div>","32","32","750","","test","go","191","random","","",""
"","-1","-1","1498","0","test_block","poldrack-single-stim","206","332805","0.0-5.0-192.0","go-nogo","false","0","","true","<div class = centerbox><div  id = stim1></div></div>","-1","32","750","","test","nogo","192","random","","",""
"","89","32","1363","0","test_block","poldrack-single-stim","207","334277","0.0-5.0-193.0","go-nogo","false","0","","true","<div class = centerbox><div  id = stim2></div></div>","32","32","750","","test","go","193","random","","",""
"","361","32","1450","0","test_block","poldrack-single-stim","208","335826","0.0-5.0-194.0","go-nogo","false","0","","true","<div class = centerbox><div  id = stim2></div></div>","32","32","750","","test","go","194","random","","",""
"","291","32","1405","0","test_block","poldrack-single-stim","209","337357","0.0-5.0-195.0","go-nogo","false","0","","true","<div class = centerbox><div  id = stim2></div></div>","32","32","750","","test","go","195","random","","",""
"","250","32","1435","0","test_block","poldrack-single-stim","210","338884","0.0-5.0-196.0","go-nogo","false","0","","true","<div class = centerbox><div  id = stim2></div></div>","32","32","750","","test","go","196","random","","",""
"","272","32","1282","0","test_block","poldrack-single-stim","211","340270","0.0-5.0-197.0","go-nogo","false","0","","true","<div class = centerbox><div  id = stim2></div></div>","32","32","750","","test","go","197","random","","",""
"","265","32","1336","0","test_block","poldrack-single-stim","212","341700","0.0-5.0-198.0","go-nogo","false","0","","true","<div class = centerbox><div  id = stim2></div></div>","32","32","750","","test","go","198","random","","",""
"","264","32","1224","0","test_block","poldrack-single-stim","213","343020","0.0-5.0-199.0","go-nogo","false","0","","true","<div class = centerbox><div  id = stim2></div></div>","32","32","750","","test","go","199","random","","",""
"","307","32","1058","0","test_block","poldrack-single-stim","214","344217","0.0-5.0-200.0","go-nogo","false","0","","true","<div class = centerbox><div  id = stim2></div></div>","32","32","750","","test","go","200","random","","",""
"","281","32","1450","0","test_block","poldrack-single-stim","215","345789","0.0-5.0-201.0","go-nogo","false","0","","true","<div class = centerbox><div  id = stim2></div></div>","32","32","750","","test","go","201","random","","",""
"","313","32","1234","0","test_block","poldrack-single-stim","216","347140","0.0-5.0-202.0","go-nogo","false","0","","true","<div class = centerbox><div  id = stim2></div></div>","32","32","750","","test","go","202","random","","",""
"","299","32","1058","0","test_block","poldrack-single-stim","217","348347","0.0-5.0-203.0","go-nogo","false","0","","true","<div class = centerbox><div  id = stim2></div></div>","32","32","750","","test","go","203","random","","",""
"","301","32","1335","0","test_block","poldrack-single-stim","218","349806","0.0-5.0-204.0","go-nogo","false","0","","true","<div class = centerbox><div  id = stim2></div></div>","32","32","750","","test","go","204","random","","",""
"","300","32","1074","0","test_block","poldrack-single-stim","219","350987","0.0-5.0-205.0","go-nogo","false","0","","true","<div class = centerbox><div  id = stim2></div></div>","32","32","750","","test","go","205","random","","",""
"","290","32","1379","0","test_block","poldrack-single-stim","220","352462","0.0-5.0-206.0","go-nogo","false","0","","true","<div class = centerbox><div  id = stim2></div></div>","32","32","750","","test","go","206","random","","",""
"","1","32","1235","0","test_block","poldrack-single-stim","221","353820","0.0-5.0-207.0","go-nogo","false","0","","true","<div class = centerbox><div  id = stim2></div></div>","32","32","750","","test","go","207","random","","",""
"","289","32","1309","0","test_block","poldrack-single-stim","222","355241","0.0-5.0-208.0","go-nogo","false","0","","true","<div class = centerbox><div  id = stim2></div></div>","32","32","750","","test","go","208","random","","",""
"","1","32","1308","0","test_block","poldrack-single-stim","223","356664","0.0-5.0-209.0","go-nogo","false","0","","true","<div class = centerbox><div  id = stim2></div></div>","32","32","750","","test","go","209","random","","",""
"","282","32","1355","0","test_block","poldrack-single-stim","224","358127","0.0-5.0-210.0","go-nogo","false","0","","true","<div class = centerbox><div  id = stim2></div></div>","32","32","750","","test","go","210","random","","",""
"","178","32","1478","0","test_block","poldrack-single-stim","225","359713","0.0-5.0-211.0","go-nogo","false","0","","false","<div class = centerbox><div  id = stim1></div></div>","-1","32","750","","test","nogo","211","random","","",""
"","327","32","1210","0","test_block","poldrack-single-stim","226","361030","0.0-5.0-212.0","go-nogo","false","0","","true","<div class = centerbox><div  id = stim2></div></div>","32","32","750","","test","go","212","random","","",""
"","279","32","1390","0","test_block","poldrack-single-stim","227","362517","0.0-5.0-213.0","go-nogo","false","0","","true","<div class = centerbox><div  id = stim2></div></div>","32","32","750","","test","go","213","random","","",""
"","304","32","1142","0","test_block","poldrack-single-stim","228","363754","0.0-5.0-214.0","go-nogo","false","0","","true","<div class = centerbox><div  id = stim2></div></div>","32","32","750","","test","go","214","random","","",""
"","317","32","1229","0","test_block","poldrack-single-stim","229","365077","0.0-5.0-215.0","go-nogo","false","0","","true","<div class = centerbox><div  id = stim2></div></div>","32","32","750","","test","go","215","random","","",""
"","1","32","1234","0","test_block","poldrack-single-stim","230","366407","0.0-5.0-216.0","go-nogo","false","0","","true","<div class = centerbox><div  id = stim2></div></div>","32","32","750","","test","go","216","random","","",""
"","30","32","1030","0","test_block","poldrack-single-stim","231","367532","0.0-5.0-217.0","go-nogo","false","0","","true","<div class = centerbox><div  id = stim2></div></div>","32","32","750","","test","go","217","random","","",""
"","380","32","1453","0","test_block","poldrack-single-stim","232","369078","0.0-5.0-218.0","go-nogo","false","0","","true","<div class = centerbox><div  id = stim2></div></div>","32","32","750","","test","go","218","random","","",""
"","1","32","1401","0","test_block","poldrack-single-stim","233","370588","0.0-5.0-219.0","go-nogo","false","0","","true","<div class = centerbox><div  id = stim2></div></div>","32","32","750","","test","go","219","random","","",""
"","314","32","1267","0","test_block","poldrack-single-stim","234","371952","0.0-5.0-220.0","go-nogo","false","0","","true","<div class = centerbox><div  id = stim2></div></div>","32","32","750","","test","go","220","random","","",""
"","346","32","1213","0","test_block","poldrack-single-stim","235","373263","0.0-5.0-221.0","go-nogo","false","0","","true","<div class = centerbox><div  id = stim2></div></div>","32","32","750","","test","go","221","random","","",""
"","295","32","1058","0","test_block","poldrack-single-stim","236","374415","0.0-5.0-222.0","go-nogo","false","0","","true","<div class = centerbox><div  id = stim2></div></div>","32","32","750","","test","go","222","random","","",""
"","343","32","1077","0","test_block","poldrack-single-stim","237","375594","0.0-5.0-223.0","go-nogo","false","0","","false","<div class = centerbox><div  id = stim1></div></div>","-1","32","750","","test","nogo","223","random","","",""
"","321","32","1119","0","test_block","poldrack-single-stim","238","376817","0.0-5.0-224.0","go-nogo","false","0","","true","<div class = centerbox><div  id = stim2></div></div>","32","32","750","","test","go","224","random","","",""
"","309","32","1134","0","test_block","poldrack-single-stim","239","378062","0.0-5.0-225.0","go-nogo","false","0","","true","<div class = centerbox><div  id = stim2></div></div>","32","32","750","","test","go","225","random","","",""
"","339","32","1405","0","test_block","poldrack-single-stim","240","379574","0.0-5.0-226.0","go-nogo","false","0","","true","<div class = centerbox><div  id = stim2></div></div>","32","32","750","","test","go","226","random","","",""
"","-1","-1","1477","0","test_block","poldrack-single-stim","241","381155","0.0-5.0-227.0","go-nogo","false","0","","true","<div class = centerbox><div  id = stim1></div></div>","-1","32","750","","test","nogo","227","random","","",""
"","-1","-1","1147","0","test_block","poldrack-single-stim","242","382402","0.0-5.0-228.0","go-nogo","false","0","","true","<div class = centerbox><div  id = stim1></div></div>","-1","32","750","","test","nogo","228","random","","",""
"","-1","-1","1192","0","test_block","poldrack-single-stim","243","383695","0.0-5.0-229.0","go-nogo","false","0","","true","<div class = centerbox><div  id = stim1></div></div>","-1","32","750","","test","nogo","229","random","","",""
"","340","32","1084","0","test_block","poldrack-single-stim","244","384884","0.0-5.0-230.0","go-nogo","false","0","","true","<div class = centerbox><div  id = stim2></div></div>","32","32","750","","test","go","230","random","","",""
"","408","32","1181","0","test_block","poldrack-single-stim","245","386162","0.0-5.0-231.0","go-nogo","false","0","","true","<div class = centerbox><div  id = stim2></div></div>","32","32","750","","test","go","231","random","","",""
"","333","32","1470","0","test_block","poldrack-single-stim","246","387733","0.0-5.0-232.0","go-nogo","false","0","","true","<div class = centerbox><div  id = stim2></div></div>","32","32","750","","test","go","232","random","","",""
"","352","32","1407","0","test_block","poldrack-single-stim","247","389235","0.0-5.0-233.0","go-nogo","false","0","","true","<div class = centerbox><div  id = stim2></div></div>","32","32","750","","test","go","233","random","","",""
"","437","32","1314","0","test_block","poldrack-single-stim","248","390655","0.0-5.0-234.0","go-nogo","false","0","","true","<div class = centerbox><div  id = stim2></div></div>","32","32","750","","test","go","234","random","","",""
"","295","32","1264","0","test_block","poldrack-single-stim","249","392029","0.0-5.0-235.0","go-nogo","false","0","","false","<div class = centerbox><div  id = stim1></div></div>","-1","32","750","","test","nogo","235","random","","",""
"","365","32","1371","0","test_block","poldrack-single-stim","250","393497","0.0-5.0-236.0","go-nogo","false","0","","true","<div class = centerbox><div  id = stim2></div></div>","32","32","750","","test","go","236","random","","",""
"","312","32","1163","0","test_block","poldrack-single-stim","251","394757","0.0-5.0-237.0","go-nogo","false","0","","true","<div class = centerbox><div  id = stim2></div></div>","32","32","750","","test","go","237","random","","",""
"","391","32","1029","0","test_block","poldrack-single-stim","252","395897","0.0-5.0-238.0","go-nogo","false","0","","true","<div class = centerbox><div  id = stim2></div></div>","32","32","750","","test","go","238","random","","",""
"","301","32","1314","0","test_block","poldrack-single-stim","253","397312","0.0-5.0-239.0","go-nogo","false","0","","true","<div class = centerbox><div  id = stim2></div></div>","32","32","750","","test","go","239","random","","",""
"","342","32","1086","0","test_block","poldrack-single-stim","254","398505","0.0-5.0-240.0","go-nogo","false","0","","true","<div class = centerbox><div  id = stim2></div></div>","32","32","750","","test","go","240","random","","",""
"","-1","-1","1459","0","test_block","poldrack-single-stim","255","400059","0.0-5.0-241.0","go-nogo","false","0","","false","<div class = centerbox><div  id = stim2></div></div>","32","32","750","","test","go","241","random","","",""
"","352","32","1380","0","test_block","poldrack-single-stim","256","401535","0.0-5.0-242.0","go-nogo","false","0","","true","<div class = centerbox><div  id = stim2></div></div>","32","32","750","","test","go","242","random","","",""
"","314","32","1154","0","test_block","poldrack-single-stim","257","402789","0.0-5.0-243.0","go-nogo","false","0","","true","<div class = centerbox><div  id = stim2></div></div>","32","32","750","","test","go","243","random","","",""
"","314","32","1151","0","test_block","poldrack-single-stim","258","404046","0.0-5.0-244.0","go-nogo","false","0","","true","<div class = centerbox><div  id = stim2></div></div>","32","32","750","","test","go","244","random","","",""
"","320","32","1259","0","test_block","poldrack-single-stim","259","405415","0.0-5.0-245.0","go-nogo","false","0","","true","<div class = centerbox><div  id = stim2></div></div>","32","32","750","","test","go","245","random","","",""
"","289","32","1216","0","test_block","poldrack-single-stim","260","406730","0.0-5.0-246.0","go-nogo","false","0","","true","<div class = centerbox><div  id = stim2></div></div>","32","32","750","","test","go","246","random","","",""
"","342","32","1312","0","test_block","poldrack-single-stim","261","408150","0.0-5.0-247.0","go-nogo","false","0","","true","<div class = centerbox><div  id = stim2></div></div>","32","32","750","","test","go","247","random","","",""
"","314","32","1233","0","test_block","poldrack-single-stim","262","409489","0.0-5.0-248.0","go-nogo","false","0","","true","<div class = centerbox><div  id = stim2></div></div>","32","32","750","","test","go","248","random","","",""
"","277","32","1376","0","test_block","poldrack-single-stim","263","410966","0.0-5.0-249.0","go-nogo","false","0","","true","<div class = centerbox><div  id = stim2></div></div>","32","32","750","","test","go","249","random","","",""
"","344","32","1114","0","test_block","poldrack-single-stim","264","412215","0.0-5.0-250.0","go-nogo","false","0","","true","<div class = centerbox><div  id = stim2></div></div>","32","32","750","","test","go","250","random","","",""
"","247","32","1441","0","test_block","poldrack-single-stim","265","413758","0.0-5.0-251.0","go-nogo","false","0","","true","<div class = centerbox><div  id = stim2></div></div>","32","32","750","","test","go","251","random","","",""
"","34","32","1488","0","test_block","poldrack-single-stim","266","415343","0.0-5.0-252.0","go-nogo","false","0","","true","<div class = centerbox><div  id = stim2></div></div>","32","32","750","","test","go","252","random","","",""
"","279","32","1469","0","test_block","poldrack-single-stim","267","416913","0.0-5.0-253.0","go-nogo","false","0","","true","<div class = centerbox><div  id = stim2></div></div>","32","32","750","","test","go","253","random","","",""
"","286","32","1391","0","test_block","poldrack-single-stim","268","418402","0.0-5.0-254.0","go-nogo","false","0","","true","<div class = centerbox><div  id = stim2></div></div>","32","32","750","","test","go","254","random","","",""
"","283","32","1173","0","test_block","poldrack-single-stim","269","419670","0.0-5.0-255.0","go-nogo","false","0","","true","<div class = centerbox><div  id = stim2></div></div>","32","32","750","","test","go","255","random","","",""
"","301","32","1309","0","test_block","poldrack-single-stim","270","421085","0.0-5.0-256.0","go-nogo","false","0","","true","<div class = centerbox><div  id = stim2></div></div>","32","32","750","","test","go","256","random","","",""
"","302","32","1127","0","test_block","poldrack-single-stim","271","422315","0.0-5.0-257.0","go-nogo","false","0","","true","<div class = centerbox><div  id = stim2></div></div>","32","32","750","","test","go","257","random","","",""
"","371","32","1370","0","test_block","poldrack-single-stim","272","423785","0.0-5.0-258.0","go-nogo","false","0","","true","<div class = centerbox><div  id = stim2></div></div>","32","32","750","","test","go","258","random","","",""
"","300","32","1020","0","test_block","poldrack-single-stim","273","424906","0.0-5.0-259.0","go-nogo","false","0","","true","<div class = centerbox><div  id = stim2></div></div>","32","32","750","","test","go","259","random","","",""
"","355","32","1285","0","test_block","poldrack-single-stim","274","426292","0.0-5.0-260.0","go-nogo","false","0","","true","<div class = centerbox><div  id = stim2></div></div>","32","32","750","","test","go","260","random","","",""
"","259","32","1105","0","test_block","poldrack-single-stim","275","427498","0.0-5.0-261.0","go-nogo","false","0","","true","<div class = centerbox><div  id = stim2></div></div>","32","32","750","","test","go","261","random","","",""
"","109","32","1193","0","test_block","poldrack-single-stim","276","428789","0.0-5.0-262.0","go-nogo","false","0","","true","<div class = centerbox><div  id = stim2></div></div>","32","32","750","","test","go","262","random","","",""
"","325","32","1116","0","test_block","poldrack-single-stim","277","430008","0.0-5.0-263.0","go-nogo","false","0","","true","<div class = centerbox><div  id = stim2></div></div>","32","32","750","","test","go","263","random","","",""
"","748","32","1181","0","test_block","poldrack-single-stim","278","431292","0.0-5.0-264.0","go-nogo","false","0","","true","<div class = centerbox><div  id = stim2></div></div>","32","32","750","","test","go","264","random","","",""
"","327","32","1436","0","test_block","poldrack-single-stim","279","432823","0.0-5.0-265.0","go-nogo","false","0","","true","<div class = centerbox><div  id = stim2></div></div>","32","32","750","","test","go","265","random","","",""
"","319","32","1243","0","test_block","poldrack-single-stim","280","434166","0.0-5.0-266.0","go-nogo","false","0","","true","<div class = centerbox><div  id = stim2></div></div>","32","32","750","","test","go","266","random","","",""
"","219","32","1100","0","test_block","poldrack-single-stim","281","435362","0.0-5.0-267.0","go-nogo","false","0","","false","<div class = centerbox><div  id = stim1></div></div>","-1","32","750","","test","nogo","267","random","","",""
"","347","32","1426","0","test_block","poldrack-single-stim","282","436888","0.0-5.0-268.0","go-nogo","false","0","","true","<div class = centerbox><div  id = stim2></div></div>","32","32","750","","test","go","268","random","","",""
"","336","32","1478","0","test_block","poldrack-single-stim","283","438473","0.0-5.0-269.0","go-nogo","false","0","","true","<div class = centerbox><div  id = stim2></div></div>","32","32","750","","test","go","269","random","","",""
"","343","32","1443","0","test_block","poldrack-single-stim","284","440023","0.0-5.0-270.0","go-nogo","false","0","","true","<div class = centerbox><div  id = stim2></div></div>","32","32","750","","test","go","270","random","","",""
"","287","32","1013","0","test_block","poldrack-single-stim","285","441143","0.0-5.0-271.0","go-nogo","false","0","","true","<div class = centerbox><div  id = stim2></div></div>","32","32","750","","test","go","271","random","","",""
"","337","32","1156","0","test_block","poldrack-single-stim","286","442398","0.0-5.0-272.0","go-nogo","false","0","","true","<div class = centerbox><div  id = stim2></div></div>","32","32","750","","test","go","272","random","","",""
"","324","32","1082","0","test_block","poldrack-single-stim","287","443584","0.0-5.0-273.0","go-nogo","false","0","","true","<div class = centerbox><div  id = stim2></div></div>","32","32","750","","test","go","273","random","","",""
"","327","32","1394","0","test_block","poldrack-single-stim","288","445076","0.0-5.0-274.0","go-nogo","false","0","","true","<div class = centerbox><div  id = stim2></div></div>","32","32","750","","test","go","274","random","","",""
"","299","32","1105","0","test_block","poldrack-single-stim","289","446280","0.0-5.0-275.0","go-nogo","false","0","","true","<div class = centerbox><div  id = stim2></div></div>","32","32","750","","test","go","275","random","","",""
"","257","32","1181","0","test_block","poldrack-single-stim","290","447558","0.0-5.0-276.0","go-nogo","false","0","","true","<div class = centerbox><div  id = stim2></div></div>","32","32","750","","test","go","276","random","","",""
"","90","32","1053","0","test_block","poldrack-single-stim","291","448717","0.0-5.0-277.0","go-nogo","false","0","","false","<div class = centerbox><div  id = stim1></div></div>","-1","32","750","","test","nogo","277","random","","",""
"","296","32","1247","0","test_block","poldrack-single-stim","292","450057","0.0-5.0-278.0","go-nogo","false","0","","true","<div class = centerbox><div  id = stim2></div></div>","32","32","750","","test","go","278","random","","",""
"","80","32","1044","0","test_block","poldrack-single-stim","293","451213","0.0-5.0-279.0","go-nogo","false","0","","true","<div class = centerbox><div  id = stim2></div></div>","32","32","750","","test","go","279","random","","",""
"","295","32","1245","0","test_block","poldrack-single-stim","294","452553","0.0-5.0-280.0","go-nogo","false","0","","true","<div class = centerbox><div  id = stim2></div></div>","32","32","750","","test","go","280","random","","",""
"","298","32","1369","0","test_block","poldrack-single-stim","295","454024","0.0-5.0-281.0","go-nogo","false","0","","true","<div class = centerbox><div  id = stim2></div></div>","32","32","750","","test","go","281","random","","",""
"","292","32","1207","0","test_block","poldrack-single-stim","296","455332","0.0-5.0-282.0","go-nogo","false","0","","true","<div class = centerbox><div  id = stim2></div></div>","32","32","750","","test","go","282","random","","",""
"","353","32","1047","0","test_block","poldrack-single-stim","297","456480","0.0-5.0-283.0","go-nogo","false","0","","true","<div class = centerbox><div  id = stim2></div></div>","32","32","750","","test","go","283","random","","",""
"","359","32","1277","0","test_block","poldrack-single-stim","298","457848","0.0-5.0-284.0","go-nogo","false","0","","true","<div class = centerbox><div  id = stim2></div></div>","32","32","750","","test","go","284","random","","",""
"","364","32","1137","0","test_block","poldrack-single-stim","299","459086","0.0-5.0-285.0","go-nogo","false","0","","true","<div class = centerbox><div  id = stim2></div></div>","32","32","750","","test","go","285","random","","",""
"","361","32","1198","0","test_block","poldrack-single-stim","300","460383","0.0-5.0-286.0","go-nogo","false","0","","true","<div class = centerbox><div  id = stim2></div></div>","32","32","750","","test","go","286","random","","",""
"","334","32","1130","0","test_block","poldrack-single-stim","301","461623","0.0-5.0-287.0","go-nogo","false","0","","true","<div class = centerbox><div  id = stim2></div></div>","32","32","750","","test","go","287","random","","",""
"","343","32","1266","0","test_block","poldrack-single-stim","302","462987","0.0-5.0-288.0","go-nogo","false","0","","true","<div class = centerbox><div  id = stim2></div></div>","32","32","750","","test","go","288","random","","",""
"","313","32","1377","0","test_block","poldrack-single-stim","303","464473","0.0-5.0-289.0","go-nogo","false","0","","true","<div class = centerbox><div  id = stim2></div></div>","32","32","750","","test","go","289","random","","",""
"","309","32","1350","0","test_block","poldrack-single-stim","304","465923","0.0-5.0-290.0","go-nogo","false","0","","true","<div class = centerbox><div  id = stim2></div></div>","32","32","750","","test","go","290","random","","",""
"","337","32","1083","0","test_block","poldrack-single-stim","305","467113","0.0-5.0-291.0","go-nogo","false","0","","true","<div class = centerbox><div  id = stim2></div></div>","32","32","750","","test","go","291","random","","",""
"","-1","-1","1236","0","test_block","poldrack-single-stim","306","468450","0.0-5.0-292.0","go-nogo","false","0","","true","<div class = centerbox><div  id = stim1></div></div>","-1","32","750","","test","nogo","292","random","","",""
"","429","32","1383","0","test_block","poldrack-single-stim","307","469932","0.0-5.0-293.0","go-nogo","false","0","","true","<div class = centerbox><div  id = stim2></div></div>","32","32","750","","test","go","293","random","","",""
"","261","32","1277","0","test_block","poldrack-single-stim","308","471313","0.0-5.0-294.0","go-nogo","false","0","","true","<div class = centerbox><div  id = stim2></div></div>","32","32","750","","test","go","294","random","","",""
"","-1","-1","1124","0","test_block","poldrack-single-stim","309","472564","0.0-5.0-295.0","go-nogo","false","0","","true","<div class = centerbox><div  id = stim1></div></div>","-1","32","750","","test","nogo","295","random","","",""
"","289","32","1196","0","test_block","poldrack-single-stim","310","473859","0.0-5.0-296.0","go-nogo","false","0","","true","<div class = centerbox><div  id = stim2></div></div>","32","32","750","","test","go","296","random","","",""
"","-1","-1","1212","0","test_block","poldrack-single-stim","311","475173","0.0-5.0-297.0","go-nogo","false","0","","true","<div class = centerbox><div  id = stim1></div></div>","-1","32","750","","test","nogo","297","random","","",""
"","334","32","1078","0","test_block","poldrack-single-stim","312","476346","0.0-5.0-298.0","go-nogo","false","0","","true","<div class = centerbox><div  id = stim2></div></div>","32","32","750","","test","go","298","random","","",""
"","343","32","1056","0","test_block","poldrack-single-stim","313","477508","0.0-5.0-299.0","go-nogo","false","0","","true","<div class = centerbox><div  id = stim2></div></div>","32","32","750","","test","go","299","random","","",""
"","275","32","1287","0","test_block","poldrack-single-stim","314","478902","0.0-5.0-300.0","go-nogo","false","0","","true","<div class = centerbox><div  id = stim2></div></div>","32","32","750","","test","go","300","random","","",""
"","359","32","1029","0","test_block","poldrack-single-stim","315","480031","0.0-5.0-301.0","go-nogo","false","0","","true","<div class = centerbox><div  id = stim2></div></div>","32","32","750","","test","go","301","random","","",""
"","-1","-1","1121","0","test_block","poldrack-single-stim","316","481276","0.0-5.0-302.0","go-nogo","false","0","","false","<div class = centerbox><div  id = stim2></div></div>","32","32","750","","test","go","302","random","","",""
"","288","32","1434","0","test_block","poldrack-single-stim","317","482829","0.0-5.0-303.0","go-nogo","false","0","","true","<div class = centerbox><div  id = stim2></div></div>","32","32","750","","test","go","303","random","","",""
"","257","32","1380","0","test_block","poldrack-single-stim","318","484308","0.0-5.0-304.0","go-nogo","false","0","","true","<div class = centerbox><div  id = stim2></div></div>","32","32","750","","test","go","304","random","","",""
"","297","32","1417","0","test_block","poldrack-single-stim","319","485824","0.0-5.0-305.0","go-nogo","false","0","","true","<div class = centerbox><div  id = stim2></div></div>","32","32","750","","test","go","305","random","","",""
"","161","32","1443","0","test_block","poldrack-single-stim","320","487371","0.0-5.0-306.0","go-nogo","false","0","","false","<div class = centerbox><div  id = stim1></div></div>","-1","32","750","","test","nogo","306","random","","",""
"","326","32","1335","0","test_block","poldrack-single-stim","321","488802","0.0-5.0-307.0","go-nogo","false","0","","true","<div class = centerbox><div  id = stim2></div></div>","32","32","750","","test","go","307","random","","",""
"","317","32","1058","0","test_block","poldrack-single-stim","322","489958","0.0-5.0-308.0","go-nogo","false","0","","true","<div class = centerbox><div  id = stim2></div></div>","32","32","750","","test","go","308","random","","",""
"","285","32","1097","0","test_block","poldrack-single-stim","323","491156","0.0-5.0-309.0","go-nogo","false","0","","true","<div class = centerbox><div  id = stim2></div></div>","32","32","750","","test","go","309","random","","",""
"","303","32","1267","0","test_block","poldrack-single-stim","324","492531","0.0-5.0-310.0","go-nogo","false","0","","true","<div class = centerbox><div  id = stim2></div></div>","32","32","750","","test","go","310","random","","",""
"","322","32","1194","0","test_block","poldrack-single-stim","325","493825","0.0-5.0-311.0","go-nogo","false","0","","true","<div class = centerbox><div  id = stim2></div></div>","32","32","750","","test","go","311","random","","",""
"","322","32","1153","0","test_block","poldrack-single-stim","326","495072","0.0-5.0-312.0","go-nogo","false","0","","true","<div class = centerbox><div  id = stim2></div></div>","32","32","750","","test","go","312","random","","",""
"","331","32","1255","0","test_block","poldrack-single-stim","327","496427","0.0-5.0-313.0","go-nogo","false","0","","true","<div class = centerbox><div  id = stim2></div></div>","32","32","750","","test","go","313","random","","",""
"","273","32","1032","0","test_block","poldrack-single-stim","328","497559","0.0-5.0-314.0","go-nogo","false","0","","true","<div class = centerbox><div  id = stim2></div></div>","32","32","750","","test","go","314","random","","",""
"","360","32","1074","0","test_block","poldrack-single-stim","329","498731","0.0-5.0-315.0","go-nogo","false","0","","true","<div class = centerbox><div  id = stim2></div></div>","32","32","750","","test","go","315","random","","",""
"","255","32","1256","0","test_block","poldrack-single-stim","330","500087","0.0-5.0-316.0","go-nogo","false","0","","true","<div class = centerbox><div  id = stim2></div></div>","32","32","750","","test","go","316","random","","",""
"","294","32","1171","0","test_block","poldrack-single-stim","331","501356","0.0-5.0-317.0","go-nogo","false","0","","true","<div class = centerbox><div  id = stim2></div></div>","32","32","750","","test","go","317","random","","",""
"","287","32","1071","0","test_block","poldrack-single-stim","332","502544","0.0-5.0-318.0","go-nogo","false","0","","false","<div class = centerbox><div  id = stim1></div></div>","-1","32","750","","test","nogo","318","random","","",""
"","378","32","1190","0","test_block","poldrack-single-stim","333","503837","0.0-5.0-319.0","go-nogo","false","0","","true","<div class = centerbox><div  id = stim2></div></div>","32","32","750","","test","go","319","random","","",""
"","262","32","1357","0","test_block","poldrack-single-stim","334","505296","0.0-5.0-320.0","go-nogo","false","1","","true","<div class = centerbox><div  id = stim2></div></div>","32","32","750","","test","go","320","random","","",""
"","391","32","1301","0","test_block","poldrack-single-stim","335","506716","0.0-5.0-321.0","go-nogo","false","0","","true","<div class = centerbox><div  id = stim2></div></div>","32","32","750","","test","go","321","random","","",""
"","438","32","1425","0","test_block","poldrack-single-stim","336","508243","0.0-5.0-322.0","go-nogo","false","0","","true","<div class = centerbox><div  id = stim2></div></div>","32","32","750","","test","go","322","random","","",""
"","795","32","1210","0","test_block","poldrack-single-stim","337","509558","0.0-5.0-323.0","go-nogo","false","0","","true","<div class = centerbox><div  id = stim2></div></div>","32","32","750","","test","go","323","random","","",""
"","280","32","1390","0","test_block","poldrack-single-stim","338","511046","0.0-5.0-324.0","go-nogo","false","0","","true","<div class = centerbox><div  id = stim2></div></div>","32","32","750","","test","go","324","random","","",""
"","318","32","1162","0","test_block","poldrack-single-stim","339","512306","0.0-5.0-325.0","go-nogo","false","1","","true","<div class = centerbox><div  id = stim2></div></div>","32","32","750","","test","go","325","random","","",""
"","813","32","1058","0","test_block","poldrack-single-stim","340","513482","0.0-5.0-326.0","go-nogo","false","0","","true","<div class = centerbox><div  id = stim2></div></div>","32","32","750","","test","go","326","random","","",""
"","270","32","1471","0","test_block","poldrack-single-stim","341","515060","0.0-5.0-327.0","go-nogo","false","0","","false","<div class = centerbox><div  id = stim1></div></div>","-1","32","750","","test","nogo","327","random","","",""
"","394","32","1419","0","test_block","poldrack-single-stim","342","516575","0.0-5.0-328.0","go-nogo","false","0","","true","<div class = centerbox><div  id = stim2></div></div>","32","32","750","","test","go","328","random","","",""
"","306","32","1259","0","test_block","poldrack-single-stim","343","517939","0.0-5.0-329.0","go-nogo","false","0","","true","<div class = centerbox><div  id = stim2></div></div>","32","32","750","","test","go","329","random","","",""
"","302","32","1005","0","test_block","poldrack-single-stim","344","519055","0.0-5.0-330.0","go-nogo","false","0","","true","<div class = centerbox><div  id = stim2></div></div>","32","32","750","","test","go","330","random","","",""
"","324","32","1344","0","test_block","poldrack-single-stim","345","520499","0.0-5.0-331.0","go-nogo","false","0","","true","<div class = centerbox><div  id = stim2></div></div>","32","32","750","","test","go","331","random","","",""
"","321","32","1280","0","test_block","poldrack-single-stim","346","521880","0.0-5.0-332.0","go-nogo","false","0","","true","<div class = centerbox><div  id = stim2></div></div>","32","32","750","","test","go","332","random","","",""
"","307","32","1028","0","test_block","poldrack-single-stim","347","523016","0.0-5.0-333.0","go-nogo","false","0","","true","<div class = centerbox><div  id = stim2></div></div>","32","32","750","","test","go","333","random","","",""
"","306","32","1437","0","test_block","poldrack-single-stim","348","524572","0.0-5.0-334.0","go-nogo","false","0","","true","<div class = centerbox><div  id = stim2></div></div>","32","32","750","","test","go","334","random","","",""
"","317","32","1200","0","test_block","poldrack-single-stim","349","525874","0.0-5.0-335.0","go-nogo","false","0","","true","<div class = centerbox><div  id = stim2></div></div>","32","32","750","","test","go","335","random","","",""
"","254","32","1142","0","test_block","poldrack-single-stim","350","527120","0.0-5.0-336.0","go-nogo","false","0","","true","<div class = centerbox><div  id = stim2></div></div>","32","32","750","","test","go","336","random","","",""
"","252","32","1463","0","test_block","poldrack-single-stim","351","528700","0.0-5.0-337.0","go-nogo","false","0","","true","<div class = centerbox><div  id = stim2></div></div>","32","32","750","","test","go","337","random","","",""
"","327","32","1209","0","test_block","poldrack-single-stim","352","530010","0.0-5.0-338.0","go-nogo","false","0","","false","<div class = centerbox><div  id = stim1></div></div>","-1","32","750","","test","nogo","338","random","","",""
"","186","32","1380","0","test_block","poldrack-single-stim","353","531481","0.0-5.0-339.0","go-nogo","false","0","","true","<div class = centerbox><div  id = stim2></div></div>","32","32","750","","test","go","339","random","","",""
"","361","32","1221","0","test_block","poldrack-single-stim","354","532803","0.0-5.0-340.0","go-nogo","false","0","","true","<div class = centerbox><div  id = stim2></div></div>","32","32","750","","test","go","340","random","","",""
"","292","32","1071","0","test_block","poldrack-single-stim","355","533986","0.0-5.0-341.0","go-nogo","false","0","","true","<div class = centerbox><div  id = stim2></div></div>","32","32","750","","test","go","341","random","","",""
"","296","32","1006","0","test_block","poldrack-single-stim","356","535102","0.0-5.0-342.0","go-nogo","false","0","","true","<div class = centerbox><div  id = stim2></div></div>","32","32","750","","test","go","342","random","","",""
"","262","32","1338","0","test_block","poldrack-single-stim","357","536546","0.0-5.0-343.0","go-nogo","false","0","","true","<div class = centerbox><div  id = stim2></div></div>","32","32","750","","test","go","343","random","","",""
"","1","32","1220","0","test_block","poldrack-single-stim","358","537869","0.0-5.0-344.0","go-nogo","false","0","","true","<div class = centerbox><div  id = stim2></div></div>","32","32","750","","test","go","344","random","","",""
"","388","32","1006","0","test_block","poldrack-single-stim","359","538977","0.0-5.0-345.0","go-nogo","false","0","","true","<div class = centerbox><div  id = stim2></div></div>","32","32","750","","test","go","345","random","","",""
"","333","32","1011","0","test_block","poldrack-single-stim","360","540101","0.0-5.0-346.0","go-nogo","false","0","","true","<div class = centerbox><div  id = stim2></div></div>","32","32","750","","test","go","346","random","","",""
"","-1","-1","1400","0","test_block","poldrack-single-stim","361","541601","0.0-5.0-347.0","go-nogo","false","0","","true","<div class = centerbox><div  id = stim1></div></div>","-1","32","750","","test","nogo","347","random","","",""
"","413","32","1486","0","test_block","poldrack-single-stim","362","543191","0.0-5.0-348.0","go-nogo","false","0","","true","<div class = centerbox><div  id = stim2></div></div>","32","32","750","","test","go","348","random","","",""
"","323","32","1304","0","test_block","poldrack-single-stim","363","544597","0.0-5.0-349.0","go-nogo","false","0","","true","<div class = centerbox><div  id = stim2></div></div>","32","32","750","","test","go","349","random","","",""
"","16986","","","","post task questions","survey-text","364","561709","0.0-7.0","go-nogo","false","0","","","","","","","","","","","","{""Q0"":""press space bar on  blu box"",""Q1"":""boring""}","",""
"<div class = centerbox><p class = center-block-text>Thanks for completing this task!</p><p class = center-block-text>Insert the following code to collect your payment at Amazon Mechanical Turk:</p><p class = center-block-text>103943317</p><p class = center-block-text>Press <strong>enter</strong> to continue.</p></div>","4055","13","4055","0","end","poldrack-text","365","566769","0.0-8.0","go-nogo","false","0","","","","","","","","","","","","","103943317","true"
