"text","rt","key_press","block_duration","timing_post_trial","trial_id","trial_type","trial_index","time_elapsed","internal_node_id","exp_id","full_screen","focus_shifts","view_history","correct","stimulus","correct_response","possible_responses","stim_duration","feedback_duration","exp_stage","condition","trial_num","mode","responses","payment_id","credit_var"
"<div class = centerbox><p class = center-block-text>Welcome to the experiment. This task will take around 10 minutes. Press <strong>enter</strong> to begin.</p></div>","1878","13","1878","0","instruction","poldrack-text","0","1880","0.0-0.0-0.0","go-nogo","true","0","","","","","","","","","","","","","",""
"","7949","","","","instruction","poldrack-instructions","1","9830","0.0-0.0-1.0","go-nogo","true","0","[{""page_index"":0,""viewing_time"":7948}]","","","","","","","","","","","","",""
"","562","32","1414","250","practice","poldrack-categorize","2","13256","0.0-1.0-0.0","go-nogo","true","0","","true","<div class = centerbox><div  id = stim1></div></div>","32","32","750","1000","practice","go","0","adv","","",""
"","-1","-1","1254","250","practice","poldrack-categorize","3","15791","0.0-1.0-1.0","go-nogo","true","0","","true","<div class = centerbox><div id = stim2></div></div>","-1","32","750","1000","practice","nogo","1","adv","","",""
"","-1","-1","1143","250","practice","poldrack-categorize","4","18190","0.0-1.0-2.0","go-nogo","true","0","","true","<div class = centerbox><div id = stim2></div></div>","-1","32","750","1000","practice","nogo","2","adv","","",""
"","381","32","1108","250","practice","poldrack-categorize","5","20553","0.0-1.0-3.0","go-nogo","true","0","","true","<div class = centerbox><div  id = stim1></div></div>","32","32","750","1000","practice","go","3","adv","","",""
"","422","32","1202","250","practice","poldrack-categorize","6","23012","0.0-1.0-4.0","go-nogo","true","0","","true","<div class = centerbox><div  id = stim1></div></div>","32","32","750","1000","practice","go","4","adv","","",""
"","359","32","1209","250","practice","poldrack-categorize","7","25478","0.0-1.0-5.0","go-nogo","true","0","","true","<div class = centerbox><div  id = stim1></div></div>","32","32","750","1000","practice","go","5","adv","","",""
"","-1","-1","1197","250","practice","poldrack-categorize","8","27930","0.0-1.0-6.0","go-nogo","true","0","","true","<div class = centerbox><div id = stim2></div></div>","-1","32","750","1000","practice","nogo","6","adv","","",""
"","-1","-1","1245","250","practice","poldrack-categorize","9","30430","0.0-1.0-7.0","go-nogo","true","0","","true","<div class = centerbox><div id = stim2></div></div>","-1","32","750","1000","practice","nogo","7","adv","","",""
"","340","32","1315","250","practice","poldrack-categorize","10","33001","0.0-1.0-8.0","go-nogo","true","0","","true","<div class = centerbox><div  id = stim1></div></div>","32","32","750","1000","practice","go","8","adv","","",""
"","-1","-1","1235","250","practice","poldrack-categorize","11","35491","0.0-1.0-9.0","go-nogo","true","0","","true","<div class = centerbox><div id = stim2></div></div>","-1","32","750","1000","practice","nogo","9","adv","","",""
"","","","","","reset_trial","call-function","12","35743","0.0-3.0","go-nogo","true","0","","","","","","","","","","","","","",""
"<div class = centerbox><p class = block-text>Practice is over, we will now begin the experiment. You will no longer get feedback about your responses.</p><p class = block-text>Remember, if you see the <font color=""orange"">orange</font> square you should <strong> respond by pressing the spacebar as quickly as possible</strong>. If you see the <font color=""blue"">blue</font> square you should <strong> not respond</strong>. Press <strong>enter</strong> to begin.</p></div>","4050","13","4050","1000","test_intro","poldrack-text","13","39793","0.0-4.0","go-nogo","true","0","","","","","","","","","","","","","",""
"","434","32","1167","0","test_block","poldrack-single-stim","14","41965","0.0-5.0-0.0","go-nogo","true","0","","true","<div class = centerbox><div  id = stim1></div></div>","32","32","750","","test","go","0","adv","","",""
"","413","32","1348","0","test_block","poldrack-single-stim","15","43366","0.0-5.0-1.0","go-nogo","true","0","","true","<div class = centerbox><div  id = stim1></div></div>","32","32","750","","test","go","1","adv","","",""
"","338","32","1347","0","test_block","poldrack-single-stim","16","44736","0.0-5.0-2.0","go-nogo","true","0","","true","<div class = centerbox><div  id = stim1></div></div>","32","32","750","","test","go","2","adv","","",""
"","301","32","1221","0","test_block","poldrack-single-stim","17","45984","0.0-5.0-3.0","go-nogo","true","0","","true","<div class = centerbox><div  id = stim1></div></div>","32","32","750","","test","go","3","adv","","",""
"","301","32","1355","0","test_block","poldrack-single-stim","18","47365","0.0-5.0-4.0","go-nogo","true","0","","true","<div class = centerbox><div  id = stim1></div></div>","32","32","750","","test","go","4","adv","","",""
"","295","32","1053","0","test_block","poldrack-single-stim","19","48440","0.0-5.0-5.0","go-nogo","true","0","","true","<div class = centerbox><div  id = stim1></div></div>","32","32","750","","test","go","5","adv","","",""
"","401","32","1428","0","test_block","poldrack-single-stim","20","49890","0.0-5.0-6.0","go-nogo","true","0","","true","<div class = centerbox><div  id = stim1></div></div>","32","32","750","","test","go","6","adv","","",""
"","342","32","1484","0","test_block","poldrack-single-stim","21","51396","0.0-5.0-7.0","go-nogo","true","0","","true","<div class = centerbox><div  id = stim1></div></div>","32","32","750","","test","go","7","adv","","",""
"","373","32","1053","0","test_block","poldrack-single-stim","22","52472","0.0-5.0-8.0","go-nogo","true","0","","true","<div class = centerbox><div  id = stim1></div></div>","32","32","750","","test","go","8","adv","","",""
"","357","32","1426","0","test_block","poldrack-single-stim","23","53916","0.0-5.0-9.0","go-nogo","true","0","","true","<div class = centerbox><div  id = stim1></div></div>","32","32","750","","test","go","9","adv","","",""
"","315","32","1121","0","test_block","poldrack-single-stim","24","55054","0.0-5.0-10.0","go-nogo","true","0","","true","<div class = centerbox><div  id = stim1></div></div>","32","32","750","","test","go","10","adv","","",""
"","349","32","1300","0","test_block","poldrack-single-stim","25","56374","0.0-5.0-11.0","go-nogo","true","0","","true","<div class = centerbox><div  id = stim1></div></div>","32","32","750","","test","go","11","adv","","",""
"","314","32","1280","0","test_block","poldrack-single-stim","26","57678","0.0-5.0-12.0","go-nogo","true","0","","true","<div class = centerbox><div  id = stim1></div></div>","32","32","750","","test","go","12","adv","","",""
"","287","32","1115","0","test_block","poldrack-single-stim","27","58803","0.0-5.0-13.0","go-nogo","true","0","","true","<div class = centerbox><div  id = stim1></div></div>","32","32","750","","test","go","13","adv","","",""
"","336","32","1220","0","test_block","poldrack-single-stim","28","60044","0.0-5.0-14.0","go-nogo","true","0","","true","<div class = centerbox><div  id = stim1></div></div>","32","32","750","","test","go","14","adv","","",""
"","317","32","1331","0","test_block","poldrack-single-stim","29","61395","0.0-5.0-15.0","go-nogo","true","0","","true","<div class = centerbox><div  id = stim1></div></div>","32","32","750","","test","go","15","adv","","",""
"","363","32","1141","0","test_block","poldrack-single-stim","30","62553","0.0-5.0-16.0","go-nogo","true","0","","true","<div class = centerbox><div  id = stim1></div></div>","32","32","750","","test","go","16","adv","","",""
"","363","32","1226","0","test_block","poldrack-single-stim","31","63792","0.0-5.0-17.0","go-nogo","true","0","","true","<div class = centerbox><div  id = stim1></div></div>","32","32","750","","test","go","17","adv","","",""
"","297","32","1304","0","test_block","poldrack-single-stim","32","65102","0.0-5.0-18.0","go-nogo","true","0","","true","<div class = centerbox><div  id = stim1></div></div>","32","32","750","","test","go","18","adv","","",""
"","315","32","1248","0","test_block","poldrack-single-stim","33","66357","0.0-5.0-19.0","go-nogo","true","0","","true","<div class = centerbox><div  id = stim1></div></div>","32","32","750","","test","go","19","adv","","",""
"","308","32","1209","0","test_block","poldrack-single-stim","34","67579","0.0-5.0-20.0","go-nogo","true","0","","true","<div class = centerbox><div  id = stim1></div></div>","32","32","750","","test","go","20","adv","","",""
"","326","32","1215","0","test_block","poldrack-single-stim","35","68801","0.0-5.0-21.0","go-nogo","true","0","","true","<div class = centerbox><div  id = stim1></div></div>","32","32","750","","test","go","21","adv","","",""
"","326","32","1137","0","test_block","poldrack-single-stim","36","69945","0.0-5.0-22.0","go-nogo","true","0","","true","<div class = centerbox><div  id = stim1></div></div>","32","32","750","","test","go","22","adv","","",""
"","312","32","1487","0","test_block","poldrack-single-stim","37","71438","0.0-5.0-23.0","go-nogo","true","0","","true","<div class = centerbox><div  id = stim1></div></div>","32","32","750","","test","go","23","adv","","",""
"","336","32","1451","0","test_block","poldrack-single-stim","38","72905","0.0-5.0-24.0","go-nogo","true","0","","true","<div class = centerbox><div  id = stim1></div></div>","32","32","750","","test","go","24","adv","","",""
"","313","32","1296","0","test_block","poldrack-single-stim","39","74215","0.0-5.0-25.0","go-nogo","true","0","","true","<div class = centerbox><div  id = stim1></div></div>","32","32","750","","test","go","25","adv","","",""
"","377","32","1048","0","test_block","poldrack-single-stim","40","75279","0.0-5.0-26.0","go-nogo","true","0","","true","<div class = centerbox><div  id = stim1></div></div>","32","32","750","","test","go","26","adv","","",""
"","416","32","1274","0","test_block","poldrack-single-stim","41","76560","0.0-5.0-27.0","go-nogo","true","0","","true","<div class = centerbox><div  id = stim1></div></div>","32","32","750","","test","go","27","adv","","",""
"","361","32","1228","0","test_block","poldrack-single-stim","42","77801","0.0-5.0-28.0","go-nogo","true","0","","true","<div class = centerbox><div  id = stim1></div></div>","32","32","750","","test","go","28","adv","","",""
"","336","32","1107","0","test_block","poldrack-single-stim","43","78921","0.0-5.0-29.0","go-nogo","true","0","","true","<div class = centerbox><div  id = stim1></div></div>","32","32","750","","test","go","29","adv","","",""
"","334","32","1075","0","test_block","poldrack-single-stim","44","80003","0.0-5.0-30.0","go-nogo","true","0","","true","<div class = centerbox><div  id = stim1></div></div>","32","32","750","","test","go","30","adv","","",""
"","336","32","1042","0","test_block","poldrack-single-stim","45","81057","0.0-5.0-31.0","go-nogo","true","0","","true","<div class = centerbox><div  id = stim1></div></div>","32","32","750","","test","go","31","adv","","",""
"","346","32","1200","0","test_block","poldrack-single-stim","46","82269","0.0-5.0-32.0","go-nogo","true","0","","true","<div class = centerbox><div  id = stim1></div></div>","32","32","750","","test","go","32","adv","","",""
"","335","32","1146","0","test_block","poldrack-single-stim","47","83428","0.0-5.0-33.0","go-nogo","true","0","","true","<div class = centerbox><div  id = stim1></div></div>","32","32","750","","test","go","33","adv","","",""
"","316","32","1128","0","test_block","poldrack-single-stim","48","84572","0.0-5.0-34.0","go-nogo","true","0","","true","<div class = centerbox><div  id = stim1></div></div>","32","32","750","","test","go","34","adv","","",""
"","302","32","1437","0","test_block","poldrack-single-stim","49","86016","0.0-5.0-35.0","go-nogo","true","0","","true","<div class = centerbox><div  id = stim1></div></div>","32","32","750","","test","go","35","adv","","",""
"","308","32","1492","0","test_block","poldrack-single-stim","50","87519","0.0-5.0-36.0","go-nogo","true","0","","true","<div class = centerbox><div  id = stim1></div></div>","32","32","750","","test","go","36","adv","","",""
"","331","32","1466","0","test_block","poldrack-single-stim","51","88999","0.0-5.0-37.0","go-nogo","true","0","","true","<div class = centerbox><div  id = stim1></div></div>","32","32","750","","test","go","37","adv","","",""
"","301","32","1244","0","test_block","poldrack-single-stim","52","90261","0.0-5.0-38.0","go-nogo","true","0","","true","<div class = centerbox><div  id = stim1></div></div>","32","32","750","","test","go","38","adv","","",""
"","355","32","1040","0","test_block","poldrack-single-stim","53","91316","0.0-5.0-39.0","go-nogo","true","0","","true","<div class = centerbox><div  id = stim1></div></div>","32","32","750","","test","go","39","adv","","",""
"","390","32","1460","0","test_block","poldrack-single-stim","54","92782","0.0-5.0-40.0","go-nogo","true","0","","true","<div class = centerbox><div  id = stim1></div></div>","32","32","750","","test","go","40","adv","","",""
"","316","32","1060","0","test_block","poldrack-single-stim","55","93848","0.0-5.0-41.0","go-nogo","true","0","","true","<div class = centerbox><div  id = stim1></div></div>","32","32","750","","test","go","41","adv","","",""
"","340","32","1245","0","test_block","poldrack-single-stim","56","95105","0.0-5.0-42.0","go-nogo","true","0","","true","<div class = centerbox><div  id = stim1></div></div>","32","32","750","","test","go","42","adv","","",""
"","339","32","1095","0","test_block","poldrack-single-stim","57","96212","0.0-5.0-43.0","go-nogo","true","0","","true","<div class = centerbox><div  id = stim1></div></div>","32","32","750","","test","go","43","adv","","",""
"","316","32","1424","0","test_block","poldrack-single-stim","58","97653","0.0-5.0-44.0","go-nogo","true","0","","true","<div class = centerbox><div  id = stim1></div></div>","32","32","750","","test","go","44","adv","","",""
"","315","32","1374","0","test_block","poldrack-single-stim","59","99035","0.0-5.0-45.0","go-nogo","true","0","","true","<div class = centerbox><div  id = stim1></div></div>","32","32","750","","test","go","45","adv","","",""
"","335","32","1059","0","test_block","poldrack-single-stim","60","100107","0.0-5.0-46.0","go-nogo","true","0","","true","<div class = centerbox><div  id = stim1></div></div>","32","32","750","","test","go","46","adv","","",""
"","396","32","1203","0","test_block","poldrack-single-stim","61","101327","0.0-5.0-47.0","go-nogo","true","0","","true","<div class = centerbox><div  id = stim1></div></div>","32","32","750","","test","go","47","adv","","",""
"","323","32","1239","0","test_block","poldrack-single-stim","62","102579","0.0-5.0-48.0","go-nogo","true","0","","true","<div class = centerbox><div  id = stim1></div></div>","32","32","750","","test","go","48","adv","","",""
"","296","32","1097","0","test_block","poldrack-single-stim","63","103687","0.0-5.0-49.0","go-nogo","true","0","","true","<div class = centerbox><div  id = stim1></div></div>","32","32","750","","test","go","49","adv","","",""
"","351","32","1060","0","test_block","poldrack-single-stim","64","104763","0.0-5.0-50.0","go-nogo","true","0","","true","<div class = centerbox><div  id = stim1></div></div>","32","32","750","","test","go","50","adv","","",""
"","368","32","1364","0","test_block","poldrack-single-stim","65","106137","0.0-5.0-51.0","go-nogo","true","0","","true","<div class = centerbox><div  id = stim1></div></div>","32","32","750","","test","go","51","adv","","",""
"","324","32","1353","0","test_block","poldrack-single-stim","66","107501","0.0-5.0-52.0","go-nogo","true","0","","true","<div class = centerbox><div  id = stim1></div></div>","32","32","750","","test","go","52","adv","","",""
"","342","32","1288","0","test_block","poldrack-single-stim","67","108809","0.0-5.0-53.0","go-nogo","true","0","","true","<div class = centerbox><div  id = stim1></div></div>","32","32","750","","test","go","53","adv","","",""
"","330","32","1418","0","test_block","poldrack-single-stim","68","110238","0.0-5.0-54.0","go-nogo","true","0","","true","<div class = centerbox><div  id = stim1></div></div>","32","32","750","","test","go","54","adv","","",""
"","341","32","1003","0","test_block","poldrack-single-stim","69","111251","0.0-5.0-55.0","go-nogo","true","0","","true","<div class = centerbox><div  id = stim1></div></div>","32","32","750","","test","go","55","adv","","",""
"","457","32","1494","0","test_block","poldrack-single-stim","70","112757","0.0-5.0-56.0","go-nogo","true","0","","true","<div class = centerbox><div  id = stim1></div></div>","32","32","750","","test","go","56","adv","","",""
"","310","32","1168","0","test_block","poldrack-single-stim","71","113935","0.0-5.0-57.0","go-nogo","true","0","","true","<div class = centerbox><div  id = stim1></div></div>","32","32","750","","test","go","57","adv","","",""
"","320","32","1344","0","test_block","poldrack-single-stim","72","115286","0.0-5.0-58.0","go-nogo","true","0","","true","<div class = centerbox><div  id = stim1></div></div>","32","32","750","","test","go","58","adv","","",""
"","289","32","1048","0","test_block","poldrack-single-stim","73","116351","0.0-5.0-59.0","go-nogo","true","0","","true","<div class = centerbox><div  id = stim1></div></div>","32","32","750","","test","go","59","adv","","",""
"","339","32","1194","0","test_block","poldrack-single-stim","74","117551","0.0-5.0-60.0","go-nogo","true","0","","true","<div class = centerbox><div  id = stim1></div></div>","32","32","750","","test","go","60","adv","","",""
"","326","32","1028","0","test_block","poldrack-single-stim","75","118591","0.0-5.0-61.0","go-nogo","true","0","","true","<div class = centerbox><div  id = stim1></div></div>","32","32","750","","test","go","61","adv","","",""
"","346","32","1183","0","test_block","poldrack-single-stim","76","119788","0.0-5.0-62.0","go-nogo","true","0","","true","<div class = centerbox><div  id = stim1></div></div>","32","32","750","","test","go","62","adv","","",""
"","311","32","1046","0","test_block","poldrack-single-stim","77","120846","0.0-5.0-63.0","go-nogo","true","0","","true","<div class = centerbox><div  id = stim1></div></div>","32","32","750","","test","go","63","adv","","",""
"","340","32","1097","0","test_block","poldrack-single-stim","78","121949","0.0-5.0-64.0","go-nogo","true","0","","true","<div class = centerbox><div  id = stim1></div></div>","32","32","750","","test","go","64","adv","","",""
"","300","32","1061","0","test_block","poldrack-single-stim","79","123016","0.0-5.0-65.0","go-nogo","true","0","","true","<div class = centerbox><div  id = stim1></div></div>","32","32","750","","test","go","65","adv","","",""
"","316","32","1055","0","test_block","poldrack-single-stim","80","124084","0.0-5.0-66.0","go-nogo","true","0","","true","<div class = centerbox><div  id = stim1></div></div>","32","32","750","","test","go","66","adv","","",""
"","318","32","1140","0","test_block","poldrack-single-stim","81","125234","0.0-5.0-67.0","go-nogo","true","0","","true","<div class = centerbox><div  id = stim1></div></div>","32","32","750","","test","go","67","adv","","",""
"","315","32","1329","0","test_block","poldrack-single-stim","82","126574","0.0-5.0-68.0","go-nogo","true","0","","true","<div class = centerbox><div  id = stim1></div></div>","32","32","750","","test","go","68","adv","","",""
"","335","32","1338","0","test_block","poldrack-single-stim","83","127923","0.0-5.0-69.0","go-nogo","true","0","","true","<div class = centerbox><div  id = stim1></div></div>","32","32","750","","test","go","69","adv","","",""
"","259","32","1254","0","test_block","poldrack-single-stim","84","129184","0.0-5.0-70.0","go-nogo","true","0","","true","<div class = centerbox><div  id = stim1></div></div>","32","32","750","","test","go","70","adv","","",""
"","302","32","1480","0","test_block","poldrack-single-stim","85","130672","0.0-5.0-71.0","go-nogo","true","0","","true","<div class = centerbox><div  id = stim1></div></div>","32","32","750","","test","go","71","adv","","",""
"","274","32","1094","0","test_block","poldrack-single-stim","86","131772","0.0-5.0-72.0","go-nogo","true","0","","true","<div class = centerbox><div  id = stim1></div></div>","32","32","750","","test","go","72","adv","","",""
"","361","32","1034","0","test_block","poldrack-single-stim","87","132816","0.0-5.0-73.0","go-nogo","true","0","","true","<div class = centerbox><div  id = stim1></div></div>","32","32","750","","test","go","73","adv","","",""
"","333","32","1125","0","test_block","poldrack-single-stim","88","133951","0.0-5.0-74.0","go-nogo","true","0","","true","<div class = centerbox><div  id = stim1></div></div>","32","32","750","","test","go","74","adv","","",""
"","307","32","1045","0","test_block","poldrack-single-stim","89","135002","0.0-5.0-75.0","go-nogo","true","0","","true","<div class = centerbox><div  id = stim1></div></div>","32","32","750","","test","go","75","adv","","",""
"","370","32","1295","0","test_block","poldrack-single-stim","90","136307","0.0-5.0-76.0","go-nogo","true","0","","true","<div class = centerbox><div  id = stim1></div></div>","32","32","750","","test","go","76","adv","","",""
"","345","32","1488","0","test_block","poldrack-single-stim","91","137805","0.0-5.0-77.0","go-nogo","true","0","","true","<div class = centerbox><div  id = stim1></div></div>","32","32","750","","test","go","77","adv","","",""
"","275","32","1354","0","test_block","poldrack-single-stim","92","139166","0.0-5.0-78.0","go-nogo","true","0","","true","<div class = centerbox><div  id = stim1></div></div>","32","32","750","","test","go","78","adv","","",""
"","311","32","1323","0","test_block","poldrack-single-stim","93","140499","0.0-5.0-79.0","go-nogo","true","0","","true","<div class = centerbox><div  id = stim1></div></div>","32","32","750","","test","go","79","adv","","",""
"","273","32","1305","0","test_block","poldrack-single-stim","94","141816","0.0-5.0-80.0","go-nogo","true","0","","true","<div class = centerbox><div  id = stim1></div></div>","32","32","750","","test","go","80","adv","","",""
"","254","32","1046","0","test_block","poldrack-single-stim","95","142873","0.0-5.0-81.0","go-nogo","true","0","","true","<div class = centerbox><div  id = stim1></div></div>","32","32","750","","test","go","81","adv","","",""
"","281","32","1345","0","test_block","poldrack-single-stim","96","144229","0.0-5.0-82.0","go-nogo","true","0","","true","<div class = centerbox><div  id = stim1></div></div>","32","32","750","","test","go","82","adv","","",""
"","191","32","1238","0","test_block","poldrack-single-stim","97","145478","0.0-5.0-83.0","go-nogo","true","0","","true","<div class = centerbox><div  id = stim1></div></div>","32","32","750","","test","go","83","adv","","",""
"","269","32","1127","0","test_block","poldrack-single-stim","98","146616","0.0-5.0-84.0","go-nogo","true","0","","true","<div class = centerbox><div  id = stim1></div></div>","32","32","750","","test","go","84","adv","","",""
"","357","32","1371","0","test_block","poldrack-single-stim","99","147998","0.0-5.0-85.0","go-nogo","true","0","","true","<div class = centerbox><div  id = stim1></div></div>","32","32","750","","test","go","85","adv","","",""
"","295","32","1146","0","test_block","poldrack-single-stim","100","149156","0.0-5.0-86.0","go-nogo","true","0","","true","<div class = centerbox><div  id = stim1></div></div>","32","32","750","","test","go","86","adv","","",""
"","297","32","1455","0","test_block","poldrack-single-stim","101","150622","0.0-5.0-87.0","go-nogo","true","0","","true","<div class = centerbox><div  id = stim1></div></div>","32","32","750","","test","go","87","adv","","",""
"","287","32","1342","0","test_block","poldrack-single-stim","102","151974","0.0-5.0-88.0","go-nogo","true","0","","true","<div class = centerbox><div  id = stim1></div></div>","32","32","750","","test","go","88","adv","","",""
"","343","32","1110","0","test_block","poldrack-single-stim","103","153093","0.0-5.0-89.0","go-nogo","true","0","","true","<div class = centerbox><div  id = stim1></div></div>","32","32","750","","test","go","89","adv","","",""
"","366","32","1059","0","test_block","poldrack-single-stim","104","154163","0.0-5.0-90.0","go-nogo","true","0","","true","<div class = centerbox><div  id = stim1></div></div>","32","32","750","","test","go","90","adv","","",""
"","333","32","1286","0","test_block","poldrack-single-stim","105","155464","0.0-5.0-91.0","go-nogo","true","0","","true","<div class = centerbox><div  id = stim1></div></div>","32","32","750","","test","go","91","adv","","",""
"","290","32","1412","0","test_block","poldrack-single-stim","106","156886","0.0-5.0-92.0","go-nogo","true","0","","true","<div class = centerbox><div  id = stim1></div></div>","32","32","750","","test","go","92","adv","","",""
"","284","32","1347","0","test_block","poldrack-single-stim","107","158245","0.0-5.0-93.0","go-nogo","true","0","","true","<div class = centerbox><div  id = stim1></div></div>","32","32","750","","test","go","93","adv","","",""
"","275","32","1219","0","test_block","poldrack-single-stim","108","159470","0.0-5.0-94.0","go-nogo","true","0","","true","<div class = centerbox><div  id = stim1></div></div>","32","32","750","","test","go","94","adv","","",""
"","347","32","1393","0","test_block","poldrack-single-stim","109","160869","0.0-5.0-95.0","go-nogo","true","0","","true","<div class = centerbox><div  id = stim1></div></div>","32","32","750","","test","go","95","adv","","",""
"","239","32","1201","0","test_block","poldrack-single-stim","110","162080","0.0-5.0-96.0","go-nogo","true","0","","true","<div class = centerbox><div  id = stim1></div></div>","32","32","750","","test","go","96","adv","","",""
"","355","32","1272","0","test_block","poldrack-single-stim","111","163364","0.0-5.0-97.0","go-nogo","true","0","","true","<div class = centerbox><div  id = stim1></div></div>","32","32","750","","test","go","97","adv","","",""
"","288","32","1228","0","test_block","poldrack-single-stim","112","164602","0.0-5.0-98.0","go-nogo","true","0","","true","<div class = centerbox><div  id = stim1></div></div>","32","32","750","","test","go","98","adv","","",""
"","222","32","1060","0","test_block","poldrack-single-stim","113","165667","0.0-5.0-99.0","go-nogo","true","0","","true","<div class = centerbox><div  id = stim1></div></div>","32","32","750","","test","go","99","adv","","",""
"","330","32","1498","0","test_block","poldrack-single-stim","114","167176","0.0-5.0-100.0","go-nogo","true","0","","true","<div class = centerbox><div  id = stim1></div></div>","32","32","750","","test","go","100","adv","","",""
"","90","32","1314","0","test_block","poldrack-single-stim","115","168502","0.0-5.0-101.0","go-nogo","true","0","","true","<div class = centerbox><div  id = stim1></div></div>","32","32","750","","test","go","101","adv","","",""
"","110","32","1365","0","test_block","poldrack-single-stim","116","169877","0.0-5.0-102.0","go-nogo","true","0","","true","<div class = centerbox><div  id = stim1></div></div>","32","32","750","","test","go","102","adv","","",""
"","326","32","1302","0","test_block","poldrack-single-stim","117","171191","0.0-5.0-103.0","go-nogo","true","0","","true","<div class = centerbox><div  id = stim1></div></div>","32","32","750","","test","go","103","adv","","",""
"","336","32","1244","0","test_block","poldrack-single-stim","118","172442","0.0-5.0-104.0","go-nogo","true","0","","true","<div class = centerbox><div  id = stim1></div></div>","32","32","750","","test","go","104","adv","","",""
"","320","32","1458","0","test_block","poldrack-single-stim","119","173912","0.0-5.0-105.0","go-nogo","true","0","","true","<div class = centerbox><div  id = stim1></div></div>","32","32","750","","test","go","105","adv","","",""
"","307","32","1061","0","test_block","poldrack-single-stim","120","174983","0.0-5.0-106.0","go-nogo","true","0","","true","<div class = centerbox><div  id = stim1></div></div>","32","32","750","","test","go","106","adv","","",""
"","410","32","1123","0","test_block","poldrack-single-stim","121","176110","0.0-5.0-107.0","go-nogo","true","0","","true","<div class = centerbox><div  id = stim1></div></div>","32","32","750","","test","go","107","adv","","",""
"","332","32","1154","0","test_block","poldrack-single-stim","122","177274","0.0-5.0-108.0","go-nogo","true","0","","true","<div class = centerbox><div  id = stim1></div></div>","32","32","750","","test","go","108","adv","","",""
"","281","32","1395","0","test_block","poldrack-single-stim","123","178681","0.0-5.0-109.0","go-nogo","true","0","","true","<div class = centerbox><div  id = stim1></div></div>","32","32","750","","test","go","109","adv","","",""
"","95","32","1483","0","test_block","poldrack-single-stim","124","180171","0.0-5.0-110.0","go-nogo","true","0","","true","<div class = centerbox><div  id = stim1></div></div>","32","32","750","","test","go","110","adv","","",""
"","270","32","1227","0","test_block","poldrack-single-stim","125","181405","0.0-5.0-111.0","go-nogo","true","0","","true","<div class = centerbox><div  id = stim1></div></div>","32","32","750","","test","go","111","adv","","",""
"","266","32","1410","0","test_block","poldrack-single-stim","126","182829","0.0-5.0-112.0","go-nogo","true","0","","true","<div class = centerbox><div  id = stim1></div></div>","32","32","750","","test","go","112","adv","","",""
"","273","32","1093","0","test_block","poldrack-single-stim","127","183929","0.0-5.0-113.0","go-nogo","true","0","","true","<div class = centerbox><div  id = stim1></div></div>","32","32","750","","test","go","113","adv","","",""
"","428","32","1331","0","test_block","poldrack-single-stim","128","185270","0.0-5.0-114.0","go-nogo","true","0","","true","<div class = centerbox><div  id = stim1></div></div>","32","32","750","","test","go","114","adv","","",""
"","142","32","1188","0","test_block","poldrack-single-stim","129","186469","0.0-5.0-115.0","go-nogo","true","0","","true","<div class = centerbox><div  id = stim1></div></div>","32","32","750","","test","go","115","adv","","",""
"","132","32","1265","0","test_block","poldrack-single-stim","130","187745","0.0-5.0-116.0","go-nogo","true","0","","true","<div class = centerbox><div  id = stim1></div></div>","32","32","750","","test","go","116","adv","","",""
"","26","32","1037","0","test_block","poldrack-single-stim","131","188794","0.0-5.0-117.0","go-nogo","true","0","","true","<div class = centerbox><div  id = stim1></div></div>","32","32","750","","test","go","117","adv","","",""
"","1","32","1467","0","test_block","poldrack-single-stim","132","190283","0.0-5.0-118.0","go-nogo","true","0","","true","<div class = centerbox><div  id = stim1></div></div>","32","32","750","","test","go","118","adv","","",""
"","-1","-1","1199","0","test_block","poldrack-single-stim","133","191487","0.0-5.0-119.0","go-nogo","true","0","","false","<div class = centerbox><div  id = stim1></div></div>","32","32","750","","test","go","119","adv","","",""
"","-1","-1","1428","0","test_block","poldrack-single-stim","134","192925","0.0-5.0-120.0","go-nogo","true","0","","false","<div class = centerbox><div  id = stim1></div></div>","32","32","750","","test","go","120","adv","","",""
"","-1","-1","1219","0","test_block","poldrack-single-stim","135","194155","0.0-5.0-121.0","go-nogo","true","0","","false","<div class = centerbox><div  id = stim1></div></div>","32","32","750","","test","go","121","adv","","",""
"","-1","-1","1144","0","test_block","poldrack-single-stim","136","195309","0.0-5.0-122.0","go-nogo","true","0","","false","<div class = centerbox><div  id = stim1></div></div>","32","32","750","","test","go","122","adv","","",""
"","-1","-1","1201","0","test_block","poldrack-single-stim","137","196520","0.0-5.0-123.0","go-nogo","true","0","","false","<div class = centerbox><div  id = stim1></div></div>","32","32","750","","test","go","123","adv","","",""
"","-1","-1","1430","0","test_block","poldrack-single-stim","138","197956","0.0-5.0-124.0","go-nogo","true","0","","false","<div class = centerbox><div  id = stim1></div></div>","32","32","750","","test","go","124","adv","","",""
"","-1","-1","1456","0","test_block","poldrack-single-stim","139","199417","0.0-5.0-125.0","go-nogo","true","0","","false","<div class = centerbox><div  id = stim1></div></div>","32","32","750","","test","go","125","adv","","",""
"","-1","-1","1061","0","test_block","poldrack-single-stim","140","200489","0.0-5.0-126.0","go-nogo","true","0","","false","<div class = centerbox><div  id = stim1></div></div>","32","32","750","","test","go","126","adv","","",""
"","-1","-1","1057","0","test_block","poldrack-single-stim","141","201557","0.0-5.0-127.0","go-nogo","true","0","","false","<div class = centerbox><div  id = stim1></div></div>","32","32","750","","test","go","127","adv","","",""
"","-1","-1","1421","0","test_block","poldrack-single-stim","142","202988","0.0-5.0-128.0","go-nogo","true","0","","false","<div class = centerbox><div  id = stim1></div></div>","32","32","750","","test","go","128","adv","","",""
"","-1","-1","1205","0","test_block","poldrack-single-stim","143","204203","0.0-5.0-129.0","go-nogo","true","0","","false","<div class = centerbox><div  id = stim1></div></div>","32","32","750","","test","go","129","adv","","",""
"","-1","-1","1241","0","test_block","poldrack-single-stim","144","205449","0.0-5.0-130.0","go-nogo","true","0","","false","<div class = centerbox><div  id = stim1></div></div>","32","32","750","","test","go","130","adv","","",""
"","-1","-1","1341","0","test_block","poldrack-single-stim","145","206800","0.0-5.0-131.0","go-nogo","true","0","","false","<div class = centerbox><div  id = stim1></div></div>","32","32","750","","test","go","131","adv","","",""
"","-1","-1","1221","0","test_block","poldrack-single-stim","146","208035","0.0-5.0-132.0","go-nogo","true","0","","false","<div class = centerbox><div  id = stim1></div></div>","32","32","750","","test","go","132","adv","","",""
"","-1","-1","1253","0","test_block","poldrack-single-stim","147","209297","0.0-5.0-133.0","go-nogo","true","0","","false","<div class = centerbox><div  id = stim1></div></div>","32","32","750","","test","go","133","adv","","",""
"","-1","-1","1206","0","test_block","poldrack-single-stim","148","210510","0.0-5.0-134.0","go-nogo","true","0","","false","<div class = centerbox><div  id = stim1></div></div>","32","32","750","","test","go","134","adv","","",""
"","-1","-1","1155","0","test_block","poldrack-single-stim","149","211673","0.0-5.0-135.0","go-nogo","true","0","","false","<div class = centerbox><div  id = stim1></div></div>","32","32","750","","test","go","135","adv","","",""
"","-1","-1","1143","0","test_block","poldrack-single-stim","150","212823","0.0-5.0-136.0","go-nogo","true","0","","false","<div class = centerbox><div  id = stim1></div></div>","32","32","750","","test","go","136","adv","","",""
"","-1","-1","1055","0","test_block","poldrack-single-stim","151","213886","0.0-5.0-137.0","go-nogo","true","0","","false","<div class = centerbox><div  id = stim1></div></div>","32","32","750","","test","go","137","adv","","",""
"","-1","-1","1048","0","test_block","poldrack-single-stim","152","214944","0.0-5.0-138.0","go-nogo","true","0","","false","<div class = centerbox><div  id = stim1></div></div>","32","32","750","","test","go","138","adv","","",""
"","-1","-1","1326","0","test_block","poldrack-single-stim","153","216275","0.0-5.0-139.0","go-nogo","true","0","","false","<div class = centerbox><div  id = stim1></div></div>","32","32","750","","test","go","139","adv","","",""
"","-1","-1","1017","0","test_block","poldrack-single-stim","154","217303","0.0-5.0-140.0","go-nogo","true","0","","false","<div class = centerbox><div  id = stim1></div></div>","32","32","750","","test","go","140","adv","","",""
"","-1","-1","1151","0","test_block","poldrack-single-stim","155","218466","0.0-5.0-141.0","go-nogo","true","0","","false","<div class = centerbox><div  id = stim1></div></div>","32","32","750","","test","go","141","adv","","",""
"","-1","-1","1048","0","test_block","poldrack-single-stim","156","219525","0.0-5.0-142.0","go-nogo","true","0","","false","<div class = centerbox><div  id = stim1></div></div>","32","32","750","","test","go","142","adv","","",""
"","-1","-1","1191","0","test_block","poldrack-single-stim","157","220726","0.0-5.0-143.0","go-nogo","true","0","","false","<div class = centerbox><div  id = stim1></div></div>","32","32","750","","test","go","143","adv","","",""
"","-1","-1","1328","0","test_block","poldrack-single-stim","158","222062","0.0-5.0-144.0","go-nogo","true","0","","false","<div class = centerbox><div  id = stim1></div></div>","32","32","750","","test","go","144","adv","","",""
"","-1","-1","1025","0","test_block","poldrack-single-stim","159","223097","0.0-5.0-145.0","go-nogo","true","0","","false","<div class = centerbox><div  id = stim1></div></div>","32","32","750","","test","go","145","adv","","",""
"","-1","-1","1054","0","test_block","poldrack-single-stim","160","224162","0.0-5.0-146.0","go-nogo","true","0","","false","<div class = centerbox><div  id = stim1></div></div>","32","32","750","","test","go","146","adv","","",""
"","-1","-1","1387","0","test_block","poldrack-single-stim","161","225558","0.0-5.0-147.0","go-nogo","true","0","","false","<div class = centerbox><div  id = stim1></div></div>","32","32","750","","test","go","147","adv","","",""
"","-1","-1","1347","0","test_block","poldrack-single-stim","162","226912","0.0-5.0-148.0","go-nogo","true","0","","false","<div class = centerbox><div  id = stim1></div></div>","32","32","750","","test","go","148","adv","","",""
"","-1","-1","1483","0","test_block","poldrack-single-stim","163","228401","0.0-5.0-149.0","go-nogo","true","0","","false","<div class = centerbox><div  id = stim1></div></div>","32","32","750","","test","go","149","adv","","",""
"","-1","-1","1292","0","test_block","poldrack-single-stim","164","229700","0.0-5.0-150.0","go-nogo","true","0","","false","<div class = centerbox><div  id = stim1></div></div>","32","32","750","","test","go","150","adv","","",""
"","-1","-1","1371","0","test_block","poldrack-single-stim","165","231077","0.0-5.0-151.0","go-nogo","true","0","","false","<div class = centerbox><div  id = stim1></div></div>","32","32","750","","test","go","151","adv","","",""
"","-1","-1","1060","0","test_block","poldrack-single-stim","166","232147","0.0-5.0-152.0","go-nogo","true","0","","false","<div class = centerbox><div  id = stim1></div></div>","32","32","750","","test","go","152","adv","","",""
"","-1","-1","1345","0","test_block","poldrack-single-stim","167","233510","0.0-5.0-153.0","go-nogo","true","0","","false","<div class = centerbox><div  id = stim1></div></div>","32","32","750","","test","go","153","adv","","",""
"","-1","-1","1371","0","test_block","poldrack-single-stim","168","234892","0.0-5.0-154.0","go-nogo","true","0","","false","<div class = centerbox><div  id = stim1></div></div>","32","32","750","","test","go","154","adv","","",""
"","-1","-1","1054","0","test_block","poldrack-single-stim","169","235960","0.0-5.0-155.0","go-nogo","true","0","","false","<div class = centerbox><div  id = stim1></div></div>","32","32","750","","test","go","155","adv","","",""
"","-1","-1","1327","0","test_block","poldrack-single-stim","170","237297","0.0-5.0-156.0","go-nogo","true","0","","false","<div class = centerbox><div  id = stim1></div></div>","32","32","750","","test","go","156","adv","","",""
"","-1","-1","1376","0","test_block","poldrack-single-stim","171","238685","0.0-5.0-157.0","go-nogo","true","0","","false","<div class = centerbox><div  id = stim1></div></div>","32","32","750","","test","go","157","adv","","",""
"","-1","-1","1430","0","test_block","poldrack-single-stim","172","240120","0.0-5.0-158.0","go-nogo","true","0","","false","<div class = centerbox><div  id = stim1></div></div>","32","32","750","","test","go","158","adv","","",""
"","-1","-1","1068","0","test_block","poldrack-single-stim","173","241198","0.0-5.0-159.0","go-nogo","true","0","","false","<div class = centerbox><div  id = stim1></div></div>","32","32","750","","test","go","159","adv","","",""
"","-1","-1","1366","0","test_block","poldrack-single-stim","174","242575","0.0-5.0-160.0","go-nogo","true","0","","false","<div class = centerbox><div  id = stim1></div></div>","32","32","750","","test","go","160","adv","","",""
"","-1","-1","1120","0","test_block","poldrack-single-stim","175","243710","0.0-5.0-161.0","go-nogo","true","0","","false","<div class = centerbox><div  id = stim1></div></div>","32","32","750","","test","go","161","adv","","",""
"","-1","-1","1444","0","test_block","poldrack-single-stim","176","245159","0.0-5.0-162.0","go-nogo","true","0","","false","<div class = centerbox><div  id = stim1></div></div>","32","32","750","","test","go","162","adv","","",""
"","-1","-1","1187","0","test_block","poldrack-single-stim","177","246352","0.0-5.0-163.0","go-nogo","true","0","","false","<div class = centerbox><div  id = stim1></div></div>","32","32","750","","test","go","163","adv","","",""
"","-1","-1","1414","0","test_block","poldrack-single-stim","178","247776","0.0-5.0-164.0","go-nogo","true","0","","false","<div class = centerbox><div  id = stim1></div></div>","32","32","750","","test","go","164","adv","","",""
"","-1","-1","1482","0","test_block","poldrack-single-stim","179","249263","0.0-5.0-165.0","go-nogo","true","0","","false","<div class = centerbox><div  id = stim1></div></div>","32","32","750","","test","go","165","adv","","",""
"","-1","-1","1171","0","test_block","poldrack-single-stim","180","250439","0.0-5.0-166.0","go-nogo","true","0","","false","<div class = centerbox><div  id = stim1></div></div>","32","32","750","","test","go","166","adv","","",""
"","-1","-1","1410","0","test_block","poldrack-single-stim","181","251853","0.0-5.0-167.0","go-nogo","true","0","","false","<div class = centerbox><div  id = stim1></div></div>","32","32","750","","test","go","167","adv","","",""
"","-1","-1","1083","0","test_block","poldrack-single-stim","182","252945","0.0-5.0-168.0","go-nogo","true","0","","false","<div class = centerbox><div  id = stim1></div></div>","32","32","750","","test","go","168","adv","","",""
"","-1","-1","1114","0","test_block","poldrack-single-stim","183","254064","0.0-5.0-169.0","go-nogo","true","0","","false","<div class = centerbox><div  id = stim1></div></div>","32","32","750","","test","go","169","adv","","",""
"","-1","-1","1148","0","test_block","poldrack-single-stim","184","255222","0.0-5.0-170.0","go-nogo","true","0","","false","<div class = centerbox><div  id = stim1></div></div>","32","32","750","","test","go","170","adv","","",""
"","-1","-1","1329","0","test_block","poldrack-single-stim","185","256556","0.0-5.0-171.0","go-nogo","true","0","","false","<div class = centerbox><div  id = stim1></div></div>","32","32","750","","test","go","171","adv","","",""
"","-1","-1","1438","0","test_block","poldrack-single-stim","186","258003","0.0-5.0-172.0","go-nogo","true","0","","false","<div class = centerbox><div  id = stim1></div></div>","32","32","750","","test","go","172","adv","","",""
"","-1","-1","1077","0","test_block","poldrack-single-stim","187","259096","0.0-5.0-173.0","go-nogo","true","0","","false","<div class = centerbox><div  id = stim1></div></div>","32","32","750","","test","go","173","adv","","",""
"","-1","-1","1103","0","test_block","poldrack-single-stim","188","260209","0.0-5.0-174.0","go-nogo","true","0","","false","<div class = centerbox><div  id = stim1></div></div>","32","32","750","","test","go","174","adv","","",""
"","-1","-1","1266","0","test_block","poldrack-single-stim","189","261489","0.0-5.0-175.0","go-nogo","true","0","","false","<div class = centerbox><div  id = stim1></div></div>","32","32","750","","test","go","175","adv","","",""
"","-1","-1","1033","0","test_block","poldrack-single-stim","190","262530","0.0-5.0-176.0","go-nogo","true","0","","false","<div class = centerbox><div  id = stim1></div></div>","32","32","750","","test","go","176","adv","","",""
"","-1","-1","1371","0","test_block","poldrack-single-stim","191","263910","0.0-5.0-177.0","go-nogo","true","0","","false","<div class = centerbox><div  id = stim1></div></div>","32","32","750","","test","go","177","adv","","",""
"","-1","-1","1111","0","test_block","poldrack-single-stim","192","265027","0.0-5.0-178.0","go-nogo","true","0","","false","<div class = centerbox><div  id = stim1></div></div>","32","32","750","","test","go","178","adv","","",""
"","-1","-1","1299","0","test_block","poldrack-single-stim","193","266336","0.0-5.0-179.0","go-nogo","true","0","","false","<div class = centerbox><div  id = stim1></div></div>","32","32","750","","test","go","179","adv","","",""
"","-1","-1","1169","0","test_block","poldrack-single-stim","194","267521","0.0-5.0-180.0","go-nogo","true","0","","false","<div class = centerbox><div  id = stim1></div></div>","32","32","750","","test","go","180","adv","","",""
"","-1","-1","1056","0","test_block","poldrack-single-stim","195","268584","0.0-5.0-181.0","go-nogo","true","0","","false","<div class = centerbox><div  id = stim1></div></div>","32","32","750","","test","go","181","adv","","",""
"","-1","-1","1109","0","test_block","poldrack-single-stim","196","269701","0.0-5.0-182.0","go-nogo","true","0","","false","<div class = centerbox><div  id = stim1></div></div>","32","32","750","","test","go","182","adv","","",""
"","-1","-1","1339","0","test_block","poldrack-single-stim","197","271046","0.0-5.0-183.0","go-nogo","true","0","","false","<div class = centerbox><div  id = stim1></div></div>","32","32","750","","test","go","183","adv","","",""
"","-1","-1","1285","0","test_block","poldrack-single-stim","198","272339","0.0-5.0-184.0","go-nogo","true","0","","false","<div class = centerbox><div  id = stim1></div></div>","32","32","750","","test","go","184","adv","","",""
"","-1","-1","1078","0","test_block","poldrack-single-stim","199","273428","0.0-5.0-185.0","go-nogo","true","0","","false","<div class = centerbox><div  id = stim1></div></div>","32","32","750","","test","go","185","adv","","",""
"","-1","-1","1139","0","test_block","poldrack-single-stim","200","274576","0.0-5.0-186.0","go-nogo","true","0","","false","<div class = centerbox><div  id = stim1></div></div>","32","32","750","","test","go","186","adv","","",""
"","-1","-1","1010","0","test_block","poldrack-single-stim","201","275596","0.0-5.0-187.0","go-nogo","true","0","","false","<div class = centerbox><div  id = stim1></div></div>","32","32","750","","test","go","187","adv","","",""
"","-1","-1","1195","0","test_block","poldrack-single-stim","202","276799","0.0-5.0-188.0","go-nogo","true","0","","false","<div class = centerbox><div  id = stim1></div></div>","32","32","750","","test","go","188","adv","","",""
"","-1","-1","1283","0","test_block","poldrack-single-stim","203","278087","0.0-5.0-189.0","go-nogo","true","0","","false","<div class = centerbox><div  id = stim1></div></div>","32","32","750","","test","go","189","adv","","",""
"","-1","-1","1182","0","test_block","poldrack-single-stim","204","279278","0.0-5.0-190.0","go-nogo","true","0","","false","<div class = centerbox><div  id = stim1></div></div>","32","32","750","","test","go","190","adv","","",""
"","-1","-1","1124","0","test_block","poldrack-single-stim","205","280407","0.0-5.0-191.0","go-nogo","true","0","","false","<div class = centerbox><div  id = stim1></div></div>","32","32","750","","test","go","191","adv","","",""
"","-1","-1","1481","0","test_block","poldrack-single-stim","206","281896","0.0-5.0-192.0","go-nogo","true","0","","false","<div class = centerbox><div  id = stim1></div></div>","32","32","750","","test","go","192","adv","","",""
"","-1","-1","1421","0","test_block","poldrack-single-stim","207","283326","0.0-5.0-193.0","go-nogo","true","0","","false","<div class = centerbox><div  id = stim1></div></div>","32","32","750","","test","go","193","adv","","",""
"","-1","-1","1216","0","test_block","poldrack-single-stim","208","284554","0.0-5.0-194.0","go-nogo","true","0","","false","<div class = centerbox><div  id = stim1></div></div>","32","32","750","","test","go","194","adv","","",""
"","-1","-1","1484","0","test_block","poldrack-single-stim","209","286047","0.0-5.0-195.0","go-nogo","true","0","","false","<div class = centerbox><div  id = stim1></div></div>","32","32","750","","test","go","195","adv","","",""
"","-1","-1","1124","0","test_block","poldrack-single-stim","210","287176","0.0-5.0-196.0","go-nogo","true","0","","false","<div class = centerbox><div  id = stim1></div></div>","32","32","750","","test","go","196","adv","","",""
"","-1","-1","1306","0","test_block","poldrack-single-stim","211","288493","0.0-5.0-197.0","go-nogo","true","0","","false","<div class = centerbox><div  id = stim1></div></div>","32","32","750","","test","go","197","adv","","",""
"","-1","-1","1082","0","test_block","poldrack-single-stim","212","289584","0.0-5.0-198.0","go-nogo","true","0","","false","<div class = centerbox><div  id = stim1></div></div>","32","32","750","","test","go","198","adv","","",""
"","-1","-1","1483","0","test_block","poldrack-single-stim","213","291071","0.0-5.0-199.0","go-nogo","true","0","","false","<div class = centerbox><div  id = stim1></div></div>","32","32","750","","test","go","199","adv","","",""
"","-1","-1","1173","0","test_block","poldrack-single-stim","214","292253","0.0-5.0-200.0","go-nogo","true","0","","false","<div class = centerbox><div  id = stim1></div></div>","32","32","750","","test","go","200","adv","","",""
"","-1","-1","1094","0","test_block","poldrack-single-stim","215","293352","0.0-5.0-201.0","go-nogo","true","0","","false","<div class = centerbox><div  id = stim1></div></div>","32","32","750","","test","go","201","adv","","",""
"","-1","-1","1040","0","test_block","poldrack-single-stim","216","294401","0.0-5.0-202.0","go-nogo","true","0","","false","<div class = centerbox><div  id = stim1></div></div>","32","32","750","","test","go","202","adv","","",""
"","-1","-1","1149","0","test_block","poldrack-single-stim","217","295561","0.0-5.0-203.0","go-nogo","true","0","","false","<div class = centerbox><div  id = stim1></div></div>","32","32","750","","test","go","203","adv","","",""
"","-1","-1","1025","0","test_block","poldrack-single-stim","218","296595","0.0-5.0-204.0","go-nogo","true","0","","false","<div class = centerbox><div  id = stim1></div></div>","32","32","750","","test","go","204","adv","","",""
"","-1","-1","1251","0","test_block","poldrack-single-stim","219","297855","0.0-5.0-205.0","go-nogo","true","0","","false","<div class = centerbox><div  id = stim1></div></div>","32","32","750","","test","go","205","adv","","",""
"","-1","-1","1498","0","test_block","poldrack-single-stim","220","299362","0.0-5.0-206.0","go-nogo","true","0","","false","<div class = centerbox><div  id = stim1></div></div>","32","32","750","","test","go","206","adv","","",""
"","-1","-1","1318","0","test_block","poldrack-single-stim","221","300699","0.0-5.0-207.0","go-nogo","true","0","","false","<div class = centerbox><div  id = stim1></div></div>","32","32","750","","test","go","207","adv","","",""
"","-1","-1","1186","0","test_block","poldrack-single-stim","222","301891","0.0-5.0-208.0","go-nogo","true","0","","false","<div class = centerbox><div  id = stim1></div></div>","32","32","750","","test","go","208","adv","","",""
"","-1","-1","1319","0","test_block","poldrack-single-stim","223","303219","0.0-5.0-209.0","go-nogo","true","0","","false","<div class = centerbox><div  id = stim1></div></div>","32","32","750","","test","go","209","adv","","",""
"","-1","-1","1057","0","test_block","poldrack-single-stim","224","304286","0.0-5.0-210.0","go-nogo","true","0","","false","<div class = centerbox><div  id = stim1></div></div>","32","32","750","","test","go","210","adv","","",""
"","-1","-1","1398","0","test_block","poldrack-single-stim","225","305693","0.0-5.0-211.0","go-nogo","true","0","","false","<div class = centerbox><div  id = stim1></div></div>","32","32","750","","test","go","211","adv","","",""
"","-1","-1","1305","0","test_block","poldrack-single-stim","226","307007","0.0-5.0-212.0","go-nogo","true","0","","false","<div class = centerbox><div  id = stim1></div></div>","32","32","750","","test","go","212","adv","","",""
"","-1","-1","1457","0","test_block","poldrack-single-stim","227","308473","0.0-5.0-213.0","go-nogo","true","0","","false","<div class = centerbox><div  id = stim1></div></div>","32","32","750","","test","go","213","adv","","",""
"","-1","-1","1208","0","test_block","poldrack-single-stim","228","309690","0.0-5.0-214.0","go-nogo","true","0","","false","<div class = centerbox><div  id = stim1></div></div>","32","32","750","","test","go","214","adv","","",""
"","-1","-1","1338","0","test_block","poldrack-single-stim","229","311033","0.0-5.0-215.0","go-nogo","true","0","","false","<div class = centerbox><div  id = stim1></div></div>","32","32","750","","test","go","215","adv","","",""
"","-1","-1","1464","0","test_block","poldrack-single-stim","230","312507","0.0-5.0-216.0","go-nogo","true","0","","false","<div class = centerbox><div  id = stim1></div></div>","32","32","750","","test","go","216","adv","","",""
"","-1","-1","1387","0","test_block","poldrack-single-stim","231","313907","0.0-5.0-217.0","go-nogo","true","0","","false","<div class = centerbox><div  id = stim1></div></div>","32","32","750","","test","go","217","adv","","",""
"","-1","-1","1332","0","test_block","poldrack-single-stim","232","315248","0.0-5.0-218.0","go-nogo","true","0","","false","<div class = centerbox><div  id = stim1></div></div>","32","32","750","","test","go","218","adv","","",""
"","-1","-1","1047","0","test_block","poldrack-single-stim","233","316310","0.0-5.0-219.0","go-nogo","true","0","","false","<div class = centerbox><div  id = stim1></div></div>","32","32","750","","test","go","219","adv","","",""
"","-1","-1","1083","0","test_block","poldrack-single-stim","234","317409","0.0-5.0-220.0","go-nogo","true","0","","false","<div class = centerbox><div  id = stim1></div></div>","32","32","750","","test","go","220","adv","","",""
"","-1","-1","1331","0","test_block","poldrack-single-stim","235","318752","0.0-5.0-221.0","go-nogo","true","0","","false","<div class = centerbox><div  id = stim1></div></div>","32","32","750","","test","go","221","adv","","",""
"","-1","-1","1395","0","test_block","poldrack-single-stim","236","320154","0.0-5.0-222.0","go-nogo","true","0","","false","<div class = centerbox><div  id = stim1></div></div>","32","32","750","","test","go","222","adv","","",""
"","-1","-1","1249","0","test_block","poldrack-single-stim","237","321414","0.0-5.0-223.0","go-nogo","true","0","","false","<div class = centerbox><div  id = stim1></div></div>","32","32","750","","test","go","223","adv","","",""
"","-1","-1","1225","0","test_block","poldrack-single-stim","238","322647","0.0-5.0-224.0","go-nogo","true","0","","false","<div class = centerbox><div  id = stim1></div></div>","32","32","750","","test","go","224","adv","","",""
"","-1","-1","1247","0","test_block","poldrack-single-stim","239","323905","0.0-5.0-225.0","go-nogo","true","0","","false","<div class = centerbox><div  id = stim1></div></div>","32","32","750","","test","go","225","adv","","",""
"","-1","-1","1164","0","test_block","poldrack-single-stim","240","325081","0.0-5.0-226.0","go-nogo","true","0","","false","<div class = centerbox><div  id = stim1></div></div>","32","32","750","","test","go","226","adv","","",""
"","-1","-1","1487","0","test_block","poldrack-single-stim","241","326578","0.0-5.0-227.0","go-nogo","true","0","","false","<div class = centerbox><div  id = stim1></div></div>","32","32","750","","test","go","227","adv","","",""
"","-1","-1","1310","0","test_block","poldrack-single-stim","242","327895","0.0-5.0-228.0","go-nogo","true","0","","false","<div class = centerbox><div  id = stim1></div></div>","32","32","750","","test","go","228","adv","","",""
"","-1","-1","1339","0","test_block","poldrack-single-stim","243","329244","0.0-5.0-229.0","go-nogo","true","0","","false","<div class = centerbox><div  id = stim1></div></div>","32","32","750","","test","go","229","adv","","",""
"","-1","-1","1292","0","test_block","poldrack-single-stim","244","330547","0.0-5.0-230.0","go-nogo","true","0","","false","<div class = centerbox><div  id = stim1></div></div>","32","32","750","","test","go","230","adv","","",""
"","-1","-1","1157","0","test_block","poldrack-single-stim","245","331714","0.0-5.0-231.0","go-nogo","true","0","","false","<div class = centerbox><div  id = stim1></div></div>","32","32","750","","test","go","231","adv","","",""
"","-1","-1","1228","0","test_block","poldrack-single-stim","246","332954","0.0-5.0-232.0","go-nogo","true","0","","false","<div class = centerbox><div  id = stim1></div></div>","32","32","750","","test","go","232","adv","","",""
"","-1","-1","1395","0","test_block","poldrack-single-stim","247","334355","0.0-5.0-233.0","go-nogo","true","0","","false","<div class = centerbox><div  id = stim1></div></div>","32","32","750","","test","go","233","adv","","",""
"","-1","-1","1182","0","test_block","poldrack-single-stim","248","335547","0.0-5.0-234.0","go-nogo","true","0","","false","<div class = centerbox><div  id = stim1></div></div>","32","32","750","","test","go","234","adv","","",""
"","-1","-1","1371","0","test_block","poldrack-single-stim","249","336929","0.0-5.0-235.0","go-nogo","true","0","","false","<div class = centerbox><div  id = stim1></div></div>","32","32","750","","test","go","235","adv","","",""
"","-1","-1","1482","0","test_block","poldrack-single-stim","250","338429","0.0-5.0-236.0","go-nogo","true","0","","false","<div class = centerbox><div  id = stim1></div></div>","32","32","750","","test","go","236","adv","","",""
"","-1","-1","1497","0","test_block","poldrack-single-stim","251","339937","0.0-5.0-237.0","go-nogo","true","0","","false","<div class = centerbox><div  id = stim1></div></div>","32","32","750","","test","go","237","adv","","",""
"","-1","-1","1002","0","test_block","poldrack-single-stim","252","340944","0.0-5.0-238.0","go-nogo","true","0","","false","<div class = centerbox><div  id = stim1></div></div>","32","32","750","","test","go","238","adv","","",""
"","-1","-1","1332","0","test_block","poldrack-single-stim","253","342286","0.0-5.0-239.0","go-nogo","true","0","","false","<div class = centerbox><div  id = stim1></div></div>","32","32","750","","test","go","239","adv","","",""
"","-1","-1","1213","0","test_block","poldrack-single-stim","254","343515","0.0-5.0-240.0","go-nogo","true","0","","false","<div class = centerbox><div  id = stim1></div></div>","32","32","750","","test","go","240","adv","","",""
"","-1","-1","1143","0","test_block","poldrack-single-stim","255","344667","0.0-5.0-241.0","go-nogo","true","0","","false","<div class = centerbox><div  id = stim1></div></div>","32","32","750","","test","go","241","adv","","",""
"","-1","-1","1353","0","test_block","poldrack-single-stim","256","346028","0.0-5.0-242.0","go-nogo","true","0","","false","<div class = centerbox><div  id = stim1></div></div>","32","32","750","","test","go","242","adv","","",""
"","-1","-1","1277","0","test_block","poldrack-single-stim","257","347315","0.0-5.0-243.0","go-nogo","true","0","","false","<div class = centerbox><div  id = stim1></div></div>","32","32","750","","test","go","243","adv","","",""
"","-1","-1","1019","0","test_block","poldrack-single-stim","258","348343","0.0-5.0-244.0","go-nogo","true","0","","false","<div class = centerbox><div  id = stim1></div></div>","32","32","750","","test","go","244","adv","","",""
"","-1","-1","1494","0","test_block","poldrack-single-stim","259","349842","0.0-5.0-245.0","go-nogo","true","0","","false","<div class = centerbox><div  id = stim1></div></div>","32","32","750","","test","go","245","adv","","",""
"","-1","-1","1138","0","test_block","poldrack-single-stim","260","350988","0.0-5.0-246.0","go-nogo","true","0","","false","<div class = centerbox><div  id = stim1></div></div>","32","32","750","","test","go","246","adv","","",""
"","-1","-1","1254","0","test_block","poldrack-single-stim","261","352251","0.0-5.0-247.0","go-nogo","true","0","","false","<div class = centerbox><div  id = stim1></div></div>","32","32","750","","test","go","247","adv","","",""
"","-1","-1","1368","0","test_block","poldrack-single-stim","262","353629","0.0-5.0-248.0","go-nogo","true","0","","false","<div class = centerbox><div  id = stim1></div></div>","32","32","750","","test","go","248","adv","","",""
"","-1","-1","1084","0","test_block","poldrack-single-stim","263","354723","0.0-5.0-249.0","go-nogo","true","0","","false","<div class = centerbox><div  id = stim1></div></div>","32","32","750","","test","go","249","adv","","",""
"","-1","-1","1426","0","test_block","poldrack-single-stim","264","356156","0.0-5.0-250.0","go-nogo","true","0","","false","<div class = centerbox><div  id = stim1></div></div>","32","32","750","","test","go","250","adv","","",""
"","-1","-1","1288","0","test_block","poldrack-single-stim","265","357449","0.0-5.0-251.0","go-nogo","true","0","","false","<div class = centerbox><div  id = stim1></div></div>","32","32","750","","test","go","251","adv","","",""
"","-1","-1","1361","0","test_block","poldrack-single-stim","266","358821","0.0-5.0-252.0","go-nogo","true","0","","false","<div class = centerbox><div  id = stim1></div></div>","32","32","750","","test","go","252","adv","","",""
"","-1","-1","1382","0","test_block","poldrack-single-stim","267","360210","0.0-5.0-253.0","go-nogo","true","0","","false","<div class = centerbox><div  id = stim1></div></div>","32","32","750","","test","go","253","adv","","",""
"","-1","-1","1269","0","test_block","poldrack-single-stim","268","361492","0.0-5.0-254.0","go-nogo","true","0","","false","<div class = centerbox><div  id = stim1></div></div>","32","32","750","","test","go","254","adv","","",""
"","-1","-1","1090","0","test_block","poldrack-single-stim","269","362591","0.0-5.0-255.0","go-nogo","true","0","","false","<div class = centerbox><div  id = stim1></div></div>","32","32","750","","test","go","255","adv","","",""
"","-1","-1","1263","0","test_block","poldrack-single-stim","270","363864","0.0-5.0-256.0","go-nogo","true","0","","false","<div class = centerbox><div  id = stim1></div></div>","32","32","750","","test","go","256","adv","","",""
"","1255","32","1327","0","test_block","poldrack-single-stim","271","365205","0.0-5.0-257.0","go-nogo","true","0","","true","<div class = centerbox><div  id = stim1></div></div>","32","32","750","","test","go","257","adv","","",""
"","-1","-1","1289","0","test_block","poldrack-single-stim","272","366505","0.0-5.0-258.0","go-nogo","true","0","","true","<div class = centerbox><div  id = stim2></div></div>","-1","32","750","","test","nogo","258","adv","","",""
"","476","32","1270","0","test_block","poldrack-single-stim","273","367785","0.0-5.0-259.0","go-nogo","true","0","","true","<div class = centerbox><div  id = stim1></div></div>","32","32","750","","test","go","259","adv","","",""
"","-1","-1","1158","0","test_block","poldrack-single-stim","274","368953","0.0-5.0-260.0","go-nogo","true","0","","true","<div class = centerbox><div  id = stim2></div></div>","-1","32","750","","test","nogo","260","adv","","",""
"","483","32","1346","0","test_block","poldrack-single-stim","275","370308","0.0-5.0-261.0","go-nogo","true","0","","true","<div class = centerbox><div  id = stim1></div></div>","32","32","750","","test","go","261","adv","","",""
"","-1","-1","1482","0","test_block","poldrack-single-stim","276","371799","0.0-5.0-262.0","go-nogo","true","0","","true","<div class = centerbox><div  id = stim2></div></div>","-1","32","750","","test","nogo","262","adv","","",""
"","430","32","1372","0","test_block","poldrack-single-stim","277","373180","0.0-5.0-263.0","go-nogo","true","0","","true","<div class = centerbox><div  id = stim1></div></div>","32","32","750","","test","go","263","adv","","",""
"","438","32","1369","0","test_block","poldrack-single-stim","278","374561","0.0-5.0-264.0","go-nogo","true","0","","true","<div class = centerbox><div  id = stim1></div></div>","32","32","750","","test","go","264","adv","","",""
"","411","32","1473","0","test_block","poldrack-single-stim","279","376043","0.0-5.0-265.0","go-nogo","true","0","","true","<div class = centerbox><div  id = stim1></div></div>","32","32","750","","test","go","265","adv","","",""
"","406","32","1245","0","test_block","poldrack-single-stim","280","377300","0.0-5.0-266.0","go-nogo","true","0","","true","<div class = centerbox><div  id = stim1></div></div>","32","32","750","","test","go","266","adv","","",""
"","360","32","1037","0","test_block","poldrack-single-stim","281","378347","0.0-5.0-267.0","go-nogo","true","0","","true","<div class = centerbox><div  id = stim1></div></div>","32","32","750","","test","go","267","adv","","",""
"","373","32","1168","0","test_block","poldrack-single-stim","282","379520","0.0-5.0-268.0","go-nogo","true","0","","true","<div class = centerbox><div  id = stim1></div></div>","32","32","750","","test","go","268","adv","","",""
"","334","32","1070","0","test_block","poldrack-single-stim","283","380598","0.0-5.0-269.0","go-nogo","true","0","","true","<div class = centerbox><div  id = stim1></div></div>","32","32","750","","test","go","269","adv","","",""
"","368","32","1222","0","test_block","poldrack-single-stim","284","381828","0.0-5.0-270.0","go-nogo","true","0","","true","<div class = centerbox><div  id = stim1></div></div>","32","32","750","","test","go","270","adv","","",""
"","496","32","1431","0","test_block","poldrack-single-stim","285","383268","0.0-5.0-271.0","go-nogo","true","0","","true","<div class = centerbox><div  id = stim1></div></div>","32","32","750","","test","go","271","adv","","",""
"","28","32","1073","0","test_block","poldrack-single-stim","286","384346","0.0-5.0-272.0","go-nogo","true","0","","true","<div class = centerbox><div  id = stim1></div></div>","32","32","750","","test","go","272","adv","","",""
"","-1","-1","1313","0","test_block","poldrack-single-stim","287","385664","0.0-5.0-273.0","go-nogo","true","0","","false","<div class = centerbox><div  id = stim1></div></div>","32","32","750","","test","go","273","adv","","",""
"","-1","-1","1477","0","test_block","poldrack-single-stim","288","387146","0.0-5.0-274.0","go-nogo","true","0","","false","<div class = centerbox><div  id = stim1></div></div>","32","32","750","","test","go","274","adv","","",""
"","391","32","1377","0","test_block","poldrack-single-stim","289","388534","0.0-5.0-275.0","go-nogo","true","0","","true","<div class = centerbox><div  id = stim1></div></div>","32","32","750","","test","go","275","adv","","",""
"","-1","-1","1269","0","test_block","poldrack-single-stim","290","389813","0.0-5.0-276.0","go-nogo","true","0","","true","<div class = centerbox><div  id = stim2></div></div>","-1","32","750","","test","nogo","276","adv","","",""
"","429","32","1355","0","test_block","poldrack-single-stim","291","391177","0.0-5.0-277.0","go-nogo","true","0","","true","<div class = centerbox><div  id = stim1></div></div>","32","32","750","","test","go","277","adv","","",""
"","443","32","1326","0","test_block","poldrack-single-stim","292","392511","0.0-5.0-278.0","go-nogo","true","0","","true","<div class = centerbox><div  id = stim1></div></div>","32","32","750","","test","go","278","adv","","",""
"","383","32","1380","0","test_block","poldrack-single-stim","293","393907","0.0-5.0-279.0","go-nogo","true","0","","true","<div class = centerbox><div  id = stim1></div></div>","32","32","750","","test","go","279","adv","","",""
"","-1","-1","1446","0","test_block","poldrack-single-stim","294","395363","0.0-5.0-280.0","go-nogo","true","0","","false","<div class = centerbox><div  id = stim1></div></div>","32","32","750","","test","go","280","adv","","",""
"","-1","-1","1331","0","test_block","poldrack-single-stim","295","396706","0.0-5.0-281.0","go-nogo","true","0","","false","<div class = centerbox><div  id = stim1></div></div>","32","32","750","","test","go","281","adv","","",""
"","-1","-1","1047","0","test_block","poldrack-single-stim","296","397760","0.0-5.0-282.0","go-nogo","true","0","","false","<div class = centerbox><div  id = stim1></div></div>","32","32","750","","test","go","282","adv","","",""
"","-1","-1","1448","0","test_block","poldrack-single-stim","297","399218","0.0-5.0-283.0","go-nogo","true","0","","false","<div class = centerbox><div  id = stim1></div></div>","32","32","750","","test","go","283","adv","","",""
"","-1","-1","1256","0","test_block","poldrack-single-stim","298","400489","0.0-5.0-284.0","go-nogo","true","0","","false","<div class = centerbox><div  id = stim1></div></div>","32","32","750","","test","go","284","adv","","",""
"","-1","-1","1475","0","test_block","poldrack-single-stim","299","401974","0.0-5.0-285.0","go-nogo","true","0","","false","<div class = centerbox><div  id = stim1></div></div>","32","32","750","","test","go","285","adv","","",""
"","-1","-1","1096","0","test_block","poldrack-single-stim","300","403076","0.0-5.0-286.0","go-nogo","true","0","","false","<div class = centerbox><div  id = stim1></div></div>","32","32","750","","test","go","286","adv","","",""
"","-1","-1","1298","0","test_block","poldrack-single-stim","301","404383","0.0-5.0-287.0","go-nogo","true","0","","false","<div class = centerbox><div  id = stim1></div></div>","32","32","750","","test","go","287","adv","","",""
"","-1","-1","1464","0","test_block","poldrack-single-stim","302","405869","0.0-5.0-288.0","go-nogo","true","0","","false","<div class = centerbox><div  id = stim1></div></div>","32","32","750","","test","go","288","adv","","",""
"","-1","-1","1169","0","test_block","poldrack-single-stim","303","407044","0.0-5.0-289.0","go-nogo","true","0","","false","<div class = centerbox><div  id = stim1></div></div>","32","32","750","","test","go","289","adv","","",""
"","-1","-1","1170","0","test_block","poldrack-single-stim","304","408227","0.0-5.0-290.0","go-nogo","true","0","","false","<div class = centerbox><div  id = stim1></div></div>","32","32","750","","test","go","290","adv","","",""
"","-1","-1","1273","0","test_block","poldrack-single-stim","305","409510","0.0-5.0-291.0","go-nogo","true","0","","false","<div class = centerbox><div  id = stim1></div></div>","32","32","750","","test","go","291","adv","","",""
"","-1","-1","1166","0","test_block","poldrack-single-stim","306","410685","0.0-5.0-292.0","go-nogo","true","0","","false","<div class = centerbox><div  id = stim1></div></div>","32","32","750","","test","go","292","adv","","",""
"","-1","-1","1183","0","test_block","poldrack-single-stim","307","411874","0.0-5.0-293.0","go-nogo","true","0","","false","<div class = centerbox><div  id = stim1></div></div>","32","32","750","","test","go","293","adv","","",""
"","-1","-1","1178","0","test_block","poldrack-single-stim","308","413062","0.0-5.0-294.0","go-nogo","true","0","","false","<div class = centerbox><div  id = stim1></div></div>","32","32","750","","test","go","294","adv","","",""
"","-1","-1","1147","0","test_block","poldrack-single-stim","309","414219","0.0-5.0-295.0","go-nogo","true","0","","false","<div class = centerbox><div  id = stim1></div></div>","32","32","750","","test","go","295","adv","","",""
"","-1","-1","1112","0","test_block","poldrack-single-stim","310","415340","0.0-5.0-296.0","go-nogo","true","0","","false","<div class = centerbox><div  id = stim1></div></div>","32","32","750","","test","go","296","adv","","",""
"","-1","-1","1345","0","test_block","poldrack-single-stim","311","416696","0.0-5.0-297.0","go-nogo","true","0","","false","<div class = centerbox><div  id = stim1></div></div>","32","32","750","","test","go","297","adv","","",""
"","-1","-1","1438","0","test_block","poldrack-single-stim","312","418140","0.0-5.0-298.0","go-nogo","true","0","","false","<div class = centerbox><div  id = stim1></div></div>","32","32","750","","test","go","298","adv","","",""
"","-1","-1","1317","0","test_block","poldrack-single-stim","313","419467","0.0-5.0-299.0","go-nogo","true","0","","false","<div class = centerbox><div  id = stim1></div></div>","32","32","750","","test","go","299","adv","","",""
"","-1","-1","1441","0","test_block","poldrack-single-stim","314","420918","0.0-5.0-300.0","go-nogo","true","0","","false","<div class = centerbox><div  id = stim1></div></div>","32","32","750","","test","go","300","adv","","",""
"","-1","-1","1489","0","test_block","poldrack-single-stim","315","422412","0.0-5.0-301.0","go-nogo","true","0","","false","<div class = centerbox><div  id = stim1></div></div>","32","32","750","","test","go","301","adv","","",""
"","-1","-1","1288","0","test_block","poldrack-single-stim","316","423711","0.0-5.0-302.0","go-nogo","true","0","","false","<div class = centerbox><div  id = stim1></div></div>","32","32","750","","test","go","302","adv","","",""
"","283","32","1404","0","test_block","poldrack-single-stim","317","425124","0.0-5.0-303.0","go-nogo","true","0","","true","<div class = centerbox><div  id = stim1></div></div>","32","32","750","","test","go","303","adv","","",""
"","-1","-1","1412","0","test_block","poldrack-single-stim","318","426545","0.0-5.0-304.0","go-nogo","true","0","","true","<div class = centerbox><div  id = stim2></div></div>","-1","32","750","","test","nogo","304","adv","","",""
"","330","32","1194","0","test_block","poldrack-single-stim","319","427749","0.0-5.0-305.0","go-nogo","true","0","","true","<div class = centerbox><div  id = stim1></div></div>","32","32","750","","test","go","305","adv","","",""
"","-1","-1","1380","0","test_block","poldrack-single-stim","320","429141","0.0-5.0-306.0","go-nogo","true","0","","true","<div class = centerbox><div  id = stim2></div></div>","-1","32","750","","test","nogo","306","adv","","",""
"","1","32","1423","0","test_block","poldrack-single-stim","321","430569","0.0-5.0-307.0","go-nogo","true","0","","true","<div class = centerbox><div  id = stim1></div></div>","32","32","750","","test","go","307","adv","","",""
"","-1","-1","1186","0","test_block","poldrack-single-stim","322","431765","0.0-5.0-308.0","go-nogo","true","0","","true","<div class = centerbox><div  id = stim2></div></div>","-1","32","750","","test","nogo","308","adv","","",""
"","394","32","1195","0","test_block","poldrack-single-stim","323","432965","0.0-5.0-309.0","go-nogo","true","0","","true","<div class = centerbox><div  id = stim1></div></div>","32","32","750","","test","go","309","adv","","",""
"","-1","-1","1210","0","test_block","poldrack-single-stim","324","434181","0.0-5.0-310.0","go-nogo","true","0","","false","<div class = centerbox><div  id = stim1></div></div>","32","32","750","","test","go","310","adv","","",""
"","541","32","1126","0","test_block","poldrack-single-stim","325","435316","0.0-5.0-311.0","go-nogo","true","0","","true","<div class = centerbox><div  id = stim1></div></div>","32","32","750","","test","go","311","adv","","",""
"","319","32","1225","0","test_block","poldrack-single-stim","326","436551","0.0-5.0-312.0","go-nogo","true","0","","true","<div class = centerbox><div  id = stim1></div></div>","32","32","750","","test","go","312","adv","","",""
"","276","32","1468","0","test_block","poldrack-single-stim","327","438029","0.0-5.0-313.0","go-nogo","true","0","","true","<div class = centerbox><div  id = stim1></div></div>","32","32","750","","test","go","313","adv","","",""
"","308","32","1414","0","test_block","poldrack-single-stim","328","439455","0.0-5.0-314.0","go-nogo","true","0","","true","<div class = centerbox><div  id = stim1></div></div>","32","32","750","","test","go","314","adv","","",""
"","300","32","1220","0","test_block","poldrack-single-stim","329","440685","0.0-5.0-315.0","go-nogo","true","0","","true","<div class = centerbox><div  id = stim1></div></div>","32","32","750","","test","go","315","adv","","",""
"","293","32","1342","0","test_block","poldrack-single-stim","330","442032","0.0-5.0-316.0","go-nogo","true","0","","true","<div class = centerbox><div  id = stim1></div></div>","32","32","750","","test","go","316","adv","","",""
"","281","32","1309","0","test_block","poldrack-single-stim","331","443353","0.0-5.0-317.0","go-nogo","true","0","","true","<div class = centerbox><div  id = stim1></div></div>","32","32","750","","test","go","317","adv","","",""
"","185","32","1264","0","test_block","poldrack-single-stim","332","444628","0.0-5.0-318.0","go-nogo","true","0","","true","<div class = centerbox><div  id = stim1></div></div>","32","32","750","","test","go","318","adv","","",""
"","278","32","1054","0","test_block","poldrack-single-stim","333","445691","0.0-5.0-319.0","go-nogo","true","0","","true","<div class = centerbox><div  id = stim1></div></div>","32","32","750","","test","go","319","adv","","",""
"","307","32","1253","0","test_block","poldrack-single-stim","334","446950","0.0-5.0-320.0","go-nogo","true","0","","true","<div class = centerbox><div  id = stim1></div></div>","32","32","750","","test","go","320","adv","","",""
"","226","32","1421","0","test_block","poldrack-single-stim","335","448375","0.0-5.0-321.0","go-nogo","true","0","","true","<div class = centerbox><div  id = stim1></div></div>","32","32","750","","test","go","321","adv","","",""
"","3","32","1273","0","test_block","poldrack-single-stim","336","449659","0.0-5.0-322.0","go-nogo","true","0","","false","<div class = centerbox><div  id = stim2></div></div>","-1","32","750","","test","nogo","322","adv","","",""
"","387","32","1358","0","test_block","poldrack-single-stim","337","451023","0.0-5.0-323.0","go-nogo","true","0","","false","<div class = centerbox><div  id = stim2></div></div>","-1","32","750","","test","nogo","323","adv","","",""
"","-1","-1","1013","0","test_block","poldrack-single-stim","338","452046","0.0-5.0-324.0","go-nogo","true","0","","true","<div class = centerbox><div  id = stim2></div></div>","-1","32","750","","test","nogo","324","adv","","",""
"","-1","-1","1332","0","test_block","poldrack-single-stim","339","453389","0.0-5.0-325.0","go-nogo","true","0","","true","<div class = centerbox><div  id = stim2></div></div>","-1","32","750","","test","nogo","325","adv","","",""
"","-1","-1","1022","0","test_block","poldrack-single-stim","340","454421","0.0-5.0-326.0","go-nogo","true","0","","true","<div class = centerbox><div  id = stim2></div></div>","-1","32","750","","test","nogo","326","adv","","",""
"","-1","-1","1461","0","test_block","poldrack-single-stim","341","455893","0.0-5.0-327.0","go-nogo","true","0","","true","<div class = centerbox><div  id = stim2></div></div>","-1","32","750","","test","nogo","327","adv","","",""
"","-1","-1","1429","0","test_block","poldrack-single-stim","342","457333","0.0-5.0-328.0","go-nogo","true","0","","true","<div class = centerbox><div  id = stim2></div></div>","-1","32","750","","test","nogo","328","adv","","",""
"","-1","-1","1459","0","test_block","poldrack-single-stim","343","458814","0.0-5.0-329.0","go-nogo","true","0","","true","<div class = centerbox><div  id = stim2></div></div>","-1","32","750","","test","nogo","329","adv","","",""
"","-1","-1","1087","0","test_block","poldrack-single-stim","344","459912","0.0-5.0-330.0","go-nogo","true","0","","true","<div class = centerbox><div  id = stim2></div></div>","-1","32","750","","test","nogo","330","adv","","",""
"","-1","-1","1034","0","test_block","poldrack-single-stim","345","460954","0.0-5.0-331.0","go-nogo","true","0","","true","<div class = centerbox><div  id = stim2></div></div>","-1","32","750","","test","nogo","331","adv","","",""
"","-1","-1","1280","0","test_block","poldrack-single-stim","346","462240","0.0-5.0-332.0","go-nogo","true","0","","true","<div class = centerbox><div  id = stim2></div></div>","-1","32","750","","test","nogo","332","adv","","",""
"","-1","-1","1023","0","test_block","poldrack-single-stim","347","463269","0.0-5.0-333.0","go-nogo","true","0","","true","<div class = centerbox><div  id = stim2></div></div>","-1","32","750","","test","nogo","333","adv","","",""
"","-1","-1","1179","0","test_block","poldrack-single-stim","348","464459","0.0-5.0-334.0","go-nogo","true","0","","true","<div class = centerbox><div  id = stim2></div></div>","-1","32","750","","test","nogo","334","adv","","",""
"","-1","-1","1307","0","test_block","poldrack-single-stim","349","465776","0.0-5.0-335.0","go-nogo","true","0","","true","<div class = centerbox><div  id = stim2></div></div>","-1","32","750","","test","nogo","335","adv","","",""
"","-1","-1","1388","0","test_block","poldrack-single-stim","350","467176","0.0-5.0-336.0","go-nogo","true","0","","true","<div class = centerbox><div  id = stim2></div></div>","-1","32","750","","test","nogo","336","adv","","",""
"","-1","-1","1243","0","test_block","poldrack-single-stim","351","468429","0.0-5.0-337.0","go-nogo","true","0","","true","<div class = centerbox><div  id = stim2></div></div>","-1","32","750","","test","nogo","337","adv","","",""
"","-1","-1","1191","0","test_block","poldrack-single-stim","352","469628","0.0-5.0-338.0","go-nogo","true","0","","true","<div class = centerbox><div  id = stim2></div></div>","-1","32","750","","test","nogo","338","adv","","",""
"","-1","-1","1112","0","test_block","poldrack-single-stim","353","470750","0.0-5.0-339.0","go-nogo","true","0","","true","<div class = centerbox><div  id = stim2></div></div>","-1","32","750","","test","nogo","339","adv","","",""
"","-1","-1","1114","0","test_block","poldrack-single-stim","354","471875","0.0-5.0-340.0","go-nogo","true","0","","true","<div class = centerbox><div  id = stim2></div></div>","-1","32","750","","test","nogo","340","adv","","",""
"","-1","-1","1113","0","test_block","poldrack-single-stim","355","472999","0.0-5.0-341.0","go-nogo","true","0","","true","<div class = centerbox><div  id = stim2></div></div>","-1","32","750","","test","nogo","341","adv","","",""
"","-1","-1","1114","0","test_block","poldrack-single-stim","356","474122","0.0-5.0-342.0","go-nogo","true","0","","true","<div class = centerbox><div  id = stim2></div></div>","-1","32","750","","test","nogo","342","adv","","",""
"","-1","-1","1028","0","test_block","poldrack-single-stim","357","475161","0.0-5.0-343.0","go-nogo","true","0","","true","<div class = centerbox><div  id = stim2></div></div>","-1","32","750","","test","nogo","343","adv","","",""
"","-1","-1","1342","0","test_block","poldrack-single-stim","358","476514","0.0-5.0-344.0","go-nogo","true","0","","true","<div class = centerbox><div  id = stim2></div></div>","-1","32","750","","test","nogo","344","adv","","",""
"","-1","-1","1411","0","test_block","poldrack-single-stim","359","477942","0.0-5.0-345.0","go-nogo","true","0","","true","<div class = centerbox><div  id = stim2></div></div>","-1","32","750","","test","nogo","345","adv","","",""
"","-1","-1","1194","0","test_block","poldrack-single-stim","360","479143","0.0-5.0-346.0","go-nogo","true","0","","true","<div class = centerbox><div  id = stim2></div></div>","-1","32","750","","test","nogo","346","adv","","",""
"","-1","-1","1374","0","test_block","poldrack-single-stim","361","480529","0.0-5.0-347.0","go-nogo","true","0","","true","<div class = centerbox><div  id = stim2></div></div>","-1","32","750","","test","nogo","347","adv","","",""
"","-1","-1","1307","0","test_block","poldrack-single-stim","362","481846","0.0-5.0-348.0","go-nogo","true","0","","true","<div class = centerbox><div  id = stim2></div></div>","-1","32","750","","test","nogo","348","adv","","",""
"","-1","-1","1271","0","test_block","poldrack-single-stim","363","483126","0.0-5.0-349.0","go-nogo","true","0","","true","<div class = centerbox><div  id = stim2></div></div>","-1","32","750","","test","nogo","349","adv","","",""
"","47373","","","","post task questions","survey-text","364","530516","0.0-7.0","go-nogo","true","0","","","","","","","","","","","","{""Q0"":""press space for orange boxes and do nothing for blue bloxes."",""Q1"":""""}","",""
"<div class = centerbox><p class = center-block-text>Thanks for completing this task!</p><p class = center-block-text>Insert the following code to collect your payment at Amazon Mechanical Turk:</p><p class = center-block-text>131888317</p><p class = center-block-text>Press <strong>enter</strong> to continue.</p></div>","8603","13","8603","0","end","poldrack-text","365","540121","0.0-8.0","go-nogo","true","0","","","","","","","","","","","","","131888317","true"
