"text","rt","key_press","block_duration","timing_post_trial","trial_id","trial_type","trial_index","time_elapsed","internal_node_id","exp_id","full_screen","focus_shifts","view_history","correct","stimulus","correct_response","possible_responses","stim_duration","feedback_duration","exp_stage","condition","trial_num","mode","responses","payment_id","credit_var"
"<div class = centerbox><p class = center-block-text>Welcome to the experiment. This task will take around 10 minutes. Press <strong>enter</strong> to begin.</p></div>","3168","13","3168","0","instruction","poldrack-text","0","3170","0.0-0.0-0.0","go-nogo","true","0","","","","","","","","","","","","","",""
"","9957","","","","instruction","poldrack-instructions","1","13127","0.0-0.0-1.0","go-nogo","true","0","[{""page_index"":0,""viewing_time"":9956}]","","","","","","","","","","","","",""
"","-1","-1","1360","250","practice","poldrack-categorize","2","16498","0.0-1.0-0.0","go-nogo","true","0","","true","<div class = centerbox><div id = stim1></div></div>","-1","32","750","1000","practice","nogo","0","adv","","",""
"","393","32","1020","250","practice","poldrack-categorize","3","18779","0.0-1.0-1.0","go-nogo","true","0","","true","<div class = centerbox><div  id = stim2></div></div>","32","32","750","1000","practice","go","1","adv","","",""
"","454","32","1189","250","practice","poldrack-categorize","4","21227","0.0-1.0-2.0","go-nogo","true","0","","true","<div class = centerbox><div  id = stim2></div></div>","32","32","750","1000","practice","go","2","adv","","",""
"","-1","-1","1407","250","practice","poldrack-categorize","5","23891","0.0-1.0-3.0","go-nogo","true","0","","true","<div class = centerbox><div id = stim1></div></div>","-1","32","750","1000","practice","nogo","3","adv","","",""
"","434","32","1267","250","practice","poldrack-categorize","6","26416","0.0-1.0-4.0","go-nogo","true","0","","true","<div class = centerbox><div  id = stim2></div></div>","32","32","750","1000","practice","go","4","adv","","",""
"","-1","-1","1480","250","practice","poldrack-categorize","7","29159","0.0-1.0-5.0","go-nogo","true","0","","true","<div class = centerbox><div id = stim1></div></div>","-1","32","750","1000","practice","nogo","5","adv","","",""
"","353","32","1060","250","practice","poldrack-categorize","8","31475","0.0-1.0-6.0","go-nogo","true","0","","true","<div class = centerbox><div  id = stim2></div></div>","32","32","750","1000","practice","go","6","adv","","",""
"","398","32","1328","250","practice","poldrack-categorize","9","34063","0.0-1.0-7.0","go-nogo","true","0","","true","<div class = centerbox><div  id = stim2></div></div>","32","32","750","1000","practice","go","7","adv","","",""
"","-1","-1","1270","250","practice","poldrack-categorize","10","36587","0.0-1.0-8.0","go-nogo","true","0","","true","<div class = centerbox><div id = stim1></div></div>","-1","32","750","1000","practice","nogo","8","adv","","",""
"","-1","-1","1467","250","practice","poldrack-categorize","11","39311","0.0-1.0-9.0","go-nogo","true","0","","true","<div class = centerbox><div id = stim1></div></div>","-1","32","750","1000","practice","nogo","9","adv","","",""
"","","","","","reset_trial","call-function","12","39563","0.0-3.0","go-nogo","true","0","","","","","","","","","","","","","",""
"<div class = centerbox><p class = block-text>Practice is over, we will now begin the experiment. You will no longer get feedback about your responses.</p><p class = block-text>Remember, if you see the <font color=""blue"">blue</font> square you should <strong> respond by pressing the spacebar as quickly as possible</strong>. If you see the <font color=""orange"">orange</font> square you should <strong> not respond</strong>. Press <strong>enter</strong> to begin.</p></div>","5921","13","5921","1000","test_intro","poldrack-text","13","45486","0.0-4.0","go-nogo","true","0","","","","","","","","","","","","","",""
"","348","32","1312","0","test_block","poldrack-single-stim","14","47802","0.0-5.0-0.0","go-nogo","true","0","","true","<div class = centerbox><div  id = stim2></div></div>","32","32","750","","test","go","0","adv","","",""
"","390","32","1240","0","test_block","poldrack-single-stim","15","49189","0.0-5.0-1.0","go-nogo","true","0","","true","<div class = centerbox><div  id = stim2></div></div>","32","32","750","","test","go","1","adv","","",""
"","379","32","1358","0","test_block","poldrack-single-stim","16","50598","0.0-5.0-2.0","go-nogo","true","0","","true","<div class = centerbox><div  id = stim2></div></div>","32","32","750","","test","go","2","adv","","",""
"","321","32","1447","0","test_block","poldrack-single-stim","17","52109","0.0-5.0-3.0","go-nogo","true","0","","true","<div class = centerbox><div  id = stim2></div></div>","32","32","750","","test","go","3","adv","","",""
"","369","32","1025","0","test_block","poldrack-single-stim","18","53215","0.0-5.0-4.0","go-nogo","true","0","","true","<div class = centerbox><div  id = stim2></div></div>","32","32","750","","test","go","4","adv","","",""
"","397","32","1465","0","test_block","poldrack-single-stim","19","54718","0.0-5.0-5.0","go-nogo","true","0","","true","<div class = centerbox><div  id = stim2></div></div>","32","32","750","","test","go","5","adv","","",""
"","372","32","1238","0","test_block","poldrack-single-stim","20","56018","0.0-5.0-6.0","go-nogo","true","0","","true","<div class = centerbox><div  id = stim2></div></div>","32","32","750","","test","go","6","adv","","",""
"","324","32","1131","0","test_block","poldrack-single-stim","21","57219","0.0-5.0-7.0","go-nogo","true","0","","true","<div class = centerbox><div  id = stim2></div></div>","32","32","750","","test","go","7","adv","","",""
"","342","32","1345","0","test_block","poldrack-single-stim","22","58636","0.0-5.0-8.0","go-nogo","true","0","","true","<div class = centerbox><div  id = stim2></div></div>","32","32","750","","test","go","8","adv","","",""
"","330","32","1002","0","test_block","poldrack-single-stim","23","59672","0.0-5.0-9.0","go-nogo","true","0","","true","<div class = centerbox><div  id = stim2></div></div>","32","32","750","","test","go","9","adv","","",""
"","405","32","1462","0","test_block","poldrack-single-stim","24","61161","0.0-5.0-10.0","go-nogo","true","0","","true","<div class = centerbox><div  id = stim2></div></div>","32","32","750","","test","go","10","adv","","",""
"","375","32","1308","0","test_block","poldrack-single-stim","25","62546","0.0-5.0-11.0","go-nogo","true","0","","true","<div class = centerbox><div  id = stim2></div></div>","32","32","750","","test","go","11","adv","","",""
"","343","32","1438","0","test_block","poldrack-single-stim","26","64036","0.0-5.0-12.0","go-nogo","true","0","","true","<div class = centerbox><div  id = stim2></div></div>","32","32","750","","test","go","12","adv","","",""
"","351","32","1471","0","test_block","poldrack-single-stim","27","65570","0.0-5.0-13.0","go-nogo","true","0","","true","<div class = centerbox><div  id = stim2></div></div>","32","32","750","","test","go","13","adv","","",""
"","328","32","1160","0","test_block","poldrack-single-stim","28","66768","0.0-5.0-14.0","go-nogo","true","0","","true","<div class = centerbox><div  id = stim2></div></div>","32","32","750","","test","go","14","adv","","",""
"","447","32","1382","0","test_block","poldrack-single-stim","29","68205","0.0-5.0-15.0","go-nogo","true","0","","true","<div class = centerbox><div  id = stim2></div></div>","32","32","750","","test","go","15","adv","","",""
"","333","32","1217","0","test_block","poldrack-single-stim","30","69468","0.0-5.0-16.0","go-nogo","true","0","","true","<div class = centerbox><div  id = stim2></div></div>","32","32","750","","test","go","16","adv","","",""
"","333","32","1375","0","test_block","poldrack-single-stim","31","70874","0.0-5.0-17.0","go-nogo","true","0","","true","<div class = centerbox><div  id = stim2></div></div>","32","32","750","","test","go","17","adv","","",""
"","334","32","1051","0","test_block","poldrack-single-stim","32","71980","0.0-5.0-18.0","go-nogo","true","0","","true","<div class = centerbox><div  id = stim2></div></div>","32","32","750","","test","go","18","adv","","",""
"","399","32","1161","0","test_block","poldrack-single-stim","33","73195","0.0-5.0-19.0","go-nogo","true","0","","true","<div class = centerbox><div  id = stim2></div></div>","32","32","750","","test","go","19","adv","","",""
"","376","32","1371","0","test_block","poldrack-single-stim","34","74592","0.0-5.0-20.0","go-nogo","true","0","","true","<div class = centerbox><div  id = stim2></div></div>","32","32","750","","test","go","20","adv","","",""
"","339","32","1427","0","test_block","poldrack-single-stim","35","76079","0.0-5.0-21.0","go-nogo","true","0","","true","<div class = centerbox><div  id = stim2></div></div>","32","32","750","","test","go","21","adv","","",""
"","304","32","1010","0","test_block","poldrack-single-stim","36","77127","0.0-5.0-22.0","go-nogo","true","0","","true","<div class = centerbox><div  id = stim2></div></div>","32","32","750","","test","go","22","adv","","",""
"","347","32","1103","0","test_block","poldrack-single-stim","37","78295","0.0-5.0-23.0","go-nogo","true","0","","true","<div class = centerbox><div  id = stim2></div></div>","32","32","750","","test","go","23","adv","","",""
"","312","32","1333","0","test_block","poldrack-single-stim","38","79657","0.0-5.0-24.0","go-nogo","true","0","","true","<div class = centerbox><div  id = stim2></div></div>","32","32","750","","test","go","24","adv","","",""
"","310","32","1035","0","test_block","poldrack-single-stim","39","80747","0.0-5.0-25.0","go-nogo","true","0","","true","<div class = centerbox><div  id = stim2></div></div>","32","32","750","","test","go","25","adv","","",""
"","344","32","1259","0","test_block","poldrack-single-stim","40","82066","0.0-5.0-26.0","go-nogo","true","0","","true","<div class = centerbox><div  id = stim2></div></div>","32","32","750","","test","go","26","adv","","",""
"","280","32","1402","0","test_block","poldrack-single-stim","41","83522","0.0-5.0-27.0","go-nogo","true","0","","true","<div class = centerbox><div  id = stim2></div></div>","32","32","750","","test","go","27","adv","","",""
"","319","32","1123","0","test_block","poldrack-single-stim","42","84684","0.0-5.0-28.0","go-nogo","true","0","","true","<div class = centerbox><div  id = stim2></div></div>","32","32","750","","test","go","28","adv","","",""
"","352","32","1131","0","test_block","poldrack-single-stim","43","85871","0.0-5.0-29.0","go-nogo","true","0","","true","<div class = centerbox><div  id = stim2></div></div>","32","32","750","","test","go","29","adv","","",""
"","353","32","1316","0","test_block","poldrack-single-stim","44","87284","0.0-5.0-30.0","go-nogo","true","0","","true","<div class = centerbox><div  id = stim2></div></div>","32","32","750","","test","go","30","adv","","",""
"","310","32","1200","0","test_block","poldrack-single-stim","45","88509","0.0-5.0-31.0","go-nogo","true","0","","true","<div class = centerbox><div  id = stim2></div></div>","32","32","750","","test","go","31","adv","","",""
"","300","32","1422","0","test_block","poldrack-single-stim","46","89992","0.0-5.0-32.0","go-nogo","true","0","","true","<div class = centerbox><div  id = stim2></div></div>","32","32","750","","test","go","32","adv","","",""
"","334","32","1298","0","test_block","poldrack-single-stim","47","91338","0.0-5.0-33.0","go-nogo","true","0","","true","<div class = centerbox><div  id = stim2></div></div>","32","32","750","","test","go","33","adv","","",""
"","310","32","1025","0","test_block","poldrack-single-stim","48","92392","0.0-5.0-34.0","go-nogo","true","0","","true","<div class = centerbox><div  id = stim2></div></div>","32","32","750","","test","go","34","adv","","",""
"","411","32","1388","0","test_block","poldrack-single-stim","49","93833","0.0-5.0-35.0","go-nogo","true","0","","true","<div class = centerbox><div  id = stim2></div></div>","32","32","750","","test","go","35","adv","","",""
"","303","32","1247","0","test_block","poldrack-single-stim","50","95130","0.0-5.0-36.0","go-nogo","true","0","","true","<div class = centerbox><div  id = stim2></div></div>","32","32","750","","test","go","36","adv","","",""
"","327","32","1056","0","test_block","poldrack-single-stim","51","96235","0.0-5.0-37.0","go-nogo","true","0","","true","<div class = centerbox><div  id = stim2></div></div>","32","32","750","","test","go","37","adv","","",""
"","342","32","1129","0","test_block","poldrack-single-stim","52","97399","0.0-5.0-38.0","go-nogo","true","0","","true","<div class = centerbox><div  id = stim2></div></div>","32","32","750","","test","go","38","adv","","",""
"","311","32","1177","0","test_block","poldrack-single-stim","53","98594","0.0-5.0-39.0","go-nogo","true","0","","true","<div class = centerbox><div  id = stim2></div></div>","32","32","750","","test","go","39","adv","","",""
"","293","32","1403","0","test_block","poldrack-single-stim","54","100049","0.0-5.0-40.0","go-nogo","true","0","","true","<div class = centerbox><div  id = stim2></div></div>","32","32","750","","test","go","40","adv","","",""
"","321","32","1307","0","test_block","poldrack-single-stim","55","101414","0.0-5.0-41.0","go-nogo","true","0","","true","<div class = centerbox><div  id = stim2></div></div>","32","32","750","","test","go","41","adv","","",""
"","312","32","1034","0","test_block","poldrack-single-stim","56","102497","0.0-5.0-42.0","go-nogo","true","0","","true","<div class = centerbox><div  id = stim2></div></div>","32","32","750","","test","go","42","adv","","",""
"","361","32","1435","0","test_block","poldrack-single-stim","57","103964","0.0-5.0-43.0","go-nogo","true","0","","true","<div class = centerbox><div  id = stim2></div></div>","32","32","750","","test","go","43","adv","","",""
"","324","32","1175","0","test_block","poldrack-single-stim","58","105193","0.0-5.0-44.0","go-nogo","true","0","","true","<div class = centerbox><div  id = stim2></div></div>","32","32","750","","test","go","44","adv","","",""
"","315","32","1166","0","test_block","poldrack-single-stim","59","106410","0.0-5.0-45.0","go-nogo","true","0","","true","<div class = centerbox><div  id = stim2></div></div>","32","32","750","","test","go","45","adv","","",""
"","294","32","1075","0","test_block","poldrack-single-stim","60","107528","0.0-5.0-46.0","go-nogo","true","0","","true","<div class = centerbox><div  id = stim2></div></div>","32","32","750","","test","go","46","adv","","",""
"","303","32","1227","0","test_block","poldrack-single-stim","61","108772","0.0-5.0-47.0","go-nogo","true","0","","true","<div class = centerbox><div  id = stim2></div></div>","32","32","750","","test","go","47","adv","","",""
"","284","32","1391","0","test_block","poldrack-single-stim","62","110211","0.0-5.0-48.0","go-nogo","true","0","","true","<div class = centerbox><div  id = stim2></div></div>","32","32","750","","test","go","48","adv","","",""
"","303","32","1056","0","test_block","poldrack-single-stim","63","111330","0.0-5.0-49.0","go-nogo","true","0","","true","<div class = centerbox><div  id = stim2></div></div>","32","32","750","","test","go","49","adv","","",""
"","301","32","1375","0","test_block","poldrack-single-stim","64","112730","0.0-5.0-50.0","go-nogo","true","0","","true","<div class = centerbox><div  id = stim2></div></div>","32","32","750","","test","go","50","adv","","",""
"","306","32","1138","0","test_block","poldrack-single-stim","65","113886","0.0-5.0-51.0","go-nogo","true","0","","true","<div class = centerbox><div  id = stim2></div></div>","32","32","750","","test","go","51","adv","","",""
"","301","32","1121","0","test_block","poldrack-single-stim","66","115064","0.0-5.0-52.0","go-nogo","true","0","","true","<div class = centerbox><div  id = stim2></div></div>","32","32","750","","test","go","52","adv","","",""
"","338","32","1261","0","test_block","poldrack-single-stim","67","116380","0.0-5.0-53.0","go-nogo","true","0","","true","<div class = centerbox><div  id = stim2></div></div>","32","32","750","","test","go","53","adv","","",""
"","354","32","1062","0","test_block","poldrack-single-stim","68","117505","0.0-5.0-54.0","go-nogo","true","0","","true","<div class = centerbox><div  id = stim2></div></div>","32","32","750","","test","go","54","adv","","",""
"","367","32","1228","0","test_block","poldrack-single-stim","69","118764","0.0-5.0-55.0","go-nogo","true","0","","true","<div class = centerbox><div  id = stim2></div></div>","32","32","750","","test","go","55","adv","","",""
"","310","32","1169","0","test_block","poldrack-single-stim","70","119965","0.0-5.0-56.0","go-nogo","true","0","","true","<div class = centerbox><div  id = stim2></div></div>","32","32","750","","test","go","56","adv","","",""
"","327","32","1389","0","test_block","poldrack-single-stim","71","121402","0.0-5.0-57.0","go-nogo","true","0","","true","<div class = centerbox><div  id = stim2></div></div>","32","32","750","","test","go","57","adv","","",""
"","335","32","1241","0","test_block","poldrack-single-stim","72","122663","0.0-5.0-58.0","go-nogo","true","0","","true","<div class = centerbox><div  id = stim2></div></div>","32","32","750","","test","go","58","adv","","",""
"","319","32","1053","0","test_block","poldrack-single-stim","73","123780","0.0-5.0-59.0","go-nogo","true","0","","true","<div class = centerbox><div  id = stim2></div></div>","32","32","750","","test","go","59","adv","","",""
"","302","32","1499","0","test_block","poldrack-single-stim","74","125335","0.0-5.0-60.0","go-nogo","true","0","","true","<div class = centerbox><div  id = stim2></div></div>","32","32","750","","test","go","60","adv","","",""
"","297","32","1484","0","test_block","poldrack-single-stim","75","126838","0.0-5.0-61.0","go-nogo","true","0","","true","<div class = centerbox><div  id = stim2></div></div>","32","32","750","","test","go","61","adv","","",""
"","303","32","1112","0","test_block","poldrack-single-stim","76","128006","0.0-5.0-62.0","go-nogo","true","0","","true","<div class = centerbox><div  id = stim2></div></div>","32","32","750","","test","go","62","adv","","",""
"","303","32","1094","0","test_block","poldrack-single-stim","77","129126","0.0-5.0-63.0","go-nogo","true","0","","true","<div class = centerbox><div  id = stim2></div></div>","32","32","750","","test","go","63","adv","","",""
"","301","32","1267","0","test_block","poldrack-single-stim","78","130461","0.0-5.0-64.0","go-nogo","true","0","","true","<div class = centerbox><div  id = stim2></div></div>","32","32","750","","test","go","64","adv","","",""
"","309","32","1443","0","test_block","poldrack-single-stim","79","131954","0.0-5.0-65.0","go-nogo","true","0","","true","<div class = centerbox><div  id = stim2></div></div>","32","32","750","","test","go","65","adv","","",""
"","307","32","1025","0","test_block","poldrack-single-stim","80","133018","0.0-5.0-66.0","go-nogo","true","0","","true","<div class = centerbox><div  id = stim2></div></div>","32","32","750","","test","go","66","adv","","",""
"","312","32","1461","0","test_block","poldrack-single-stim","81","134511","0.0-5.0-67.0","go-nogo","true","0","","true","<div class = centerbox><div  id = stim2></div></div>","32","32","750","","test","go","67","adv","","",""
"","297","32","1266","0","test_block","poldrack-single-stim","82","135794","0.0-5.0-68.0","go-nogo","true","0","","true","<div class = centerbox><div  id = stim2></div></div>","32","32","750","","test","go","68","adv","","",""
"","314","32","1187","0","test_block","poldrack-single-stim","83","137034","0.0-5.0-69.0","go-nogo","true","0","","true","<div class = centerbox><div  id = stim2></div></div>","32","32","750","","test","go","69","adv","","",""
"","274","32","1099","0","test_block","poldrack-single-stim","84","138168","0.0-5.0-70.0","go-nogo","true","0","","true","<div class = centerbox><div  id = stim2></div></div>","32","32","750","","test","go","70","adv","","",""
"","294","32","1179","0","test_block","poldrack-single-stim","85","139391","0.0-5.0-71.0","go-nogo","true","0","","true","<div class = centerbox><div  id = stim2></div></div>","32","32","750","","test","go","71","adv","","",""
"","304","32","1303","0","test_block","poldrack-single-stim","86","140745","0.0-5.0-72.0","go-nogo","true","0","","true","<div class = centerbox><div  id = stim2></div></div>","32","32","750","","test","go","72","adv","","",""
"","301","32","1132","0","test_block","poldrack-single-stim","87","141898","0.0-5.0-73.0","go-nogo","true","0","","true","<div class = centerbox><div  id = stim2></div></div>","32","32","750","","test","go","73","adv","","",""
"","260","32","1487","0","test_block","poldrack-single-stim","88","143427","0.0-5.0-74.0","go-nogo","true","0","","true","<div class = centerbox><div  id = stim2></div></div>","32","32","750","","test","go","74","adv","","",""
"","318","32","1402","0","test_block","poldrack-single-stim","89","144874","0.0-5.0-75.0","go-nogo","true","0","","true","<div class = centerbox><div  id = stim2></div></div>","32","32","750","","test","go","75","adv","","",""
"","293","32","1394","0","test_block","poldrack-single-stim","90","146297","0.0-5.0-76.0","go-nogo","true","0","","true","<div class = centerbox><div  id = stim2></div></div>","32","32","750","","test","go","76","adv","","",""
"","276","32","1291","0","test_block","poldrack-single-stim","91","147608","0.0-5.0-77.0","go-nogo","true","0","","true","<div class = centerbox><div  id = stim2></div></div>","32","32","750","","test","go","77","adv","","",""
"","283","32","1441","0","test_block","poldrack-single-stim","92","149086","0.0-5.0-78.0","go-nogo","true","0","","true","<div class = centerbox><div  id = stim2></div></div>","32","32","750","","test","go","78","adv","","",""
"","297","32","1370","0","test_block","poldrack-single-stim","93","150512","0.0-5.0-79.0","go-nogo","true","0","","true","<div class = centerbox><div  id = stim2></div></div>","32","32","750","","test","go","79","adv","","",""
"","320","32","1236","0","test_block","poldrack-single-stim","94","151802","0.0-5.0-80.0","go-nogo","true","0","","true","<div class = centerbox><div  id = stim2></div></div>","32","32","750","","test","go","80","adv","","",""
"","287","32","1492","0","test_block","poldrack-single-stim","95","153337","0.0-5.0-81.0","go-nogo","true","0","","true","<div class = centerbox><div  id = stim2></div></div>","32","32","750","","test","go","81","adv","","",""
"","317","32","1407","0","test_block","poldrack-single-stim","96","154790","0.0-5.0-82.0","go-nogo","true","0","","true","<div class = centerbox><div  id = stim2></div></div>","32","32","750","","test","go","82","adv","","",""
"","290","32","1046","0","test_block","poldrack-single-stim","97","155883","0.0-5.0-83.0","go-nogo","true","0","","true","<div class = centerbox><div  id = stim2></div></div>","32","32","750","","test","go","83","adv","","",""
"","320","32","1245","0","test_block","poldrack-single-stim","98","157158","0.0-5.0-84.0","go-nogo","true","0","","true","<div class = centerbox><div  id = stim2></div></div>","32","32","750","","test","go","84","adv","","",""
"","304","32","1206","0","test_block","poldrack-single-stim","99","158417","0.0-5.0-85.0","go-nogo","true","0","","true","<div class = centerbox><div  id = stim2></div></div>","32","32","750","","test","go","85","adv","","",""
"","279","32","1350","0","test_block","poldrack-single-stim","100","159815","0.0-5.0-86.0","go-nogo","true","0","","true","<div class = centerbox><div  id = stim2></div></div>","32","32","750","","test","go","86","adv","","",""
"","257","32","1493","0","test_block","poldrack-single-stim","101","161358","0.0-5.0-87.0","go-nogo","true","0","","true","<div class = centerbox><div  id = stim2></div></div>","32","32","750","","test","go","87","adv","","",""
"","297","32","1374","0","test_block","poldrack-single-stim","102","162787","0.0-5.0-88.0","go-nogo","true","0","","true","<div class = centerbox><div  id = stim2></div></div>","32","32","750","","test","go","88","adv","","",""
"","258","32","1193","0","test_block","poldrack-single-stim","103","164031","0.0-5.0-89.0","go-nogo","true","0","","true","<div class = centerbox><div  id = stim2></div></div>","32","32","750","","test","go","89","adv","","",""
"","283","32","1382","0","test_block","poldrack-single-stim","104","165458","0.0-5.0-90.0","go-nogo","true","0","","true","<div class = centerbox><div  id = stim2></div></div>","32","32","750","","test","go","90","adv","","",""
"","282","32","1012","0","test_block","poldrack-single-stim","105","166522","0.0-5.0-91.0","go-nogo","true","0","","true","<div class = centerbox><div  id = stim2></div></div>","32","32","750","","test","go","91","adv","","",""
"","315","32","1210","0","test_block","poldrack-single-stim","106","167777","0.0-5.0-92.0","go-nogo","true","0","","true","<div class = centerbox><div  id = stim2></div></div>","32","32","750","","test","go","92","adv","","",""
"","283","32","1121","0","test_block","poldrack-single-stim","107","168945","0.0-5.0-93.0","go-nogo","true","0","","true","<div class = centerbox><div  id = stim2></div></div>","32","32","750","","test","go","93","adv","","",""
"","273","32","1107","0","test_block","poldrack-single-stim","108","170097","0.0-5.0-94.0","go-nogo","true","0","","true","<div class = centerbox><div  id = stim2></div></div>","32","32","750","","test","go","94","adv","","",""
"","265","32","1200","0","test_block","poldrack-single-stim","109","171362","0.0-5.0-95.0","go-nogo","true","0","","true","<div class = centerbox><div  id = stim2></div></div>","32","32","750","","test","go","95","adv","","",""
"","261","32","1408","0","test_block","poldrack-single-stim","110","172827","0.0-5.0-96.0","go-nogo","true","0","","true","<div class = centerbox><div  id = stim2></div></div>","32","32","750","","test","go","96","adv","","",""
"","272","32","1257","0","test_block","poldrack-single-stim","111","174111","0.0-5.0-97.0","go-nogo","true","0","","true","<div class = centerbox><div  id = stim2></div></div>","32","32","750","","test","go","97","adv","","",""
"","326","32","1302","0","test_block","poldrack-single-stim","112","175472","0.0-5.0-98.0","go-nogo","true","0","","true","<div class = centerbox><div  id = stim2></div></div>","32","32","750","","test","go","98","adv","","",""
"","298","32","1183","0","test_block","poldrack-single-stim","113","176707","0.0-5.0-99.0","go-nogo","true","0","","true","<div class = centerbox><div  id = stim2></div></div>","32","32","750","","test","go","99","adv","","",""
"","290","32","1418","0","test_block","poldrack-single-stim","114","178153","0.0-5.0-100.0","go-nogo","true","0","","true","<div class = centerbox><div  id = stim2></div></div>","32","32","750","","test","go","100","adv","","",""
"","277","32","1453","0","test_block","poldrack-single-stim","115","179640","0.0-5.0-101.0","go-nogo","true","0","","true","<div class = centerbox><div  id = stim2></div></div>","32","32","750","","test","go","101","adv","","",""
"","325","32","1304","0","test_block","poldrack-single-stim","116","180968","0.0-5.0-102.0","go-nogo","true","0","","true","<div class = centerbox><div  id = stim2></div></div>","32","32","750","","test","go","102","adv","","",""
"","283","32","1117","0","test_block","poldrack-single-stim","117","182121","0.0-5.0-103.0","go-nogo","true","0","","true","<div class = centerbox><div  id = stim2></div></div>","32","32","750","","test","go","103","adv","","",""
"","318","32","1429","0","test_block","poldrack-single-stim","118","183579","0.0-5.0-104.0","go-nogo","true","0","","true","<div class = centerbox><div  id = stim2></div></div>","32","32","750","","test","go","104","adv","","",""
"","357","32","1403","0","test_block","poldrack-single-stim","119","185026","0.0-5.0-105.0","go-nogo","true","0","","true","<div class = centerbox><div  id = stim2></div></div>","32","32","750","","test","go","105","adv","","",""
"","302","32","1069","0","test_block","poldrack-single-stim","120","186151","0.0-5.0-106.0","go-nogo","true","0","","true","<div class = centerbox><div  id = stim2></div></div>","32","32","750","","test","go","106","adv","","",""
"","325","32","1480","0","test_block","poldrack-single-stim","121","187719","0.0-5.0-107.0","go-nogo","true","0","","true","<div class = centerbox><div  id = stim2></div></div>","32","32","750","","test","go","107","adv","","",""
"","323","32","1302","0","test_block","poldrack-single-stim","122","189052","0.0-5.0-108.0","go-nogo","true","0","","true","<div class = centerbox><div  id = stim2></div></div>","32","32","750","","test","go","108","adv","","",""
"","315","32","1065","0","test_block","poldrack-single-stim","123","190164","0.0-5.0-109.0","go-nogo","true","0","","true","<div class = centerbox><div  id = stim2></div></div>","32","32","750","","test","go","109","adv","","",""
"","379","32","1185","0","test_block","poldrack-single-stim","124","191378","0.0-5.0-110.0","go-nogo","true","0","","true","<div class = centerbox><div  id = stim2></div></div>","32","32","750","","test","go","110","adv","","",""
"","363","32","1131","0","test_block","poldrack-single-stim","125","192561","0.0-5.0-111.0","go-nogo","true","0","","true","<div class = centerbox><div  id = stim2></div></div>","32","32","750","","test","go","111","adv","","",""
"","364","32","1423","0","test_block","poldrack-single-stim","126","194021","0.0-5.0-112.0","go-nogo","true","0","","true","<div class = centerbox><div  id = stim2></div></div>","32","32","750","","test","go","112","adv","","",""
"","298","32","1497","0","test_block","poldrack-single-stim","127","195609","0.0-5.0-113.0","go-nogo","true","0","","true","<div class = centerbox><div  id = stim2></div></div>","32","32","750","","test","go","113","adv","","",""
"","300","32","1175","0","test_block","poldrack-single-stim","128","196824","0.0-5.0-114.0","go-nogo","true","0","","true","<div class = centerbox><div  id = stim2></div></div>","32","32","750","","test","go","114","adv","","",""
"","299","32","1239","0","test_block","poldrack-single-stim","129","198082","0.0-5.0-115.0","go-nogo","true","0","","true","<div class = centerbox><div  id = stim2></div></div>","32","32","750","","test","go","115","adv","","",""
"","401","32","1447","0","test_block","poldrack-single-stim","130","199578","0.0-5.0-116.0","go-nogo","true","0","","true","<div class = centerbox><div  id = stim2></div></div>","32","32","750","","test","go","116","adv","","",""
"","318","32","1064","0","test_block","poldrack-single-stim","131","200684","0.0-5.0-117.0","go-nogo","true","0","","true","<div class = centerbox><div  id = stim2></div></div>","32","32","750","","test","go","117","adv","","",""
"","471","32","1375","0","test_block","poldrack-single-stim","132","202082","0.0-5.0-118.0","go-nogo","true","0","","true","<div class = centerbox><div  id = stim2></div></div>","32","32","750","","test","go","118","adv","","",""
"","343","32","1397","0","test_block","poldrack-single-stim","133","203530","0.0-5.0-119.0","go-nogo","true","0","","true","<div class = centerbox><div  id = stim2></div></div>","32","32","750","","test","go","119","adv","","",""
"","298","32","1182","0","test_block","poldrack-single-stim","134","204741","0.0-5.0-120.0","go-nogo","true","0","","true","<div class = centerbox><div  id = stim2></div></div>","32","32","750","","test","go","120","adv","","",""
"","528","32","1136","0","test_block","poldrack-single-stim","135","205924","0.0-5.0-121.0","go-nogo","true","0","","true","<div class = centerbox><div  id = stim2></div></div>","32","32","750","","test","go","121","adv","","",""
"","369","32","1021","0","test_block","poldrack-single-stim","136","206979","0.0-5.0-122.0","go-nogo","true","0","","true","<div class = centerbox><div  id = stim2></div></div>","32","32","750","","test","go","122","adv","","",""
"","391","32","1161","0","test_block","poldrack-single-stim","137","208189","0.0-5.0-123.0","go-nogo","true","0","","true","<div class = centerbox><div  id = stim2></div></div>","32","32","750","","test","go","123","adv","","",""
"","291","32","1347","0","test_block","poldrack-single-stim","138","209598","0.0-5.0-124.0","go-nogo","true","0","","true","<div class = centerbox><div  id = stim2></div></div>","32","32","750","","test","go","124","adv","","",""
"","294","32","1041","0","test_block","poldrack-single-stim","139","210686","0.0-5.0-125.0","go-nogo","true","0","","true","<div class = centerbox><div  id = stim2></div></div>","32","32","750","","test","go","125","adv","","",""
"","316","32","1454","0","test_block","poldrack-single-stim","140","212157","0.0-5.0-126.0","go-nogo","true","0","","true","<div class = centerbox><div  id = stim2></div></div>","32","32","750","","test","go","126","adv","","",""
"","323","32","1471","0","test_block","poldrack-single-stim","141","213682","0.0-5.0-127.0","go-nogo","true","0","","true","<div class = centerbox><div  id = stim2></div></div>","32","32","750","","test","go","127","adv","","",""
"","255","32","1293","0","test_block","poldrack-single-stim","142","215018","0.0-5.0-128.0","go-nogo","true","0","","true","<div class = centerbox><div  id = stim2></div></div>","32","32","750","","test","go","128","adv","","",""
"","253","32","1475","0","test_block","poldrack-single-stim","143","216518","0.0-5.0-129.0","go-nogo","true","0","","true","<div class = centerbox><div  id = stim2></div></div>","32","32","750","","test","go","129","adv","","",""
"","278","32","1277","0","test_block","poldrack-single-stim","144","217844","0.0-5.0-130.0","go-nogo","true","0","","true","<div class = centerbox><div  id = stim2></div></div>","32","32","750","","test","go","130","adv","","",""
"","270","32","1105","0","test_block","poldrack-single-stim","145","219019","0.0-5.0-131.0","go-nogo","true","0","","true","<div class = centerbox><div  id = stim2></div></div>","32","32","750","","test","go","131","adv","","",""
"","302","32","1470","0","test_block","poldrack-single-stim","146","220544","0.0-5.0-132.0","go-nogo","true","0","","true","<div class = centerbox><div  id = stim2></div></div>","32","32","750","","test","go","132","adv","","",""
"","308","32","1389","0","test_block","poldrack-single-stim","147","221972","0.0-5.0-133.0","go-nogo","true","0","","true","<div class = centerbox><div  id = stim2></div></div>","32","32","750","","test","go","133","adv","","",""
"","286","32","1349","0","test_block","poldrack-single-stim","148","223370","0.0-5.0-134.0","go-nogo","true","0","","true","<div class = centerbox><div  id = stim2></div></div>","32","32","750","","test","go","134","adv","","",""
"","276","32","1051","0","test_block","poldrack-single-stim","149","224446","0.0-5.0-135.0","go-nogo","true","0","","true","<div class = centerbox><div  id = stim2></div></div>","32","32","750","","test","go","135","adv","","",""
"","412","32","1485","0","test_block","poldrack-single-stim","150","225965","0.0-5.0-136.0","go-nogo","true","0","","true","<div class = centerbox><div  id = stim2></div></div>","32","32","750","","test","go","136","adv","","",""
"","309","32","1452","0","test_block","poldrack-single-stim","151","227438","0.0-5.0-137.0","go-nogo","true","0","","true","<div class = centerbox><div  id = stim2></div></div>","32","32","750","","test","go","137","adv","","",""
"","364","32","1453","0","test_block","poldrack-single-stim","152","228934","0.0-5.0-138.0","go-nogo","true","0","","true","<div class = centerbox><div  id = stim2></div></div>","32","32","750","","test","go","138","adv","","",""
"","268","32","1169","0","test_block","poldrack-single-stim","153","230148","0.0-5.0-139.0","go-nogo","true","0","","true","<div class = centerbox><div  id = stim2></div></div>","32","32","750","","test","go","139","adv","","",""
"","278","32","1395","0","test_block","poldrack-single-stim","154","231590","0.0-5.0-140.0","go-nogo","true","0","","true","<div class = centerbox><div  id = stim2></div></div>","32","32","750","","test","go","140","adv","","",""
"","255","32","1064","0","test_block","poldrack-single-stim","155","232702","0.0-5.0-141.0","go-nogo","true","0","","true","<div class = centerbox><div  id = stim2></div></div>","32","32","750","","test","go","141","adv","","",""
"","299","32","1162","0","test_block","poldrack-single-stim","156","233885","0.0-5.0-142.0","go-nogo","true","0","","true","<div class = centerbox><div  id = stim2></div></div>","32","32","750","","test","go","142","adv","","",""
"","299","32","1321","0","test_block","poldrack-single-stim","157","235266","0.0-5.0-143.0","go-nogo","true","0","","true","<div class = centerbox><div  id = stim2></div></div>","32","32","750","","test","go","143","adv","","",""
"","282","32","1053","0","test_block","poldrack-single-stim","158","236336","0.0-5.0-144.0","go-nogo","true","0","","true","<div class = centerbox><div  id = stim2></div></div>","32","32","750","","test","go","144","adv","","",""
"","385","32","1107","0","test_block","poldrack-single-stim","159","237468","0.0-5.0-145.0","go-nogo","true","0","","true","<div class = centerbox><div  id = stim2></div></div>","32","32","750","","test","go","145","adv","","",""
"","365","32","1475","0","test_block","poldrack-single-stim","160","238979","0.0-5.0-146.0","go-nogo","true","0","","true","<div class = centerbox><div  id = stim2></div></div>","32","32","750","","test","go","146","adv","","",""
"","278","32","1180","0","test_block","poldrack-single-stim","161","240211","0.0-5.0-147.0","go-nogo","true","0","","true","<div class = centerbox><div  id = stim2></div></div>","32","32","750","","test","go","147","adv","","",""
"","326","32","1053","0","test_block","poldrack-single-stim","162","241310","0.0-5.0-148.0","go-nogo","true","0","","true","<div class = centerbox><div  id = stim2></div></div>","32","32","750","","test","go","148","adv","","",""
"","293","32","1447","0","test_block","poldrack-single-stim","163","242801","0.0-5.0-149.0","go-nogo","true","0","","true","<div class = centerbox><div  id = stim2></div></div>","32","32","750","","test","go","149","adv","","",""
"","282","32","1238","0","test_block","poldrack-single-stim","164","244087","0.0-5.0-150.0","go-nogo","true","0","","true","<div class = centerbox><div  id = stim2></div></div>","32","32","750","","test","go","150","adv","","",""
"","244","32","1456","0","test_block","poldrack-single-stim","165","245595","0.0-5.0-151.0","go-nogo","true","0","","true","<div class = centerbox><div  id = stim2></div></div>","32","32","750","","test","go","151","adv","","",""
"","257","32","1068","0","test_block","poldrack-single-stim","166","246700","0.0-5.0-152.0","go-nogo","true","0","","true","<div class = centerbox><div  id = stim2></div></div>","32","32","750","","test","go","152","adv","","",""
"","302","32","1168","0","test_block","poldrack-single-stim","167","247892","0.0-5.0-153.0","go-nogo","true","0","","true","<div class = centerbox><div  id = stim2></div></div>","32","32","750","","test","go","153","adv","","",""
"","252","32","1430","0","test_block","poldrack-single-stim","168","249365","0.0-5.0-154.0","go-nogo","true","0","","true","<div class = centerbox><div  id = stim2></div></div>","32","32","750","","test","go","154","adv","","",""
"","287","32","1359","0","test_block","poldrack-single-stim","169","250771","0.0-5.0-155.0","go-nogo","true","0","","true","<div class = centerbox><div  id = stim2></div></div>","32","32","750","","test","go","155","adv","","",""
"","261","32","1265","0","test_block","poldrack-single-stim","170","252093","0.0-5.0-156.0","go-nogo","true","0","","true","<div class = centerbox><div  id = stim2></div></div>","32","32","750","","test","go","156","adv","","",""
"","485","32","1185","0","test_block","poldrack-single-stim","171","253325","0.0-5.0-157.0","go-nogo","true","0","","true","<div class = centerbox><div  id = stim2></div></div>","32","32","750","","test","go","157","adv","","",""
"","745","32","1365","0","test_block","poldrack-single-stim","172","254727","0.0-5.0-158.0","go-nogo","true","0","","true","<div class = centerbox><div  id = stim2></div></div>","32","32","750","","test","go","158","adv","","",""
"","591","32","1271","0","test_block","poldrack-single-stim","173","256049","0.0-5.0-159.0","go-nogo","true","0","","true","<div class = centerbox><div  id = stim2></div></div>","32","32","750","","test","go","159","adv","","",""
"","-1","-1","1022","0","test_block","poldrack-single-stim","174","257126","0.0-5.0-160.0","go-nogo","true","0","","true","<div class = centerbox><div  id = stim1></div></div>","-1","32","750","","test","nogo","160","adv","","",""
"","358","32","1351","0","test_block","poldrack-single-stim","175","258530","0.0-5.0-161.0","go-nogo","true","0","","true","<div class = centerbox><div  id = stim2></div></div>","32","32","750","","test","go","161","adv","","",""
"","297","32","1492","0","test_block","poldrack-single-stim","176","260065","0.0-5.0-162.0","go-nogo","true","0","","true","<div class = centerbox><div  id = stim2></div></div>","32","32","750","","test","go","162","adv","","",""
"","299","32","1409","0","test_block","poldrack-single-stim","177","261515","0.0-5.0-163.0","go-nogo","true","0","","true","<div class = centerbox><div  id = stim2></div></div>","32","32","750","","test","go","163","adv","","",""
"","300","32","1094","0","test_block","poldrack-single-stim","178","262659","0.0-5.0-164.0","go-nogo","true","0","","true","<div class = centerbox><div  id = stim2></div></div>","32","32","750","","test","go","164","adv","","",""
"","-1","-1","1464","0","test_block","poldrack-single-stim","179","264141","0.0-5.0-165.0","go-nogo","true","0","","true","<div class = centerbox><div  id = stim1></div></div>","-1","32","750","","test","nogo","165","adv","","",""
"","282","32","1382","0","test_block","poldrack-single-stim","180","265568","0.0-5.0-166.0","go-nogo","true","0","","true","<div class = centerbox><div  id = stim2></div></div>","32","32","750","","test","go","166","adv","","",""
"","286","32","1121","0","test_block","poldrack-single-stim","181","266736","0.0-5.0-167.0","go-nogo","true","0","","true","<div class = centerbox><div  id = stim2></div></div>","32","32","750","","test","go","167","adv","","",""
"","311","32","1191","0","test_block","poldrack-single-stim","182","267947","0.0-5.0-168.0","go-nogo","true","0","","true","<div class = centerbox><div  id = stim2></div></div>","32","32","750","","test","go","168","adv","","",""
"","311","32","1175","0","test_block","poldrack-single-stim","183","269165","0.0-5.0-169.0","go-nogo","true","0","","true","<div class = centerbox><div  id = stim2></div></div>","32","32","750","","test","go","169","adv","","",""
"","286","32","1382","0","test_block","poldrack-single-stim","184","270598","0.0-5.0-170.0","go-nogo","true","0","","true","<div class = centerbox><div  id = stim2></div></div>","32","32","750","","test","go","170","adv","","",""
"","287","32","1362","0","test_block","poldrack-single-stim","185","271978","0.0-5.0-171.0","go-nogo","true","0","","true","<div class = centerbox><div  id = stim2></div></div>","32","32","750","","test","go","171","adv","","",""
"","283","32","1275","0","test_block","poldrack-single-stim","186","273309","0.0-5.0-172.0","go-nogo","true","0","","true","<div class = centerbox><div  id = stim2></div></div>","32","32","750","","test","go","172","adv","","",""
"","-1","-1","1247","0","test_block","poldrack-single-stim","187","274607","0.0-5.0-173.0","go-nogo","true","0","","true","<div class = centerbox><div  id = stim1></div></div>","-1","32","750","","test","nogo","173","adv","","",""
"","292","32","1240","0","test_block","poldrack-single-stim","188","275892","0.0-5.0-174.0","go-nogo","true","0","","true","<div class = centerbox><div  id = stim2></div></div>","32","32","750","","test","go","174","adv","","",""
"","268","32","1360","0","test_block","poldrack-single-stim","189","277307","0.0-5.0-175.0","go-nogo","true","0","","true","<div class = centerbox><div  id = stim2></div></div>","32","32","750","","test","go","175","adv","","",""
"","290","32","1382","0","test_block","poldrack-single-stim","190","278739","0.0-5.0-176.0","go-nogo","true","0","","true","<div class = centerbox><div  id = stim2></div></div>","32","32","750","","test","go","176","adv","","",""
"","264","32","1118","0","test_block","poldrack-single-stim","191","279911","0.0-5.0-177.0","go-nogo","true","0","","true","<div class = centerbox><div  id = stim2></div></div>","32","32","750","","test","go","177","adv","","",""
"","301","32","1281","0","test_block","poldrack-single-stim","192","281222","0.0-5.0-178.0","go-nogo","true","0","","true","<div class = centerbox><div  id = stim2></div></div>","32","32","750","","test","go","178","adv","","",""
"","302","32","1277","0","test_block","poldrack-single-stim","193","282550","0.0-5.0-179.0","go-nogo","true","0","","true","<div class = centerbox><div  id = stim2></div></div>","32","32","750","","test","go","179","adv","","",""
"","331","32","1228","0","test_block","poldrack-single-stim","194","283798","0.0-5.0-180.0","go-nogo","true","0","","true","<div class = centerbox><div  id = stim2></div></div>","32","32","750","","test","go","180","adv","","",""
"","341","32","1096","0","test_block","poldrack-single-stim","195","284919","0.0-5.0-181.0","go-nogo","true","0","","true","<div class = centerbox><div  id = stim2></div></div>","32","32","750","","test","go","181","adv","","",""
"","-1","-1","1198","0","test_block","poldrack-single-stim","196","286159","0.0-5.0-182.0","go-nogo","true","0","","true","<div class = centerbox><div  id = stim1></div></div>","-1","32","750","","test","nogo","182","adv","","",""
"","403","32","1102","0","test_block","poldrack-single-stim","197","287303","0.0-5.0-183.0","go-nogo","true","0","","true","<div class = centerbox><div  id = stim2></div></div>","32","32","750","","test","go","183","adv","","",""
"","297","32","1282","0","test_block","poldrack-single-stim","198","288603","0.0-5.0-184.0","go-nogo","true","0","","true","<div class = centerbox><div  id = stim2></div></div>","32","32","750","","test","go","184","adv","","",""
"","277","32","1130","0","test_block","poldrack-single-stim","199","289770","0.0-5.0-185.0","go-nogo","true","0","","true","<div class = centerbox><div  id = stim2></div></div>","32","32","750","","test","go","185","adv","","",""
"","294","32","1061","0","test_block","poldrack-single-stim","200","290882","0.0-5.0-186.0","go-nogo","true","0","","true","<div class = centerbox><div  id = stim2></div></div>","32","32","750","","test","go","186","adv","","",""
"","293","32","1355","0","test_block","poldrack-single-stim","201","292289","0.0-5.0-187.0","go-nogo","true","0","","true","<div class = centerbox><div  id = stim2></div></div>","32","32","750","","test","go","187","adv","","",""
"","281","32","1243","0","test_block","poldrack-single-stim","202","293585","0.0-5.0-188.0","go-nogo","true","0","","true","<div class = centerbox><div  id = stim2></div></div>","32","32","750","","test","go","188","adv","","",""
"","287","32","1224","0","test_block","poldrack-single-stim","203","294839","0.0-5.0-189.0","go-nogo","true","0","","true","<div class = centerbox><div  id = stim2></div></div>","32","32","750","","test","go","189","adv","","",""
"","270","32","1110","0","test_block","poldrack-single-stim","204","296002","0.0-5.0-190.0","go-nogo","true","0","","false","<div class = centerbox><div  id = stim1></div></div>","-1","32","750","","test","nogo","190","adv","","",""
"","353","32","1008","0","test_block","poldrack-single-stim","205","297058","0.0-5.0-191.0","go-nogo","true","0","","true","<div class = centerbox><div  id = stim2></div></div>","32","32","750","","test","go","191","adv","","",""
"","326","32","1262","0","test_block","poldrack-single-stim","206","298360","0.0-5.0-192.0","go-nogo","true","0","","true","<div class = centerbox><div  id = stim2></div></div>","32","32","750","","test","go","192","adv","","",""
"","-1","-1","1290","0","test_block","poldrack-single-stim","207","299667","0.0-5.0-193.0","go-nogo","true","0","","true","<div class = centerbox><div  id = stim1></div></div>","-1","32","750","","test","nogo","193","adv","","",""
"","409","32","1175","0","test_block","poldrack-single-stim","208","300869","0.0-5.0-194.0","go-nogo","true","0","","true","<div class = centerbox><div  id = stim2></div></div>","32","32","750","","test","go","194","adv","","",""
"","307","32","1015","0","test_block","poldrack-single-stim","209","301938","0.0-5.0-195.0","go-nogo","true","0","","true","<div class = centerbox><div  id = stim2></div></div>","32","32","750","","test","go","195","adv","","",""
"","-1","-1","1260","0","test_block","poldrack-single-stim","210","303242","0.0-5.0-196.0","go-nogo","true","0","","true","<div class = centerbox><div  id = stim1></div></div>","-1","32","750","","test","nogo","196","adv","","",""
"","294","32","1494","0","test_block","poldrack-single-stim","211","304765","0.0-5.0-197.0","go-nogo","true","0","","true","<div class = centerbox><div  id = stim2></div></div>","32","32","750","","test","go","197","adv","","",""
"","390","32","1448","0","test_block","poldrack-single-stim","212","306253","0.0-5.0-198.0","go-nogo","true","0","","true","<div class = centerbox><div  id = stim2></div></div>","32","32","750","","test","go","198","adv","","",""
"","358","32","1425","0","test_block","poldrack-single-stim","213","307723","0.0-5.0-199.0","go-nogo","true","0","","true","<div class = centerbox><div  id = stim2></div></div>","32","32","750","","test","go","199","adv","","",""
"","325","32","1455","0","test_block","poldrack-single-stim","214","309229","0.0-5.0-200.0","go-nogo","true","0","","true","<div class = centerbox><div  id = stim2></div></div>","32","32","750","","test","go","200","adv","","",""
"","288","32","1036","0","test_block","poldrack-single-stim","215","310315","0.0-5.0-201.0","go-nogo","true","0","","true","<div class = centerbox><div  id = stim2></div></div>","32","32","750","","test","go","201","adv","","",""
"","393","32","1006","0","test_block","poldrack-single-stim","216","311354","0.0-5.0-202.0","go-nogo","true","0","","true","<div class = centerbox><div  id = stim2></div></div>","32","32","750","","test","go","202","adv","","",""
"","336","32","1170","0","test_block","poldrack-single-stim","217","312574","0.0-5.0-203.0","go-nogo","true","0","","true","<div class = centerbox><div  id = stim2></div></div>","32","32","750","","test","go","203","adv","","",""
"","-1","-1","1393","0","test_block","poldrack-single-stim","218","314018","0.0-5.0-204.0","go-nogo","true","0","","true","<div class = centerbox><div  id = stim1></div></div>","-1","32","750","","test","nogo","204","adv","","",""
"","272","32","1387","0","test_block","poldrack-single-stim","219","315428","0.0-5.0-205.0","go-nogo","true","0","","true","<div class = centerbox><div  id = stim2></div></div>","32","32","750","","test","go","205","adv","","",""
"","265","32","1493","0","test_block","poldrack-single-stim","220","316971","0.0-5.0-206.0","go-nogo","true","0","","true","<div class = centerbox><div  id = stim2></div></div>","32","32","750","","test","go","206","adv","","",""
"","281","32","1039","0","test_block","poldrack-single-stim","221","318039","0.0-5.0-207.0","go-nogo","true","0","","true","<div class = centerbox><div  id = stim2></div></div>","32","32","750","","test","go","207","adv","","",""
"","469","32","1350","0","test_block","poldrack-single-stim","222","319413","0.0-5.0-208.0","go-nogo","true","0","","true","<div class = centerbox><div  id = stim2></div></div>","32","32","750","","test","go","208","adv","","",""
"","325","32","1073","0","test_block","poldrack-single-stim","223","320542","0.0-5.0-209.0","go-nogo","true","0","","true","<div class = centerbox><div  id = stim2></div></div>","32","32","750","","test","go","209","adv","","",""
"","292","32","1028","0","test_block","poldrack-single-stim","224","321588","0.0-5.0-210.0","go-nogo","true","0","","true","<div class = centerbox><div  id = stim2></div></div>","32","32","750","","test","go","210","adv","","",""
"","338","32","1293","0","test_block","poldrack-single-stim","225","322935","0.0-5.0-211.0","go-nogo","true","0","","true","<div class = centerbox><div  id = stim2></div></div>","32","32","750","","test","go","211","adv","","",""
"","383","32","1446","0","test_block","poldrack-single-stim","226","324428","0.0-5.0-212.0","go-nogo","true","0","","true","<div class = centerbox><div  id = stim2></div></div>","32","32","750","","test","go","212","adv","","",""
"","447","32","1102","0","test_block","poldrack-single-stim","227","325583","0.0-5.0-213.0","go-nogo","true","0","","true","<div class = centerbox><div  id = stim2></div></div>","32","32","750","","test","go","213","adv","","",""
"","307","32","1390","0","test_block","poldrack-single-stim","228","327017","0.0-5.0-214.0","go-nogo","true","0","","true","<div class = centerbox><div  id = stim2></div></div>","32","32","750","","test","go","214","adv","","",""
"","-1","-1","1491","0","test_block","poldrack-single-stim","229","328528","0.0-5.0-215.0","go-nogo","true","0","","true","<div class = centerbox><div  id = stim1></div></div>","-1","32","750","","test","nogo","215","adv","","",""
"","407","32","1207","0","test_block","poldrack-single-stim","230","329778","0.0-5.0-216.0","go-nogo","true","0","","true","<div class = centerbox><div  id = stim2></div></div>","32","32","750","","test","go","216","adv","","",""
"","318","32","1027","0","test_block","poldrack-single-stim","231","330864","0.0-5.0-217.0","go-nogo","true","0","","true","<div class = centerbox><div  id = stim2></div></div>","32","32","750","","test","go","217","adv","","",""
"","330","32","1408","0","test_block","poldrack-single-stim","232","332293","0.0-5.0-218.0","go-nogo","true","0","","true","<div class = centerbox><div  id = stim2></div></div>","32","32","750","","test","go","218","adv","","",""
"","286","32","1182","0","test_block","poldrack-single-stim","233","333514","0.0-5.0-219.0","go-nogo","true","0","","true","<div class = centerbox><div  id = stim2></div></div>","32","32","750","","test","go","219","adv","","",""
"","268","32","1200","0","test_block","poldrack-single-stim","234","334769","0.0-5.0-220.0","go-nogo","true","0","","true","<div class = centerbox><div  id = stim2></div></div>","32","32","750","","test","go","220","adv","","",""
"","287","32","1098","0","test_block","poldrack-single-stim","235","335885","0.0-5.0-221.0","go-nogo","true","0","","true","<div class = centerbox><div  id = stim2></div></div>","32","32","750","","test","go","221","adv","","",""
"","300","32","1331","0","test_block","poldrack-single-stim","236","337247","0.0-5.0-222.0","go-nogo","true","0","","true","<div class = centerbox><div  id = stim2></div></div>","32","32","750","","test","go","222","adv","","",""
"","280","32","1491","0","test_block","poldrack-single-stim","237","338760","0.0-5.0-223.0","go-nogo","true","0","","true","<div class = centerbox><div  id = stim2></div></div>","32","32","750","","test","go","223","adv","","",""
"","268","32","1430","0","test_block","poldrack-single-stim","238","340241","0.0-5.0-224.0","go-nogo","true","0","","true","<div class = centerbox><div  id = stim2></div></div>","32","32","750","","test","go","224","adv","","",""
"","286","32","1192","0","test_block","poldrack-single-stim","239","341475","0.0-5.0-225.0","go-nogo","true","0","","true","<div class = centerbox><div  id = stim2></div></div>","32","32","750","","test","go","225","adv","","",""
"","299","32","1143","0","test_block","poldrack-single-stim","240","342665","0.0-5.0-226.0","go-nogo","true","0","","true","<div class = centerbox><div  id = stim2></div></div>","32","32","750","","test","go","226","adv","","",""
"","-1","-1","1008","0","test_block","poldrack-single-stim","241","343724","0.0-5.0-227.0","go-nogo","true","0","","true","<div class = centerbox><div  id = stim1></div></div>","-1","32","750","","test","nogo","227","adv","","",""
"","287","32","1107","0","test_block","poldrack-single-stim","242","344876","0.0-5.0-228.0","go-nogo","true","0","","true","<div class = centerbox><div  id = stim2></div></div>","32","32","750","","test","go","228","adv","","",""
"","303","32","1415","0","test_block","poldrack-single-stim","243","346324","0.0-5.0-229.0","go-nogo","true","0","","true","<div class = centerbox><div  id = stim2></div></div>","32","32","750","","test","go","229","adv","","",""
"","290","32","1099","0","test_block","poldrack-single-stim","244","347447","0.0-5.0-230.0","go-nogo","true","0","","true","<div class = centerbox><div  id = stim2></div></div>","32","32","750","","test","go","230","adv","","",""
"","301","32","1112","0","test_block","poldrack-single-stim","245","348630","0.0-5.0-231.0","go-nogo","true","0","","true","<div class = centerbox><div  id = stim2></div></div>","32","32","750","","test","go","231","adv","","",""
"","335","32","1385","0","test_block","poldrack-single-stim","246","350034","0.0-5.0-232.0","go-nogo","true","0","","true","<div class = centerbox><div  id = stim2></div></div>","32","32","750","","test","go","232","adv","","",""
"","271","32","1166","0","test_block","poldrack-single-stim","247","351252","0.0-5.0-233.0","go-nogo","true","0","","true","<div class = centerbox><div  id = stim2></div></div>","32","32","750","","test","go","233","adv","","",""
"","330","32","1204","0","test_block","poldrack-single-stim","248","352500","0.0-5.0-234.0","go-nogo","true","0","","true","<div class = centerbox><div  id = stim2></div></div>","32","32","750","","test","go","234","adv","","",""
"","283","32","1054","0","test_block","poldrack-single-stim","249","353606","0.0-5.0-235.0","go-nogo","true","0","","true","<div class = centerbox><div  id = stim2></div></div>","32","32","750","","test","go","235","adv","","",""
"","288","32","1045","0","test_block","poldrack-single-stim","250","354693","0.0-5.0-236.0","go-nogo","true","0","","true","<div class = centerbox><div  id = stim2></div></div>","32","32","750","","test","go","236","adv","","",""
"","271","32","1136","0","test_block","poldrack-single-stim","251","355883","0.0-5.0-237.0","go-nogo","true","0","","true","<div class = centerbox><div  id = stim2></div></div>","32","32","750","","test","go","237","adv","","",""
"","299","32","1052","0","test_block","poldrack-single-stim","252","356980","0.0-5.0-238.0","go-nogo","true","0","","true","<div class = centerbox><div  id = stim2></div></div>","32","32","750","","test","go","238","adv","","",""
"","324","32","1044","0","test_block","poldrack-single-stim","253","358080","0.0-5.0-239.0","go-nogo","true","0","","true","<div class = centerbox><div  id = stim2></div></div>","32","32","750","","test","go","239","adv","","",""
"","-1","-1","1194","0","test_block","poldrack-single-stim","254","359333","0.0-5.0-240.0","go-nogo","true","0","","true","<div class = centerbox><div  id = stim1></div></div>","-1","32","750","","test","nogo","240","adv","","",""
"","295","32","1362","0","test_block","poldrack-single-stim","255","360748","0.0-5.0-241.0","go-nogo","true","0","","true","<div class = centerbox><div  id = stim2></div></div>","32","32","750","","test","go","241","adv","","",""
"","290","32","1233","0","test_block","poldrack-single-stim","256","361998","0.0-5.0-242.0","go-nogo","true","0","","true","<div class = centerbox><div  id = stim2></div></div>","32","32","750","","test","go","242","adv","","",""
"","294","32","1148","0","test_block","poldrack-single-stim","257","363191","0.0-5.0-243.0","go-nogo","true","0","","true","<div class = centerbox><div  id = stim2></div></div>","32","32","750","","test","go","243","adv","","",""
"","324","32","1250","0","test_block","poldrack-single-stim","258","364484","0.0-5.0-244.0","go-nogo","true","0","","true","<div class = centerbox><div  id = stim2></div></div>","32","32","750","","test","go","244","adv","","",""
"","270","32","1124","0","test_block","poldrack-single-stim","259","365653","0.0-5.0-245.0","go-nogo","true","0","","true","<div class = centerbox><div  id = stim2></div></div>","32","32","750","","test","go","245","adv","","",""
"","313","32","1172","0","test_block","poldrack-single-stim","260","366865","0.0-5.0-246.0","go-nogo","true","0","","true","<div class = centerbox><div  id = stim2></div></div>","32","32","750","","test","go","246","adv","","",""
"","298","32","1088","0","test_block","poldrack-single-stim","261","367986","0.0-5.0-247.0","go-nogo","true","0","","true","<div class = centerbox><div  id = stim2></div></div>","32","32","750","","test","go","247","adv","","",""
"","426","32","1046","0","test_block","poldrack-single-stim","262","369063","0.0-5.0-248.0","go-nogo","true","0","","true","<div class = centerbox><div  id = stim2></div></div>","32","32","750","","test","go","248","adv","","",""
"","294","32","1121","0","test_block","poldrack-single-stim","263","370233","0.0-5.0-249.0","go-nogo","true","0","","true","<div class = centerbox><div  id = stim2></div></div>","32","32","750","","test","go","249","adv","","",""
"","258","32","1120","0","test_block","poldrack-single-stim","264","371402","0.0-5.0-250.0","go-nogo","true","0","","true","<div class = centerbox><div  id = stim2></div></div>","32","32","750","","test","go","250","adv","","",""
"","312","32","1243","0","test_block","poldrack-single-stim","265","372670","0.0-5.0-251.0","go-nogo","true","0","","true","<div class = centerbox><div  id = stim2></div></div>","32","32","750","","test","go","251","adv","","",""
"","288","32","1282","0","test_block","poldrack-single-stim","266","373996","0.0-5.0-252.0","go-nogo","true","0","","true","<div class = centerbox><div  id = stim2></div></div>","32","32","750","","test","go","252","adv","","",""
"","-1","-1","1330","0","test_block","poldrack-single-stim","267","375344","0.0-5.0-253.0","go-nogo","true","0","","true","<div class = centerbox><div  id = stim1></div></div>","-1","32","750","","test","nogo","253","adv","","",""
"","350","32","1209","0","test_block","poldrack-single-stim","268","376603","0.0-5.0-254.0","go-nogo","true","0","","true","<div class = centerbox><div  id = stim2></div></div>","32","32","750","","test","go","254","adv","","",""
"","319","32","1457","0","test_block","poldrack-single-stim","269","378110","0.0-5.0-255.0","go-nogo","true","0","","true","<div class = centerbox><div  id = stim2></div></div>","32","32","750","","test","go","255","adv","","",""
"","315","32","1417","0","test_block","poldrack-single-stim","270","379570","0.0-5.0-256.0","go-nogo","true","0","","true","<div class = centerbox><div  id = stim2></div></div>","32","32","750","","test","go","256","adv","","",""
"","274","32","1092","0","test_block","poldrack-single-stim","271","380687","0.0-5.0-257.0","go-nogo","true","0","","true","<div class = centerbox><div  id = stim2></div></div>","32","32","750","","test","go","257","adv","","",""
"","274","32","1280","0","test_block","poldrack-single-stim","272","382012","0.0-5.0-258.0","go-nogo","true","0","","true","<div class = centerbox><div  id = stim2></div></div>","32","32","750","","test","go","258","adv","","",""
"","300","32","1292","0","test_block","poldrack-single-stim","273","383344","0.0-5.0-259.0","go-nogo","true","0","","true","<div class = centerbox><div  id = stim2></div></div>","32","32","750","","test","go","259","adv","","",""
"","285","32","1117","0","test_block","poldrack-single-stim","274","384488","0.0-5.0-260.0","go-nogo","true","0","","true","<div class = centerbox><div  id = stim2></div></div>","32","32","750","","test","go","260","adv","","",""
"","292","32","1164","0","test_block","poldrack-single-stim","275","385705","0.0-5.0-261.0","go-nogo","true","0","","true","<div class = centerbox><div  id = stim2></div></div>","32","32","750","","test","go","261","adv","","",""
"","286","32","1246","0","test_block","poldrack-single-stim","276","386993","0.0-5.0-262.0","go-nogo","true","0","","true","<div class = centerbox><div  id = stim2></div></div>","32","32","750","","test","go","262","adv","","",""
"","290","32","1443","0","test_block","poldrack-single-stim","277","388494","0.0-5.0-263.0","go-nogo","true","0","","true","<div class = centerbox><div  id = stim2></div></div>","32","32","750","","test","go","263","adv","","",""
"","294","32","1309","0","test_block","poldrack-single-stim","278","389858","0.0-5.0-264.0","go-nogo","true","0","","true","<div class = centerbox><div  id = stim2></div></div>","32","32","750","","test","go","264","adv","","",""
"","245","32","1342","0","test_block","poldrack-single-stim","279","391249","0.0-5.0-265.0","go-nogo","true","0","","false","<div class = centerbox><div  id = stim1></div></div>","-1","32","750","","test","nogo","265","adv","","",""
"","260","32","1111","0","test_block","poldrack-single-stim","280","392405","0.0-5.0-266.0","go-nogo","true","0","","true","<div class = centerbox><div  id = stim2></div></div>","32","32","750","","test","go","266","adv","","",""
"","309","32","1235","0","test_block","poldrack-single-stim","281","393701","0.0-5.0-267.0","go-nogo","true","0","","true","<div class = centerbox><div  id = stim2></div></div>","32","32","750","","test","go","267","adv","","",""
"","267","32","1382","0","test_block","poldrack-single-stim","282","395127","0.0-5.0-268.0","go-nogo","true","0","","false","<div class = centerbox><div  id = stim1></div></div>","-1","32","750","","test","nogo","268","adv","","",""
"","293","32","1259","0","test_block","poldrack-single-stim","283","396415","0.0-5.0-269.0","go-nogo","true","0","","true","<div class = centerbox><div  id = stim2></div></div>","32","32","750","","test","go","269","adv","","",""
"","-1","-1","1019","0","test_block","poldrack-single-stim","284","397457","0.0-5.0-270.0","go-nogo","true","0","","true","<div class = centerbox><div  id = stim1></div></div>","-1","32","750","","test","nogo","270","adv","","",""
"","338","32","1413","0","test_block","poldrack-single-stim","285","398889","0.0-5.0-271.0","go-nogo","true","0","","true","<div class = centerbox><div  id = stim2></div></div>","32","32","750","","test","go","271","adv","","",""
"","357","32","1489","0","test_block","poldrack-single-stim","286","400429","0.0-5.0-272.0","go-nogo","true","0","","true","<div class = centerbox><div  id = stim2></div></div>","32","32","750","","test","go","272","adv","","",""
"","-1","-1","1136","0","test_block","poldrack-single-stim","287","401613","0.0-5.0-273.0","go-nogo","true","0","","true","<div class = centerbox><div  id = stim1></div></div>","-1","32","750","","test","nogo","273","adv","","",""
"","284","32","1074","0","test_block","poldrack-single-stim","288","402726","0.0-5.0-274.0","go-nogo","true","0","","true","<div class = centerbox><div  id = stim2></div></div>","32","32","750","","test","go","274","adv","","",""
"","306","32","1356","0","test_block","poldrack-single-stim","289","404132","0.0-5.0-275.0","go-nogo","true","0","","true","<div class = centerbox><div  id = stim2></div></div>","32","32","750","","test","go","275","adv","","",""
"","-1","-1","1151","0","test_block","poldrack-single-stim","290","405343","0.0-5.0-276.0","go-nogo","true","0","","true","<div class = centerbox><div  id = stim1></div></div>","-1","32","750","","test","nogo","276","adv","","",""
"","299","32","1316","0","test_block","poldrack-single-stim","291","406681","0.0-5.0-277.0","go-nogo","true","0","","true","<div class = centerbox><div  id = stim2></div></div>","32","32","750","","test","go","277","adv","","",""
"","266","32","1207","0","test_block","poldrack-single-stim","292","407932","0.0-5.0-278.0","go-nogo","true","0","","true","<div class = centerbox><div  id = stim2></div></div>","32","32","750","","test","go","278","adv","","",""
"","274","32","1072","0","test_block","poldrack-single-stim","293","409029","0.0-5.0-279.0","go-nogo","true","0","","true","<div class = centerbox><div  id = stim2></div></div>","32","32","750","","test","go","279","adv","","",""
"","307","32","1185","0","test_block","poldrack-single-stim","294","410238","0.0-5.0-280.0","go-nogo","true","0","","true","<div class = centerbox><div  id = stim2></div></div>","32","32","750","","test","go","280","adv","","",""
"","338","32","1238","0","test_block","poldrack-single-stim","295","411532","0.0-5.0-281.0","go-nogo","true","0","","true","<div class = centerbox><div  id = stim2></div></div>","32","32","750","","test","go","281","adv","","",""
"","296","32","1328","0","test_block","poldrack-single-stim","296","412900","0.0-5.0-282.0","go-nogo","true","0","","true","<div class = centerbox><div  id = stim2></div></div>","32","32","750","","test","go","282","adv","","",""
"","301","32","1260","0","test_block","poldrack-single-stim","297","414177","0.0-5.0-283.0","go-nogo","true","0","","true","<div class = centerbox><div  id = stim2></div></div>","32","32","750","","test","go","283","adv","","",""
"","323","32","1043","0","test_block","poldrack-single-stim","298","415247","0.0-5.0-284.0","go-nogo","true","0","","true","<div class = centerbox><div  id = stim2></div></div>","32","32","750","","test","go","284","adv","","",""
"","-1","-1","1035","0","test_block","poldrack-single-stim","299","416302","0.0-5.0-285.0","go-nogo","true","0","","true","<div class = centerbox><div  id = stim1></div></div>","-1","32","750","","test","nogo","285","adv","","",""
"","342","32","1325","0","test_block","poldrack-single-stim","300","417650","0.0-5.0-286.0","go-nogo","true","0","","true","<div class = centerbox><div  id = stim2></div></div>","32","32","750","","test","go","286","adv","","",""
"","293","32","1036","0","test_block","poldrack-single-stim","301","418727","0.0-5.0-287.0","go-nogo","true","0","","true","<div class = centerbox><div  id = stim2></div></div>","32","32","750","","test","go","287","adv","","",""
"","318","32","1057","0","test_block","poldrack-single-stim","302","419832","0.0-5.0-288.0","go-nogo","true","0","","true","<div class = centerbox><div  id = stim2></div></div>","32","32","750","","test","go","288","adv","","",""
"","309","32","1281","0","test_block","poldrack-single-stim","303","421160","0.0-5.0-289.0","go-nogo","true","0","","true","<div class = centerbox><div  id = stim2></div></div>","32","32","750","","test","go","289","adv","","",""
"","296","32","1447","0","test_block","poldrack-single-stim","304","422645","0.0-5.0-290.0","go-nogo","true","0","","true","<div class = centerbox><div  id = stim2></div></div>","32","32","750","","test","go","290","adv","","",""
"","332","32","1355","0","test_block","poldrack-single-stim","305","424025","0.0-5.0-291.0","go-nogo","true","0","","true","<div class = centerbox><div  id = stim2></div></div>","32","32","750","","test","go","291","adv","","",""
"","338","32","1107","0","test_block","poldrack-single-stim","306","425189","0.0-5.0-292.0","go-nogo","true","0","","true","<div class = centerbox><div  id = stim2></div></div>","32","32","750","","test","go","292","adv","","",""
"","313","32","1125","0","test_block","poldrack-single-stim","307","426371","0.0-5.0-293.0","go-nogo","true","0","","true","<div class = centerbox><div  id = stim2></div></div>","32","32","750","","test","go","293","adv","","",""
"","343","32","1074","0","test_block","poldrack-single-stim","308","427493","0.0-5.0-294.0","go-nogo","true","0","","true","<div class = centerbox><div  id = stim2></div></div>","32","32","750","","test","go","294","adv","","",""
"","355","32","1236","0","test_block","poldrack-single-stim","309","428763","0.0-5.0-295.0","go-nogo","true","0","","true","<div class = centerbox><div  id = stim2></div></div>","32","32","750","","test","go","295","adv","","",""
"","322","32","1394","0","test_block","poldrack-single-stim","310","430181","0.0-5.0-296.0","go-nogo","true","0","","true","<div class = centerbox><div  id = stim2></div></div>","32","32","750","","test","go","296","adv","","",""
"","317","32","1407","0","test_block","poldrack-single-stim","311","431639","0.0-5.0-297.0","go-nogo","true","0","","true","<div class = centerbox><div  id = stim2></div></div>","32","32","750","","test","go","297","adv","","",""
"","316","32","1190","0","test_block","poldrack-single-stim","312","432847","0.0-5.0-298.0","go-nogo","true","0","","true","<div class = centerbox><div  id = stim2></div></div>","32","32","750","","test","go","298","adv","","",""
"","274","32","1494","0","test_block","poldrack-single-stim","313","434374","0.0-5.0-299.0","go-nogo","true","0","","true","<div class = centerbox><div  id = stim2></div></div>","32","32","750","","test","go","299","adv","","",""
"","289","32","1002","0","test_block","poldrack-single-stim","314","435401","0.0-5.0-300.0","go-nogo","true","0","","true","<div class = centerbox><div  id = stim2></div></div>","32","32","750","","test","go","300","adv","","",""
"","444","32","1370","0","test_block","poldrack-single-stim","315","436799","0.0-5.0-301.0","go-nogo","true","0","","true","<div class = centerbox><div  id = stim2></div></div>","32","32","750","","test","go","301","adv","","",""
"","287","32","1081","0","test_block","poldrack-single-stim","316","437902","0.0-5.0-302.0","go-nogo","true","0","","true","<div class = centerbox><div  id = stim2></div></div>","32","32","750","","test","go","302","adv","","",""
"","369","32","1394","0","test_block","poldrack-single-stim","317","439355","0.0-5.0-303.0","go-nogo","true","0","","true","<div class = centerbox><div  id = stim2></div></div>","32","32","750","","test","go","303","adv","","",""
"","333","32","1286","0","test_block","poldrack-single-stim","318","440658","0.0-5.0-304.0","go-nogo","true","0","","true","<div class = centerbox><div  id = stim2></div></div>","32","32","750","","test","go","304","adv","","",""
"","-1","-1","1119","0","test_block","poldrack-single-stim","319","441797","0.0-5.0-305.0","go-nogo","true","0","","true","<div class = centerbox><div  id = stim1></div></div>","-1","32","750","","test","nogo","305","adv","","",""
"","428","32","1011","0","test_block","poldrack-single-stim","320","442856","0.0-5.0-306.0","go-nogo","true","0","","true","<div class = centerbox><div  id = stim2></div></div>","32","32","750","","test","go","306","adv","","",""
"","318","32","1098","0","test_block","poldrack-single-stim","321","444008","0.0-5.0-307.0","go-nogo","true","0","","true","<div class = centerbox><div  id = stim2></div></div>","32","32","750","","test","go","307","adv","","",""
"","287","32","1188","0","test_block","poldrack-single-stim","322","445246","0.0-5.0-308.0","go-nogo","true","0","","true","<div class = centerbox><div  id = stim2></div></div>","32","32","750","","test","go","308","adv","","",""
"","289","32","1120","0","test_block","poldrack-single-stim","323","446397","0.0-5.0-309.0","go-nogo","true","0","","true","<div class = centerbox><div  id = stim2></div></div>","32","32","750","","test","go","309","adv","","",""
"","274","32","1264","0","test_block","poldrack-single-stim","324","447702","0.0-5.0-310.0","go-nogo","true","0","","true","<div class = centerbox><div  id = stim2></div></div>","32","32","750","","test","go","310","adv","","",""
"","313","32","1437","0","test_block","poldrack-single-stim","325","449189","0.0-5.0-311.0","go-nogo","true","0","","true","<div class = centerbox><div  id = stim2></div></div>","32","32","750","","test","go","311","adv","","",""
"","304","32","1193","0","test_block","poldrack-single-stim","326","450429","0.0-5.0-312.0","go-nogo","true","0","","true","<div class = centerbox><div  id = stim2></div></div>","32","32","750","","test","go","312","adv","","",""
"","319","32","1330","0","test_block","poldrack-single-stim","327","451778","0.0-5.0-313.0","go-nogo","true","0","","true","<div class = centerbox><div  id = stim2></div></div>","32","32","750","","test","go","313","adv","","",""
"","286","32","1028","0","test_block","poldrack-single-stim","328","452856","0.0-5.0-314.0","go-nogo","true","0","","true","<div class = centerbox><div  id = stim2></div></div>","32","32","750","","test","go","314","adv","","",""
"","313","32","1054","0","test_block","poldrack-single-stim","329","453965","0.0-5.0-315.0","go-nogo","true","0","","true","<div class = centerbox><div  id = stim2></div></div>","32","32","750","","test","go","315","adv","","",""
"","277","32","1324","0","test_block","poldrack-single-stim","330","455337","0.0-5.0-316.0","go-nogo","true","0","","true","<div class = centerbox><div  id = stim2></div></div>","32","32","750","","test","go","316","adv","","",""
"","294","32","1237","0","test_block","poldrack-single-stim","331","456596","0.0-5.0-317.0","go-nogo","true","0","","true","<div class = centerbox><div  id = stim2></div></div>","32","32","750","","test","go","317","adv","","",""
"","285","32","1090","0","test_block","poldrack-single-stim","332","457731","0.0-5.0-318.0","go-nogo","true","0","","true","<div class = centerbox><div  id = stim2></div></div>","32","32","750","","test","go","318","adv","","",""
"","305","32","1397","0","test_block","poldrack-single-stim","333","459160","0.0-5.0-319.0","go-nogo","true","0","","true","<div class = centerbox><div  id = stim2></div></div>","32","32","750","","test","go","319","adv","","",""
"","284","32","1290","0","test_block","poldrack-single-stim","334","460507","0.0-5.0-320.0","go-nogo","true","0","","true","<div class = centerbox><div  id = stim2></div></div>","32","32","750","","test","go","320","adv","","",""
"","323","32","1311","0","test_block","poldrack-single-stim","335","461864","0.0-5.0-321.0","go-nogo","true","0","","true","<div class = centerbox><div  id = stim2></div></div>","32","32","750","","test","go","321","adv","","",""
"","325","32","1037","0","test_block","poldrack-single-stim","336","462937","0.0-5.0-322.0","go-nogo","true","0","","true","<div class = centerbox><div  id = stim2></div></div>","32","32","750","","test","go","322","adv","","",""
"","306","32","1052","0","test_block","poldrack-single-stim","337","464008","0.0-5.0-323.0","go-nogo","true","0","","true","<div class = centerbox><div  id = stim2></div></div>","32","32","750","","test","go","323","adv","","",""
"","308","32","1047","0","test_block","poldrack-single-stim","338","465093","0.0-5.0-324.0","go-nogo","true","0","","true","<div class = centerbox><div  id = stim2></div></div>","32","32","750","","test","go","324","adv","","",""
"","312","32","1094","0","test_block","poldrack-single-stim","339","466238","0.0-5.0-325.0","go-nogo","true","0","","true","<div class = centerbox><div  id = stim2></div></div>","32","32","750","","test","go","325","adv","","",""
"","-1","-1","1263","0","test_block","poldrack-single-stim","340","467540","0.0-5.0-326.0","go-nogo","true","0","","true","<div class = centerbox><div  id = stim1></div></div>","-1","32","750","","test","nogo","326","adv","","",""
"","316","32","1076","0","test_block","poldrack-single-stim","341","468661","0.0-5.0-327.0","go-nogo","true","0","","true","<div class = centerbox><div  id = stim2></div></div>","32","32","750","","test","go","327","adv","","",""
"","288","32","1487","0","test_block","poldrack-single-stim","342","470169","0.0-5.0-328.0","go-nogo","true","0","","true","<div class = centerbox><div  id = stim2></div></div>","32","32","750","","test","go","328","adv","","",""
"","293","32","1150","0","test_block","poldrack-single-stim","343","471387","0.0-5.0-329.0","go-nogo","true","0","","true","<div class = centerbox><div  id = stim2></div></div>","32","32","750","","test","go","329","adv","","",""
"","292","32","1076","0","test_block","poldrack-single-stim","344","472513","0.0-5.0-330.0","go-nogo","true","0","","true","<div class = centerbox><div  id = stim2></div></div>","32","32","750","","test","go","330","adv","","",""
"","537","32","1052","0","test_block","poldrack-single-stim","345","473586","0.0-5.0-331.0","go-nogo","true","0","","true","<div class = centerbox><div  id = stim2></div></div>","32","32","750","","test","go","331","adv","","",""
"","504","32","1205","0","test_block","poldrack-single-stim","346","474829","0.0-5.0-332.0","go-nogo","true","0","","true","<div class = centerbox><div  id = stim2></div></div>","32","32","750","","test","go","332","adv","","",""
"","295","32","1474","0","test_block","poldrack-single-stim","347","476346","0.0-5.0-333.0","go-nogo","true","0","","true","<div class = centerbox><div  id = stim2></div></div>","32","32","750","","test","go","333","adv","","",""
"","334","32","1323","0","test_block","poldrack-single-stim","348","477705","0.0-5.0-334.0","go-nogo","true","0","","true","<div class = centerbox><div  id = stim2></div></div>","32","32","750","","test","go","334","adv","","",""
"","-1","-1","1363","0","test_block","poldrack-single-stim","349","479096","0.0-5.0-335.0","go-nogo","true","0","","true","<div class = centerbox><div  id = stim1></div></div>","-1","32","750","","test","nogo","335","adv","","",""
"","-1","-1","1193","0","test_block","poldrack-single-stim","350","480329","0.0-5.0-336.0","go-nogo","true","0","","true","<div class = centerbox><div  id = stim1></div></div>","-1","32","750","","test","nogo","336","adv","","",""
"","-1","-1","1400","0","test_block","poldrack-single-stim","351","481758","0.0-5.0-337.0","go-nogo","true","0","","true","<div class = centerbox><div  id = stim1></div></div>","-1","32","750","","test","nogo","337","adv","","",""
"","-1","-1","1125","0","test_block","poldrack-single-stim","352","482913","0.0-5.0-338.0","go-nogo","true","0","","true","<div class = centerbox><div  id = stim1></div></div>","-1","32","750","","test","nogo","338","adv","","",""
"","-1","-1","1373","0","test_block","poldrack-single-stim","353","484310","0.0-5.0-339.0","go-nogo","true","0","","true","<div class = centerbox><div  id = stim1></div></div>","-1","32","750","","test","nogo","339","adv","","",""
"","-1","-1","1139","0","test_block","poldrack-single-stim","354","485493","0.0-5.0-340.0","go-nogo","true","0","","true","<div class = centerbox><div  id = stim1></div></div>","-1","32","750","","test","nogo","340","adv","","",""
"","-1","-1","1103","0","test_block","poldrack-single-stim","355","486651","0.0-5.0-341.0","go-nogo","true","0","","true","<div class = centerbox><div  id = stim1></div></div>","-1","32","750","","test","nogo","341","adv","","",""
"","-1","-1","1241","0","test_block","poldrack-single-stim","356","487919","0.0-5.0-342.0","go-nogo","true","0","","true","<div class = centerbox><div  id = stim1></div></div>","-1","32","750","","test","nogo","342","adv","","",""
"","-1","-1","1180","0","test_block","poldrack-single-stim","357","489129","0.0-5.0-343.0","go-nogo","true","0","","true","<div class = centerbox><div  id = stim1></div></div>","-1","32","750","","test","nogo","343","adv","","",""
"","-1","-1","1398","0","test_block","poldrack-single-stim","358","490555","0.0-5.0-344.0","go-nogo","true","0","","true","<div class = centerbox><div  id = stim1></div></div>","-1","32","750","","test","nogo","344","adv","","",""
"","-1","-1","1297","0","test_block","poldrack-single-stim","359","491870","0.0-5.0-345.0","go-nogo","true","0","","true","<div class = centerbox><div  id = stim1></div></div>","-1","32","750","","test","nogo","345","adv","","",""
"","-1","-1","1024","0","test_block","poldrack-single-stim","360","492937","0.0-5.0-346.0","go-nogo","true","0","","true","<div class = centerbox><div  id = stim1></div></div>","-1","32","750","","test","nogo","346","adv","","",""
"","-1","-1","1314","0","test_block","poldrack-single-stim","361","494301","0.0-5.0-347.0","go-nogo","true","0","","true","<div class = centerbox><div  id = stim1></div></div>","-1","32","750","","test","nogo","347","adv","","",""
"","-1","-1","1457","0","test_block","poldrack-single-stim","362","495797","0.0-5.0-348.0","go-nogo","true","0","","true","<div class = centerbox><div  id = stim1></div></div>","-1","32","750","","test","nogo","348","adv","","",""
"","-1","-1","1026","0","test_block","poldrack-single-stim","363","496876","0.0-5.0-349.0","go-nogo","true","0","","true","<div class = centerbox><div  id = stim1></div></div>","-1","32","750","","test","nogo","349","adv","","",""
"","44685","","","","post task questions","survey-text","364","541586","0.0-7.0","go-nogo","true","1","","","","","","","","","","","","{""Q0"":""I was asked to press the spacebar with a blue square and to NOT press the spacebar with an orange square."",""Q1"":""Thanks for the opportunity to participate and good luck with your research!""}","",""
"<div class = centerbox><p class = center-block-text>Thanks for completing this task!</p><p class = center-block-text>Insert the following code to collect your payment at Amazon Mechanical Turk:</p><p class = center-block-text>631880317</p><p class = center-block-text>Press <strong>enter</strong> to continue.</p></div>","21339","13","21339","0","end","poldrack-text","365","563928","0.0-8.0","go-nogo","true","2","","","","","","","","","","","","","631880317","true"
