"text","rt","key_press","block_duration","timing_post_trial","trial_id","trial_type","trial_index","time_elapsed","internal_node_id","exp_id","full_screen","focus_shifts","view_history","correct","stimulus","correct_response","possible_responses","stim_duration","feedback_duration","exp_stage","condition","trial_num","mode","responses","payment_id","credit_var"
"<div class = centerbox><p class = center-block-text>Welcome to the experiment. This task will take around 10 minutes. Press <strong>enter</strong> to begin.</p></div>","1574","13","1574","0","instruction","poldrack-text","0","1581","0.0-0.0-0.0","go-nogo","true","0","","","","","","","","","","","","","",""
"","4145","","","","instruction","poldrack-instructions","1","5729","0.0-0.0-1.0","go-nogo","true","0","[{""page_index"":0,""viewing_time"":4144}]","","","","","","","","","","","","",""
"","-1","-1","1204","250","practice","poldrack-categorize","2","8944","0.0-1.0-0.0","go-nogo","true","0","","true","<div class = centerbox><div id = stim1></div></div>","-1","32","750","1000","practice","nogo","0","adv","","",""
"","-1","-1","1403","250","practice","poldrack-categorize","3","11602","0.0-1.0-1.0","go-nogo","true","0","","false","<div class = centerbox><div  id = stim2></div></div>","32","32","750","1000","practice","go","1","adv","","",""
"","-1","-1","1422","250","practice","poldrack-categorize","4","14278","0.0-1.0-2.0","go-nogo","true","0","","true","<div class = centerbox><div id = stim1></div></div>","-1","32","750","1000","practice","nogo","2","adv","","",""
"","-1","-1","1260","250","practice","poldrack-categorize","5","16791","0.0-1.0-3.0","go-nogo","true","0","","true","<div class = centerbox><div id = stim1></div></div>","-1","32","750","1000","practice","nogo","3","adv","","",""
"","-1","-1","1115","250","practice","poldrack-categorize","6","19159","0.0-1.0-4.0","go-nogo","true","0","","true","<div class = centerbox><div id = stim1></div></div>","-1","32","750","1000","practice","nogo","4","adv","","",""
"","598","32","1049","250","practice","poldrack-categorize","7","21468","0.0-1.0-5.0","go-nogo","true","0","","true","<div class = centerbox><div  id = stim2></div></div>","32","32","750","1000","practice","go","5","adv","","",""
"","497","32","1338","250","practice","poldrack-categorize","8","24059","0.0-1.0-6.0","go-nogo","true","0","","true","<div class = centerbox><div  id = stim2></div></div>","32","32","750","1000","practice","go","6","adv","","",""
"","-1","-1","1307","250","practice","poldrack-categorize","9","26620","0.0-1.0-7.0","go-nogo","true","0","","true","<div class = centerbox><div id = stim1></div></div>","-1","32","750","1000","practice","nogo","7","adv","","",""
"","656","32","1362","250","practice","poldrack-categorize","10","29235","0.0-1.0-8.0","go-nogo","true","0","","true","<div class = centerbox><div  id = stim2></div></div>","32","32","750","1000","practice","go","8","adv","","",""
"","604","32","1272","250","practice","poldrack-categorize","11","31760","0.0-1.0-9.0","go-nogo","true","0","","true","<div class = centerbox><div  id = stim2></div></div>","32","32","750","1000","practice","go","9","adv","","",""
"","","","","","reset_trial","call-function","12","32012","0.0-3.0","go-nogo","true","0","","","","","","","","","","","","","",""
"<div class = centerbox><p class = block-text>Practice is over, we will now begin the experiment. You will no longer get feedback about your responses.</p><p class = block-text>Remember, if you see the <font color=""blue"">blue</font> square you should <strong> respond by pressing the spacebar as quickly as possible</strong>. If you see the <font color=""orange"">orange</font> square you should <strong> not respond</strong>. Press <strong>enter</strong> to begin.</p></div>","4715","13","4715","1000","test_intro","poldrack-text","13","36730","0.0-4.0","go-nogo","true","0","","","","","","","","","","","","","",""
"","948","32","1366","0","test_block","poldrack-single-stim","14","39100","0.0-5.0-0.0","go-nogo","true","0","","true","<div class = centerbox><div  id = stim2></div></div>","32","32","750","","test","go","0","adv","","",""
"","329","32","1212","0","test_block","poldrack-single-stim","15","40380","0.0-5.0-1.0","go-nogo","true","0","","true","<div class = centerbox><div  id = stim2></div></div>","32","32","750","","test","go","1","adv","","",""
"","501","32","1289","0","test_block","poldrack-single-stim","16","41708","0.0-5.0-2.0","go-nogo","true","0","","true","<div class = centerbox><div  id = stim2></div></div>","32","32","750","","test","go","2","adv","","",""
"","160","32","1000","0","test_block","poldrack-single-stim","17","42722","0.0-5.0-3.0","go-nogo","true","0","","true","<div class = centerbox><div  id = stim2></div></div>","32","32","750","","test","go","3","adv","","",""
"","206","32","1087","0","test_block","poldrack-single-stim","18","43850","0.0-5.0-4.0","go-nogo","true","0","","true","<div class = centerbox><div  id = stim2></div></div>","32","32","750","","test","go","4","adv","","",""
"","452","32","1259","0","test_block","poldrack-single-stim","19","45151","0.0-5.0-5.0","go-nogo","true","0","","true","<div class = centerbox><div  id = stim2></div></div>","32","32","750","","test","go","5","adv","","",""
"","334","32","1232","0","test_block","poldrack-single-stim","20","46394","0.0-5.0-6.0","go-nogo","true","0","","true","<div class = centerbox><div  id = stim2></div></div>","32","32","750","","test","go","6","adv","","",""
"","115","32","1221","0","test_block","poldrack-single-stim","21","47643","0.0-5.0-7.0","go-nogo","true","0","","true","<div class = centerbox><div  id = stim2></div></div>","32","32","750","","test","go","7","adv","","",""
"","71","32","1453","0","test_block","poldrack-single-stim","22","49119","0.0-5.0-8.0","go-nogo","true","0","","true","<div class = centerbox><div  id = stim2></div></div>","32","32","750","","test","go","8","adv","","",""
"","77","32","1208","0","test_block","poldrack-single-stim","23","50339","0.0-5.0-9.0","go-nogo","true","0","","true","<div class = centerbox><div  id = stim2></div></div>","32","32","750","","test","go","9","adv","","",""
"","43","32","1274","0","test_block","poldrack-single-stim","24","51623","0.0-5.0-10.0","go-nogo","true","0","","true","<div class = centerbox><div  id = stim2></div></div>","32","32","750","","test","go","10","adv","","",""
"","1040","32","1370","0","test_block","poldrack-single-stim","25","53026","0.0-5.0-11.0","go-nogo","true","0","","true","<div class = centerbox><div  id = stim2></div></div>","32","32","750","","test","go","11","adv","","",""
"","1019","32","1057","0","test_block","poldrack-single-stim","26","54096","0.0-5.0-12.0","go-nogo","true","0","","true","<div class = centerbox><div  id = stim2></div></div>","32","32","750","","test","go","12","adv","","",""
"","1170","32","1396","0","test_block","poldrack-single-stim","27","55514","0.0-5.0-13.0","go-nogo","true","0","","true","<div class = centerbox><div  id = stim2></div></div>","32","32","750","","test","go","13","adv","","",""
"","1362","32","1482","0","test_block","poldrack-single-stim","28","57024","0.0-5.0-14.0","go-nogo","true","0","","true","<div class = centerbox><div  id = stim2></div></div>","32","32","750","","test","go","14","adv","","",""
"","959","32","1142","0","test_block","poldrack-single-stim","29","58192","0.0-5.0-15.0","go-nogo","true","0","","true","<div class = centerbox><div  id = stim2></div></div>","32","32","750","","test","go","15","adv","","",""
"","1012","32","1276","0","test_block","poldrack-single-stim","30","59489","0.0-5.0-16.0","go-nogo","true","0","","true","<div class = centerbox><div  id = stim2></div></div>","32","32","750","","test","go","16","adv","","",""
"","526","32","1301","0","test_block","poldrack-single-stim","31","60799","0.0-5.0-17.0","go-nogo","true","0","","true","<div class = centerbox><div  id = stim2></div></div>","32","32","750","","test","go","17","adv","","",""
"","180","32","1450","0","test_block","poldrack-single-stim","32","62271","0.0-5.0-18.0","go-nogo","true","0","","true","<div class = centerbox><div  id = stim2></div></div>","32","32","750","","test","go","18","adv","","",""
"","-1","-1","1246","0","test_block","poldrack-single-stim","33","63538","0.0-5.0-19.0","go-nogo","true","0","","false","<div class = centerbox><div  id = stim2></div></div>","32","32","750","","test","go","19","adv","","",""
"","272","32","1020","0","test_block","poldrack-single-stim","34","64565","0.0-5.0-20.0","go-nogo","true","0","","true","<div class = centerbox><div  id = stim2></div></div>","32","32","750","","test","go","20","adv","","",""
"","-1","-1","1369","0","test_block","poldrack-single-stim","35","65957","0.0-5.0-21.0","go-nogo","true","0","","true","<div class = centerbox><div  id = stim1></div></div>","-1","32","750","","test","nogo","21","adv","","",""
"","-1","-1","1318","0","test_block","poldrack-single-stim","36","67290","0.0-5.0-22.0","go-nogo","true","0","","false","<div class = centerbox><div  id = stim2></div></div>","32","32","750","","test","go","22","adv","","",""
"","-1","-1","1060","0","test_block","poldrack-single-stim","37","68370","0.0-5.0-23.0","go-nogo","true","0","","false","<div class = centerbox><div  id = stim2></div></div>","32","32","750","","test","go","23","adv","","",""
"","-1","-1","1488","0","test_block","poldrack-single-stim","38","69879","0.0-5.0-24.0","go-nogo","true","0","","false","<div class = centerbox><div  id = stim2></div></div>","32","32","750","","test","go","24","adv","","",""
"","1005","32","1027","0","test_block","poldrack-single-stim","39","70925","0.0-5.0-25.0","go-nogo","true","0","","true","<div class = centerbox><div  id = stim2></div></div>","32","32","750","","test","go","25","adv","","",""
"","-1","-1","1240","0","test_block","poldrack-single-stim","40","72179","0.0-5.0-26.0","go-nogo","true","0","","true","<div class = centerbox><div  id = stim1></div></div>","-1","32","750","","test","nogo","26","adv","","",""
"","513","32","1316","0","test_block","poldrack-single-stim","41","73515","0.0-5.0-27.0","go-nogo","true","0","","true","<div class = centerbox><div  id = stim2></div></div>","32","32","750","","test","go","27","adv","","",""
"","116","32","1454","0","test_block","poldrack-single-stim","42","74980","0.0-5.0-28.0","go-nogo","true","0","","false","<div class = centerbox><div  id = stim1></div></div>","-1","32","750","","test","nogo","28","adv","","",""
"","-1","-1","1437","0","test_block","poldrack-single-stim","43","76435","0.0-5.0-29.0","go-nogo","true","0","","true","<div class = centerbox><div  id = stim1></div></div>","-1","32","750","","test","nogo","29","adv","","",""
"","493","32","1391","0","test_block","poldrack-single-stim","44","77837","0.0-5.0-30.0","go-nogo","true","0","","true","<div class = centerbox><div  id = stim2></div></div>","32","32","750","","test","go","30","adv","","",""
"","402","32","1486","0","test_block","poldrack-single-stim","45","79348","0.0-5.0-31.0","go-nogo","true","0","","true","<div class = centerbox><div  id = stim2></div></div>","32","32","750","","test","go","31","adv","","",""
"","417","32","1409","0","test_block","poldrack-single-stim","46","80776","0.0-5.0-32.0","go-nogo","true","0","","true","<div class = centerbox><div  id = stim2></div></div>","32","32","750","","test","go","32","adv","","",""
"","317","32","1418","0","test_block","poldrack-single-stim","47","82213","0.0-5.0-33.0","go-nogo","true","0","","true","<div class = centerbox><div  id = stim2></div></div>","32","32","750","","test","go","33","adv","","",""
"","347","32","1121","0","test_block","poldrack-single-stim","48","83359","0.0-5.0-34.0","go-nogo","true","0","","true","<div class = centerbox><div  id = stim2></div></div>","32","32","750","","test","go","34","adv","","",""
"","247","32","1359","0","test_block","poldrack-single-stim","49","84738","0.0-5.0-35.0","go-nogo","true","0","","true","<div class = centerbox><div  id = stim2></div></div>","32","32","750","","test","go","35","adv","","",""
"","672","32","1192","0","test_block","poldrack-single-stim","50","85953","0.0-5.0-36.0","go-nogo","true","0","","true","<div class = centerbox><div  id = stim2></div></div>","32","32","750","","test","go","36","adv","","",""
"","638","32","1130","0","test_block","poldrack-single-stim","51","87093","0.0-5.0-37.0","go-nogo","true","0","","true","<div class = centerbox><div  id = stim2></div></div>","32","32","750","","test","go","37","adv","","",""
"","711","32","1197","0","test_block","poldrack-single-stim","52","88319","0.0-5.0-38.0","go-nogo","true","0","","true","<div class = centerbox><div  id = stim2></div></div>","32","32","750","","test","go","38","adv","","",""
"","535","32","1239","0","test_block","poldrack-single-stim","53","89580","0.0-5.0-39.0","go-nogo","true","0","","true","<div class = centerbox><div  id = stim2></div></div>","32","32","750","","test","go","39","adv","","",""
"","501","32","1029","0","test_block","poldrack-single-stim","54","90615","0.0-5.0-40.0","go-nogo","true","0","","true","<div class = centerbox><div  id = stim2></div></div>","32","32","750","","test","go","40","adv","","",""
"","528","32","1080","0","test_block","poldrack-single-stim","55","91713","0.0-5.0-41.0","go-nogo","true","0","","true","<div class = centerbox><div  id = stim2></div></div>","32","32","750","","test","go","41","adv","","",""
"","949","32","1192","0","test_block","poldrack-single-stim","56","92923","0.0-5.0-42.0","go-nogo","true","0","","true","<div class = centerbox><div  id = stim2></div></div>","32","32","750","","test","go","42","adv","","",""
"","-1","-1","1188","0","test_block","poldrack-single-stim","57","94129","0.0-5.0-43.0","go-nogo","true","0","","false","<div class = centerbox><div  id = stim2></div></div>","32","32","750","","test","go","43","adv","","",""
"","815","32","1301","0","test_block","poldrack-single-stim","58","95455","0.0-5.0-44.0","go-nogo","true","0","","true","<div class = centerbox><div  id = stim2></div></div>","32","32","750","","test","go","44","adv","","",""
"","417","32","1258","0","test_block","poldrack-single-stim","59","96722","0.0-5.0-45.0","go-nogo","true","0","","true","<div class = centerbox><div  id = stim2></div></div>","32","32","750","","test","go","45","adv","","",""
"","582","32","1196","0","test_block","poldrack-single-stim","60","97935","0.0-5.0-46.0","go-nogo","true","0","","true","<div class = centerbox><div  id = stim2></div></div>","32","32","750","","test","go","46","adv","","",""
"","528","32","1456","0","test_block","poldrack-single-stim","61","99416","0.0-5.0-47.0","go-nogo","true","0","","true","<div class = centerbox><div  id = stim2></div></div>","32","32","750","","test","go","47","adv","","",""
"","385","32","1463","0","test_block","poldrack-single-stim","62","100895","0.0-5.0-48.0","go-nogo","true","0","","true","<div class = centerbox><div  id = stim2></div></div>","32","32","750","","test","go","48","adv","","",""
"","619","32","1364","0","test_block","poldrack-single-stim","63","102275","0.0-5.0-49.0","go-nogo","true","0","","true","<div class = centerbox><div  id = stim2></div></div>","32","32","750","","test","go","49","adv","","",""
"","503","32","1445","0","test_block","poldrack-single-stim","64","103736","0.0-5.0-50.0","go-nogo","true","0","","true","<div class = centerbox><div  id = stim2></div></div>","32","32","750","","test","go","50","adv","","",""
"","403","32","1399","0","test_block","poldrack-single-stim","65","105149","0.0-5.0-51.0","go-nogo","true","0","","true","<div class = centerbox><div  id = stim2></div></div>","32","32","750","","test","go","51","adv","","",""
"","476","32","1198","0","test_block","poldrack-single-stim","66","106362","0.0-5.0-52.0","go-nogo","true","0","","true","<div class = centerbox><div  id = stim2></div></div>","32","32","750","","test","go","52","adv","","",""
"","584","32","1301","0","test_block","poldrack-single-stim","67","107668","0.0-5.0-53.0","go-nogo","true","0","","true","<div class = centerbox><div  id = stim2></div></div>","32","32","750","","test","go","53","adv","","",""
"","405","32","1259","0","test_block","poldrack-single-stim","68","108944","0.0-5.0-54.0","go-nogo","true","0","","true","<div class = centerbox><div  id = stim2></div></div>","32","32","750","","test","go","54","adv","","",""
"","339","32","1095","0","test_block","poldrack-single-stim","69","110047","0.0-5.0-55.0","go-nogo","true","0","","true","<div class = centerbox><div  id = stim2></div></div>","32","32","750","","test","go","55","adv","","",""
"","268","32","1133","0","test_block","poldrack-single-stim","70","111196","0.0-5.0-56.0","go-nogo","true","0","","true","<div class = centerbox><div  id = stim2></div></div>","32","32","750","","test","go","56","adv","","",""
"","431","32","1396","0","test_block","poldrack-single-stim","71","112607","0.0-5.0-57.0","go-nogo","true","0","","true","<div class = centerbox><div  id = stim2></div></div>","32","32","750","","test","go","57","adv","","",""
"","521","32","1402","0","test_block","poldrack-single-stim","72","114026","0.0-5.0-58.0","go-nogo","true","0","","true","<div class = centerbox><div  id = stim2></div></div>","32","32","750","","test","go","58","adv","","",""
"","422","32","1395","0","test_block","poldrack-single-stim","73","115448","0.0-5.0-59.0","go-nogo","true","0","","true","<div class = centerbox><div  id = stim2></div></div>","32","32","750","","test","go","59","adv","","",""
"","469","32","1144","0","test_block","poldrack-single-stim","74","116620","0.0-5.0-60.0","go-nogo","true","0","","true","<div class = centerbox><div  id = stim2></div></div>","32","32","750","","test","go","60","adv","","",""
"","734","32","1328","0","test_block","poldrack-single-stim","75","117963","0.0-5.0-61.0","go-nogo","true","0","","true","<div class = centerbox><div  id = stim2></div></div>","32","32","750","","test","go","61","adv","","",""
"","403","32","1073","0","test_block","poldrack-single-stim","76","119047","0.0-5.0-62.0","go-nogo","true","0","","true","<div class = centerbox><div  id = stim2></div></div>","32","32","750","","test","go","62","adv","","",""
"","717","32","1316","0","test_block","poldrack-single-stim","77","120369","0.0-5.0-63.0","go-nogo","true","0","","true","<div class = centerbox><div  id = stim2></div></div>","32","32","750","","test","go","63","adv","","",""
"","441","32","1301","0","test_block","poldrack-single-stim","78","121686","0.0-5.0-64.0","go-nogo","true","0","","true","<div class = centerbox><div  id = stim2></div></div>","32","32","750","","test","go","64","adv","","",""
"","499","32","1411","0","test_block","poldrack-single-stim","79","123112","0.0-5.0-65.0","go-nogo","true","0","","true","<div class = centerbox><div  id = stim2></div></div>","32","32","750","","test","go","65","adv","","",""
"","248","32","1437","0","test_block","poldrack-single-stim","80","124558","0.0-5.0-66.0","go-nogo","true","0","","true","<div class = centerbox><div  id = stim2></div></div>","32","32","750","","test","go","66","adv","","",""
"","989","32","1384","0","test_block","poldrack-single-stim","81","125956","0.0-5.0-67.0","go-nogo","true","0","","true","<div class = centerbox><div  id = stim2></div></div>","32","32","750","","test","go","67","adv","","",""
"","797","32","1474","0","test_block","poldrack-single-stim","82","127438","0.0-5.0-68.0","go-nogo","true","0","","true","<div class = centerbox><div  id = stim2></div></div>","32","32","750","","test","go","68","adv","","",""
"","452","32","1122","0","test_block","poldrack-single-stim","83","128584","0.0-5.0-69.0","go-nogo","true","0","","true","<div class = centerbox><div  id = stim2></div></div>","32","32","750","","test","go","69","adv","","",""
"","435","32","1093","0","test_block","poldrack-single-stim","84","129693","0.0-5.0-70.0","go-nogo","true","0","","true","<div class = centerbox><div  id = stim2></div></div>","32","32","750","","test","go","70","adv","","",""
"","670","32","1307","0","test_block","poldrack-single-stim","85","131016","0.0-5.0-71.0","go-nogo","true","0","","true","<div class = centerbox><div  id = stim2></div></div>","32","32","750","","test","go","71","adv","","",""
"","499","32","1248","0","test_block","poldrack-single-stim","86","132279","0.0-5.0-72.0","go-nogo","true","0","","true","<div class = centerbox><div  id = stim2></div></div>","32","32","750","","test","go","72","adv","","",""
"","83","32","1386","0","test_block","poldrack-single-stim","87","133681","0.0-5.0-73.0","go-nogo","true","0","","true","<div class = centerbox><div  id = stim2></div></div>","32","32","750","","test","go","73","adv","","",""
"","538","32","1272","0","test_block","poldrack-single-stim","88","134968","0.0-5.0-74.0","go-nogo","true","0","","true","<div class = centerbox><div  id = stim2></div></div>","32","32","750","","test","go","74","adv","","",""
"","404","32","1391","0","test_block","poldrack-single-stim","89","136372","0.0-5.0-75.0","go-nogo","true","0","","true","<div class = centerbox><div  id = stim2></div></div>","32","32","750","","test","go","75","adv","","",""
"","366","32","1363","0","test_block","poldrack-single-stim","90","137742","0.0-5.0-76.0","go-nogo","true","0","","true","<div class = centerbox><div  id = stim2></div></div>","32","32","750","","test","go","76","adv","","",""
"","381","32","1467","0","test_block","poldrack-single-stim","91","139223","0.0-5.0-77.0","go-nogo","true","0","","true","<div class = centerbox><div  id = stim2></div></div>","32","32","750","","test","go","77","adv","","",""
"","428","32","1343","0","test_block","poldrack-single-stim","92","140573","0.0-5.0-78.0","go-nogo","true","0","","true","<div class = centerbox><div  id = stim2></div></div>","32","32","750","","test","go","78","adv","","",""
"","366","32","1485","0","test_block","poldrack-single-stim","93","142072","0.0-5.0-79.0","go-nogo","true","0","","true","<div class = centerbox><div  id = stim2></div></div>","32","32","750","","test","go","79","adv","","",""
"","156","32","1317","0","test_block","poldrack-single-stim","94","143410","0.0-5.0-80.0","go-nogo","true","0","","true","<div class = centerbox><div  id = stim2></div></div>","32","32","750","","test","go","80","adv","","",""
"","481","32","1260","0","test_block","poldrack-single-stim","95","144676","0.0-5.0-81.0","go-nogo","true","0","","true","<div class = centerbox><div  id = stim2></div></div>","32","32","750","","test","go","81","adv","","",""
"","-1","-1","1068","0","test_block","poldrack-single-stim","96","145759","0.0-5.0-82.0","go-nogo","true","0","","false","<div class = centerbox><div  id = stim2></div></div>","32","32","750","","test","go","82","adv","","",""
"","-1","-1","1263","0","test_block","poldrack-single-stim","97","147036","0.0-5.0-83.0","go-nogo","true","0","","false","<div class = centerbox><div  id = stim2></div></div>","32","32","750","","test","go","83","adv","","",""
"","173","32","1050","0","test_block","poldrack-single-stim","98","148102","0.0-5.0-84.0","go-nogo","true","0","","true","<div class = centerbox><div  id = stim2></div></div>","32","32","750","","test","go","84","adv","","",""
"","469","32","1159","0","test_block","poldrack-single-stim","99","149276","0.0-5.0-85.0","go-nogo","true","0","","false","<div class = centerbox><div  id = stim1></div></div>","-1","32","750","","test","nogo","85","adv","","",""
"","-1","-1","1052","0","test_block","poldrack-single-stim","100","150342","0.0-5.0-86.0","go-nogo","true","0","","true","<div class = centerbox><div  id = stim1></div></div>","-1","32","750","","test","nogo","86","adv","","",""
"","590","32","1232","0","test_block","poldrack-single-stim","101","151580","0.0-5.0-87.0","go-nogo","true","0","","true","<div class = centerbox><div  id = stim2></div></div>","32","32","750","","test","go","87","adv","","",""
"","511","32","1276","0","test_block","poldrack-single-stim","102","152870","0.0-5.0-88.0","go-nogo","true","0","","true","<div class = centerbox><div  id = stim2></div></div>","32","32","750","","test","go","88","adv","","",""
"","482","32","1286","0","test_block","poldrack-single-stim","103","154173","0.0-5.0-89.0","go-nogo","true","0","","true","<div class = centerbox><div  id = stim2></div></div>","32","32","750","","test","go","89","adv","","",""
"","477","32","1129","0","test_block","poldrack-single-stim","104","155318","0.0-5.0-90.0","go-nogo","true","0","","true","<div class = centerbox><div  id = stim2></div></div>","32","32","750","","test","go","90","adv","","",""
"","413","32","1003","0","test_block","poldrack-single-stim","105","156343","0.0-5.0-91.0","go-nogo","true","0","","true","<div class = centerbox><div  id = stim2></div></div>","32","32","750","","test","go","91","adv","","",""
"","371","32","1214","0","test_block","poldrack-single-stim","106","157572","0.0-5.0-92.0","go-nogo","true","0","","true","<div class = centerbox><div  id = stim2></div></div>","32","32","750","","test","go","92","adv","","",""
"","256","32","1044","0","test_block","poldrack-single-stim","107","158621","0.0-5.0-93.0","go-nogo","true","0","","true","<div class = centerbox><div  id = stim2></div></div>","32","32","750","","test","go","93","adv","","",""
"","141","32","1106","0","test_block","poldrack-single-stim","108","159742","0.0-5.0-94.0","go-nogo","true","0","","true","<div class = centerbox><div  id = stim2></div></div>","32","32","750","","test","go","94","adv","","",""
"","852","32","1024","0","test_block","poldrack-single-stim","109","160772","0.0-5.0-95.0","go-nogo","true","0","","true","<div class = centerbox><div  id = stim2></div></div>","32","32","750","","test","go","95","adv","","",""
"","414","32","1067","0","test_block","poldrack-single-stim","110","161845","0.0-5.0-96.0","go-nogo","true","0","","true","<div class = centerbox><div  id = stim2></div></div>","32","32","750","","test","go","96","adv","","",""
"","371","32","1451","0","test_block","poldrack-single-stim","111","163312","0.0-5.0-97.0","go-nogo","true","0","","true","<div class = centerbox><div  id = stim2></div></div>","32","32","750","","test","go","97","adv","","",""
"","108","32","1244","0","test_block","poldrack-single-stim","112","164570","0.0-5.0-98.0","go-nogo","true","0","","true","<div class = centerbox><div  id = stim2></div></div>","32","32","750","","test","go","98","adv","","",""
"","384","32","1331","0","test_block","poldrack-single-stim","113","165915","0.0-5.0-99.0","go-nogo","true","0","","true","<div class = centerbox><div  id = stim2></div></div>","32","32","750","","test","go","99","adv","","",""
"","415","32","1394","0","test_block","poldrack-single-stim","114","167324","0.0-5.0-100.0","go-nogo","true","0","","true","<div class = centerbox><div  id = stim2></div></div>","32","32","750","","test","go","100","adv","","",""
"","366","32","1163","0","test_block","poldrack-single-stim","115","168502","0.0-5.0-101.0","go-nogo","true","0","","true","<div class = centerbox><div  id = stim2></div></div>","32","32","750","","test","go","101","adv","","",""
"","382","32","1136","0","test_block","poldrack-single-stim","116","169642","0.0-5.0-102.0","go-nogo","true","0","","true","<div class = centerbox><div  id = stim2></div></div>","32","32","750","","test","go","102","adv","","",""
"","1424","32","1438","0","test_block","poldrack-single-stim","117","171096","0.0-5.0-103.0","go-nogo","true","0","","true","<div class = centerbox><div  id = stim2></div></div>","32","32","750","","test","go","103","adv","","",""
"","531","32","1100","0","test_block","poldrack-single-stim","118","172210","0.0-5.0-104.0","go-nogo","true","0","","true","<div class = centerbox><div  id = stim2></div></div>","32","32","750","","test","go","104","adv","","",""
"","457","32","1490","0","test_block","poldrack-single-stim","119","173714","0.0-5.0-105.0","go-nogo","true","0","","true","<div class = centerbox><div  id = stim2></div></div>","32","32","750","","test","go","105","adv","","",""
"","218","32","1106","0","test_block","poldrack-single-stim","120","174836","0.0-5.0-106.0","go-nogo","true","0","","true","<div class = centerbox><div  id = stim2></div></div>","32","32","750","","test","go","106","adv","","",""
"","405","32","1081","0","test_block","poldrack-single-stim","121","175932","0.0-5.0-107.0","go-nogo","true","0","","true","<div class = centerbox><div  id = stim2></div></div>","32","32","750","","test","go","107","adv","","",""
"","478","32","1177","0","test_block","poldrack-single-stim","122","177124","0.0-5.0-108.0","go-nogo","true","0","","true","<div class = centerbox><div  id = stim2></div></div>","32","32","750","","test","go","108","adv","","",""
"","1294","32","1297","0","test_block","poldrack-single-stim","123","178427","0.0-5.0-109.0","go-nogo","true","0","","true","<div class = centerbox><div  id = stim2></div></div>","32","32","750","","test","go","109","adv","","",""
"","678","32","1301","0","test_block","poldrack-single-stim","124","179751","0.0-5.0-110.0","go-nogo","true","0","","true","<div class = centerbox><div  id = stim2></div></div>","32","32","750","","test","go","110","adv","","",""
"","450","32","1466","0","test_block","poldrack-single-stim","125","181233","0.0-5.0-111.0","go-nogo","true","0","","true","<div class = centerbox><div  id = stim2></div></div>","32","32","750","","test","go","111","adv","","",""
"","77","32","1173","0","test_block","poldrack-single-stim","126","182435","0.0-5.0-112.0","go-nogo","true","0","","true","<div class = centerbox><div  id = stim2></div></div>","32","32","750","","test","go","112","adv","","",""
"","462","32","1009","0","test_block","poldrack-single-stim","127","183469","0.0-5.0-113.0","go-nogo","true","0","","true","<div class = centerbox><div  id = stim2></div></div>","32","32","750","","test","go","113","adv","","",""
"","260","32","1448","0","test_block","poldrack-single-stim","128","184922","0.0-5.0-114.0","go-nogo","true","0","","true","<div class = centerbox><div  id = stim2></div></div>","32","32","750","","test","go","114","adv","","",""
"","243","32","1160","0","test_block","poldrack-single-stim","129","186097","0.0-5.0-115.0","go-nogo","true","0","","true","<div class = centerbox><div  id = stim2></div></div>","32","32","750","","test","go","115","adv","","",""
"","119","32","1459","0","test_block","poldrack-single-stim","130","187571","0.0-5.0-116.0","go-nogo","true","0","","true","<div class = centerbox><div  id = stim2></div></div>","32","32","750","","test","go","116","adv","","",""
"","448","32","1241","0","test_block","poldrack-single-stim","131","188818","0.0-5.0-117.0","go-nogo","true","0","","true","<div class = centerbox><div  id = stim2></div></div>","32","32","750","","test","go","117","adv","","",""
"","-1","-1","1047","0","test_block","poldrack-single-stim","132","189884","0.0-5.0-118.0","go-nogo","true","0","","false","<div class = centerbox><div  id = stim2></div></div>","32","32","750","","test","go","118","adv","","",""
"","1315","32","1391","0","test_block","poldrack-single-stim","133","191300","0.0-5.0-119.0","go-nogo","true","0","","true","<div class = centerbox><div  id = stim2></div></div>","32","32","750","","test","go","119","adv","","",""
"","-1","-1","1183","0","test_block","poldrack-single-stim","134","192499","0.0-5.0-120.0","go-nogo","true","0","","true","<div class = centerbox><div  id = stim1></div></div>","-1","32","750","","test","nogo","120","adv","","",""
"","760","32","1025","0","test_block","poldrack-single-stim","135","193536","0.0-5.0-121.0","go-nogo","true","0","","true","<div class = centerbox><div  id = stim2></div></div>","32","32","750","","test","go","121","adv","","",""
"","561","32","1367","0","test_block","poldrack-single-stim","136","194910","0.0-5.0-122.0","go-nogo","true","0","","true","<div class = centerbox><div  id = stim2></div></div>","32","32","750","","test","go","122","adv","","",""
"","444","32","1000","0","test_block","poldrack-single-stim","137","195925","0.0-5.0-123.0","go-nogo","true","0","","true","<div class = centerbox><div  id = stim2></div></div>","32","32","750","","test","go","123","adv","","",""
"","562","32","1129","0","test_block","poldrack-single-stim","138","197070","0.0-5.0-124.0","go-nogo","true","0","","true","<div class = centerbox><div  id = stim2></div></div>","32","32","750","","test","go","124","adv","","",""
"","491","32","1250","0","test_block","poldrack-single-stim","139","198335","0.0-5.0-125.0","go-nogo","true","0","","true","<div class = centerbox><div  id = stim2></div></div>","32","32","750","","test","go","125","adv","","",""
"","412","32","1457","0","test_block","poldrack-single-stim","140","199806","0.0-5.0-126.0","go-nogo","true","0","","true","<div class = centerbox><div  id = stim2></div></div>","32","32","750","","test","go","126","adv","","",""
"","760","32","1467","0","test_block","poldrack-single-stim","141","201293","0.0-5.0-127.0","go-nogo","true","0","","true","<div class = centerbox><div  id = stim2></div></div>","32","32","750","","test","go","127","adv","","",""
"","622","32","1198","0","test_block","poldrack-single-stim","142","202504","0.0-5.0-128.0","go-nogo","true","0","","true","<div class = centerbox><div  id = stim2></div></div>","32","32","750","","test","go","128","adv","","",""
"","-1","-1","1119","0","test_block","poldrack-single-stim","143","203628","0.0-5.0-129.0","go-nogo","true","0","","false","<div class = centerbox><div  id = stim2></div></div>","32","32","750","","test","go","129","adv","","",""
"","-1","-1","1246","0","test_block","poldrack-single-stim","144","204888","0.0-5.0-130.0","go-nogo","true","0","","false","<div class = centerbox><div  id = stim2></div></div>","32","32","750","","test","go","130","adv","","",""
"","147","32","1406","0","test_block","poldrack-single-stim","145","206307","0.0-5.0-131.0","go-nogo","true","0","","true","<div class = centerbox><div  id = stim2></div></div>","32","32","750","","test","go","131","adv","","",""
"","459","32","1269","0","test_block","poldrack-single-stim","146","207587","0.0-5.0-132.0","go-nogo","true","0","","false","<div class = centerbox><div  id = stim1></div></div>","-1","32","750","","test","nogo","132","adv","","",""
"","-1","-1","1428","0","test_block","poldrack-single-stim","147","209028","0.0-5.0-133.0","go-nogo","true","0","","true","<div class = centerbox><div  id = stim1></div></div>","-1","32","750","","test","nogo","133","adv","","",""
"","343","32","1108","0","test_block","poldrack-single-stim","148","210164","0.0-5.0-134.0","go-nogo","true","0","","true","<div class = centerbox><div  id = stim2></div></div>","32","32","750","","test","go","134","adv","","",""
"","-1","-1","1218","0","test_block","poldrack-single-stim","149","211397","0.0-5.0-135.0","go-nogo","true","0","","false","<div class = centerbox><div  id = stim2></div></div>","32","32","750","","test","go","135","adv","","",""
"","735","32","1206","0","test_block","poldrack-single-stim","150","212615","0.0-5.0-136.0","go-nogo","true","0","","true","<div class = centerbox><div  id = stim2></div></div>","32","32","750","","test","go","136","adv","","",""
"","612","32","1394","0","test_block","poldrack-single-stim","151","214023","0.0-5.0-137.0","go-nogo","true","0","","true","<div class = centerbox><div  id = stim2></div></div>","32","32","750","","test","go","137","adv","","",""
"","451","32","1103","0","test_block","poldrack-single-stim","152","215140","0.0-5.0-138.0","go-nogo","true","0","","true","<div class = centerbox><div  id = stim2></div></div>","32","32","750","","test","go","138","adv","","",""
"","1159","32","1469","0","test_block","poldrack-single-stim","153","216623","0.0-5.0-139.0","go-nogo","true","0","","true","<div class = centerbox><div  id = stim2></div></div>","32","32","750","","test","go","139","adv","","",""
"","844","32","1173","0","test_block","poldrack-single-stim","154","217810","0.0-5.0-140.0","go-nogo","true","0","","true","<div class = centerbox><div  id = stim2></div></div>","32","32","750","","test","go","140","adv","","",""
"","468","32","1437","0","test_block","poldrack-single-stim","155","219266","0.0-5.0-141.0","go-nogo","true","0","","true","<div class = centerbox><div  id = stim2></div></div>","32","32","750","","test","go","141","adv","","",""
"","360","32","1420","0","test_block","poldrack-single-stim","156","220701","0.0-5.0-142.0","go-nogo","true","0","","true","<div class = centerbox><div  id = stim2></div></div>","32","32","750","","test","go","142","adv","","",""
"","462","32","1268","0","test_block","poldrack-single-stim","157","221983","0.0-5.0-143.0","go-nogo","true","0","","true","<div class = centerbox><div  id = stim2></div></div>","32","32","750","","test","go","143","adv","","",""
"","621","32","1021","0","test_block","poldrack-single-stim","158","223016","0.0-5.0-144.0","go-nogo","true","0","","true","<div class = centerbox><div  id = stim2></div></div>","32","32","750","","test","go","144","adv","","",""
"","666","32","1396","0","test_block","poldrack-single-stim","159","224419","0.0-5.0-145.0","go-nogo","true","0","","true","<div class = centerbox><div  id = stim2></div></div>","32","32","750","","test","go","145","adv","","",""
"","1319","32","1345","0","test_block","poldrack-single-stim","160","225778","0.0-5.0-146.0","go-nogo","true","0","","true","<div class = centerbox><div  id = stim2></div></div>","32","32","750","","test","go","146","adv","","",""
"","456","32","1426","0","test_block","poldrack-single-stim","161","227217","0.0-5.0-147.0","go-nogo","true","0","","true","<div class = centerbox><div  id = stim2></div></div>","32","32","750","","test","go","147","adv","","",""
"","441","32","1011","0","test_block","poldrack-single-stim","162","228243","0.0-5.0-148.0","go-nogo","true","0","","true","<div class = centerbox><div  id = stim2></div></div>","32","32","750","","test","go","148","adv","","",""
"","471","32","1156","0","test_block","poldrack-single-stim","163","229412","0.0-5.0-149.0","go-nogo","true","0","","true","<div class = centerbox><div  id = stim2></div></div>","32","32","750","","test","go","149","adv","","",""
"","879","32","1148","0","test_block","poldrack-single-stim","164","230566","0.0-5.0-150.0","go-nogo","true","0","","true","<div class = centerbox><div  id = stim2></div></div>","32","32","750","","test","go","150","adv","","",""
"","420","32","1391","0","test_block","poldrack-single-stim","165","231971","0.0-5.0-151.0","go-nogo","true","0","","true","<div class = centerbox><div  id = stim2></div></div>","32","32","750","","test","go","151","adv","","",""
"","399","32","1380","0","test_block","poldrack-single-stim","166","233358","0.0-5.0-152.0","go-nogo","true","0","","true","<div class = centerbox><div  id = stim2></div></div>","32","32","750","","test","go","152","adv","","",""
"","452","32","1225","0","test_block","poldrack-single-stim","167","234607","0.0-5.0-153.0","go-nogo","true","0","","true","<div class = centerbox><div  id = stim2></div></div>","32","32","750","","test","go","153","adv","","",""
"","444","32","1122","0","test_block","poldrack-single-stim","168","235743","0.0-5.0-154.0","go-nogo","true","0","","true","<div class = centerbox><div  id = stim2></div></div>","32","32","750","","test","go","154","adv","","",""
"","467","32","1092","0","test_block","poldrack-single-stim","169","236842","0.0-5.0-155.0","go-nogo","true","0","","true","<div class = centerbox><div  id = stim2></div></div>","32","32","750","","test","go","155","adv","","",""
"","462","32","1010","0","test_block","poldrack-single-stim","170","237870","0.0-5.0-156.0","go-nogo","true","0","","true","<div class = centerbox><div  id = stim2></div></div>","32","32","750","","test","go","156","adv","","",""
"","542","32","1169","0","test_block","poldrack-single-stim","171","239052","0.0-5.0-157.0","go-nogo","true","0","","true","<div class = centerbox><div  id = stim2></div></div>","32","32","750","","test","go","157","adv","","",""
"","486","32","1395","0","test_block","poldrack-single-stim","172","240462","0.0-5.0-158.0","go-nogo","true","0","","true","<div class = centerbox><div  id = stim2></div></div>","32","32","750","","test","go","158","adv","","",""
"","239","32","1404","0","test_block","poldrack-single-stim","173","241904","0.0-5.0-159.0","go-nogo","true","0","","true","<div class = centerbox><div  id = stim2></div></div>","32","32","750","","test","go","159","adv","","",""
"","298","32","1401","0","test_block","poldrack-single-stim","174","243319","0.0-5.0-160.0","go-nogo","true","0","","true","<div class = centerbox><div  id = stim2></div></div>","32","32","750","","test","go","160","adv","","",""
"","587","32","1206","0","test_block","poldrack-single-stim","175","244548","0.0-5.0-161.0","go-nogo","true","0","","true","<div class = centerbox><div  id = stim2></div></div>","32","32","750","","test","go","161","adv","","",""
"","408","32","1271","0","test_block","poldrack-single-stim","176","245832","0.0-5.0-162.0","go-nogo","true","0","","true","<div class = centerbox><div  id = stim2></div></div>","32","32","750","","test","go","162","adv","","",""
"","66","32","1262","0","test_block","poldrack-single-stim","177","247109","0.0-5.0-163.0","go-nogo","true","0","","true","<div class = centerbox><div  id = stim2></div></div>","32","32","750","","test","go","163","adv","","",""
"","356","32","1354","0","test_block","poldrack-single-stim","178","248478","0.0-5.0-164.0","go-nogo","true","0","","true","<div class = centerbox><div  id = stim2></div></div>","32","32","750","","test","go","164","adv","","",""
"","66","32","1270","0","test_block","poldrack-single-stim","179","249757","0.0-5.0-165.0","go-nogo","true","0","","true","<div class = centerbox><div  id = stim2></div></div>","32","32","750","","test","go","165","adv","","",""
"","397","32","1196","0","test_block","poldrack-single-stim","180","250967","0.0-5.0-166.0","go-nogo","true","0","","true","<div class = centerbox><div  id = stim2></div></div>","32","32","750","","test","go","166","adv","","",""
"","357","32","1095","0","test_block","poldrack-single-stim","181","252074","0.0-5.0-167.0","go-nogo","true","0","","true","<div class = centerbox><div  id = stim2></div></div>","32","32","750","","test","go","167","adv","","",""
"","505","32","1317","0","test_block","poldrack-single-stim","182","253397","0.0-5.0-168.0","go-nogo","true","0","","true","<div class = centerbox><div  id = stim2></div></div>","32","32","750","","test","go","168","adv","","",""
"","1082","32","1193","0","test_block","poldrack-single-stim","183","254615","0.0-5.0-169.0","go-nogo","true","0","","true","<div class = centerbox><div  id = stim2></div></div>","32","32","750","","test","go","169","adv","","",""
"","566","32","1386","0","test_block","poldrack-single-stim","184","256015","0.0-5.0-170.0","go-nogo","true","0","","true","<div class = centerbox><div  id = stim2></div></div>","32","32","750","","test","go","170","adv","","",""
"","829","32","1151","0","test_block","poldrack-single-stim","185","257178","0.0-5.0-171.0","go-nogo","true","0","","true","<div class = centerbox><div  id = stim2></div></div>","32","32","750","","test","go","171","adv","","",""
"","336","32","1091","0","test_block","poldrack-single-stim","186","258283","0.0-5.0-172.0","go-nogo","true","0","","true","<div class = centerbox><div  id = stim2></div></div>","32","32","750","","test","go","172","adv","","",""
"","8","32","1045","0","test_block","poldrack-single-stim","187","259333","0.0-5.0-173.0","go-nogo","true","0","","true","<div class = centerbox><div  id = stim2></div></div>","32","32","750","","test","go","173","adv","","",""
"","326","32","1270","0","test_block","poldrack-single-stim","188","260617","0.0-5.0-174.0","go-nogo","true","0","","true","<div class = centerbox><div  id = stim2></div></div>","32","32","750","","test","go","174","adv","","",""
"","550","32","1170","0","test_block","poldrack-single-stim","189","261796","0.0-5.0-175.0","go-nogo","true","0","","true","<div class = centerbox><div  id = stim2></div></div>","32","32","750","","test","go","175","adv","","",""
"","1324","32","1494","0","test_block","poldrack-single-stim","190","263315","0.0-5.0-176.0","go-nogo","true","0","","true","<div class = centerbox><div  id = stim2></div></div>","32","32","750","","test","go","176","adv","","",""
"","504","32","1057","0","test_block","poldrack-single-stim","191","264385","0.0-5.0-177.0","go-nogo","true","0","","true","<div class = centerbox><div  id = stim2></div></div>","32","32","750","","test","go","177","adv","","",""
"","42","32","1175","0","test_block","poldrack-single-stim","192","265573","0.0-5.0-178.0","go-nogo","true","0","","true","<div class = centerbox><div  id = stim2></div></div>","32","32","750","","test","go","178","adv","","",""
"","541","32","1106","0","test_block","poldrack-single-stim","193","266685","0.0-5.0-179.0","go-nogo","true","0","","true","<div class = centerbox><div  id = stim2></div></div>","32","32","750","","test","go","179","adv","","",""
"","-1","-1","1212","0","test_block","poldrack-single-stim","194","267921","0.0-5.0-180.0","go-nogo","true","0","","false","<div class = centerbox><div  id = stim2></div></div>","32","32","750","","test","go","180","adv","","",""
"","212","32","1337","0","test_block","poldrack-single-stim","195","269263","0.0-5.0-181.0","go-nogo","true","0","","true","<div class = centerbox><div  id = stim2></div></div>","32","32","750","","test","go","181","adv","","",""
"","575","32","1235","0","test_block","poldrack-single-stim","196","270510","0.0-5.0-182.0","go-nogo","true","0","","true","<div class = centerbox><div  id = stim2></div></div>","32","32","750","","test","go","182","adv","","",""
"","556","32","1287","0","test_block","poldrack-single-stim","197","271811","0.0-5.0-183.0","go-nogo","true","0","","true","<div class = centerbox><div  id = stim2></div></div>","32","32","750","","test","go","183","adv","","",""
"","-1","-1","1131","0","test_block","poldrack-single-stim","198","272956","0.0-5.0-184.0","go-nogo","true","0","","false","<div class = centerbox><div  id = stim2></div></div>","32","32","750","","test","go","184","adv","","",""
"","-1","-1","1157","0","test_block","poldrack-single-stim","199","274126","0.0-5.0-185.0","go-nogo","true","0","","false","<div class = centerbox><div  id = stim2></div></div>","32","32","750","","test","go","185","adv","","",""
"","1021","32","1041","0","test_block","poldrack-single-stim","200","275181","0.0-5.0-186.0","go-nogo","true","0","","true","<div class = centerbox><div  id = stim2></div></div>","32","32","750","","test","go","186","adv","","",""
"","-1","-1","1146","0","test_block","poldrack-single-stim","201","276340","0.0-5.0-187.0","go-nogo","true","0","","true","<div class = centerbox><div  id = stim1></div></div>","-1","32","750","","test","nogo","187","adv","","",""
"","566","32","1150","0","test_block","poldrack-single-stim","202","277504","0.0-5.0-188.0","go-nogo","true","0","","true","<div class = centerbox><div  id = stim2></div></div>","32","32","750","","test","go","188","adv","","",""
"","691","32","1152","0","test_block","poldrack-single-stim","203","278661","0.0-5.0-189.0","go-nogo","true","0","","false","<div class = centerbox><div  id = stim1></div></div>","-1","32","750","","test","nogo","189","adv","","",""
"","-1","-1","1499","0","test_block","poldrack-single-stim","204","280173","0.0-5.0-190.0","go-nogo","true","0","","true","<div class = centerbox><div  id = stim1></div></div>","-1","32","750","","test","nogo","190","adv","","",""
"","503","32","1062","0","test_block","poldrack-single-stim","205","281240","0.0-5.0-191.0","go-nogo","true","0","","true","<div class = centerbox><div  id = stim2></div></div>","32","32","750","","test","go","191","adv","","",""
"","436","32","1416","0","test_block","poldrack-single-stim","206","282670","0.0-5.0-192.0","go-nogo","true","0","","true","<div class = centerbox><div  id = stim2></div></div>","32","32","750","","test","go","192","adv","","",""
"","413","32","1167","0","test_block","poldrack-single-stim","207","283851","0.0-5.0-193.0","go-nogo","true","0","","true","<div class = centerbox><div  id = stim2></div></div>","32","32","750","","test","go","193","adv","","",""
"","431","32","1014","0","test_block","poldrack-single-stim","208","284882","0.0-5.0-194.0","go-nogo","true","0","","true","<div class = centerbox><div  id = stim2></div></div>","32","32","750","","test","go","194","adv","","",""
"","509","32","1382","0","test_block","poldrack-single-stim","209","286273","0.0-5.0-195.0","go-nogo","true","0","","true","<div class = centerbox><div  id = stim2></div></div>","32","32","750","","test","go","195","adv","","",""
"","-1","-1","1410","0","test_block","poldrack-single-stim","210","287691","0.0-5.0-196.0","go-nogo","true","0","","true","<div class = centerbox><div  id = stim1></div></div>","-1","32","750","","test","nogo","196","adv","","",""
"","497","32","1414","0","test_block","poldrack-single-stim","211","289119","0.0-5.0-197.0","go-nogo","true","0","","true","<div class = centerbox><div  id = stim2></div></div>","32","32","750","","test","go","197","adv","","",""
"","1117","32","1352","0","test_block","poldrack-single-stim","212","290482","0.0-5.0-198.0","go-nogo","true","0","","true","<div class = centerbox><div  id = stim2></div></div>","32","32","750","","test","go","198","adv","","",""
"","849","32","1479","0","test_block","poldrack-single-stim","213","291967","0.0-5.0-199.0","go-nogo","true","0","","true","<div class = centerbox><div  id = stim2></div></div>","32","32","750","","test","go","199","adv","","",""
"","353","32","1026","0","test_block","poldrack-single-stim","214","293007","0.0-5.0-200.0","go-nogo","true","0","","true","<div class = centerbox><div  id = stim2></div></div>","32","32","750","","test","go","200","adv","","",""
"","-1","-1","1207","0","test_block","poldrack-single-stim","215","294220","0.0-5.0-201.0","go-nogo","true","0","","false","<div class = centerbox><div  id = stim2></div></div>","32","32","750","","test","go","201","adv","","",""
"","799","32","1145","0","test_block","poldrack-single-stim","216","295379","0.0-5.0-202.0","go-nogo","true","0","","true","<div class = centerbox><div  id = stim2></div></div>","32","32","750","","test","go","202","adv","","",""
"","503","32","1058","0","test_block","poldrack-single-stim","217","296450","0.0-5.0-203.0","go-nogo","true","0","","true","<div class = centerbox><div  id = stim2></div></div>","32","32","750","","test","go","203","adv","","",""
"","476","32","1345","0","test_block","poldrack-single-stim","218","297803","0.0-5.0-204.0","go-nogo","true","0","","true","<div class = centerbox><div  id = stim2></div></div>","32","32","750","","test","go","204","adv","","",""
"","-1","-1","1492","0","test_block","poldrack-single-stim","219","299314","0.0-5.0-205.0","go-nogo","true","0","","false","<div class = centerbox><div  id = stim2></div></div>","32","32","750","","test","go","205","adv","","",""
"","-1","-1","1301","0","test_block","poldrack-single-stim","220","300630","0.0-5.0-206.0","go-nogo","true","0","","false","<div class = centerbox><div  id = stim2></div></div>","32","32","750","","test","go","206","adv","","",""
"","-1","-1","1015","0","test_block","poldrack-single-stim","221","301667","0.0-5.0-207.0","go-nogo","true","0","","false","<div class = centerbox><div  id = stim2></div></div>","32","32","750","","test","go","207","adv","","",""
"","73","32","1029","0","test_block","poldrack-single-stim","222","302708","0.0-5.0-208.0","go-nogo","true","0","","true","<div class = centerbox><div  id = stim2></div></div>","32","32","750","","test","go","208","adv","","",""
"","-1","-1","1316","0","test_block","poldrack-single-stim","223","304038","0.0-5.0-209.0","go-nogo","true","0","","true","<div class = centerbox><div  id = stim1></div></div>","-1","32","750","","test","nogo","209","adv","","",""
"","566","32","1491","0","test_block","poldrack-single-stim","224","305542","0.0-5.0-210.0","go-nogo","true","0","","true","<div class = centerbox><div  id = stim2></div></div>","32","32","750","","test","go","210","adv","","",""
"","-1","-1","1296","0","test_block","poldrack-single-stim","225","306851","0.0-5.0-211.0","go-nogo","true","0","","true","<div class = centerbox><div  id = stim1></div></div>","-1","32","750","","test","nogo","211","adv","","",""
"","303","32","1204","0","test_block","poldrack-single-stim","226","308061","0.0-5.0-212.0","go-nogo","true","0","","true","<div class = centerbox><div  id = stim2></div></div>","32","32","750","","test","go","212","adv","","",""
"","-1","-1","1011","0","test_block","poldrack-single-stim","227","309085","0.0-5.0-213.0","go-nogo","true","0","","true","<div class = centerbox><div  id = stim1></div></div>","-1","32","750","","test","nogo","213","adv","","",""
"","1135","32","1146","0","test_block","poldrack-single-stim","228","310242","0.0-5.0-214.0","go-nogo","true","0","","true","<div class = centerbox><div  id = stim2></div></div>","32","32","750","","test","go","214","adv","","",""
"","632","32","1482","0","test_block","poldrack-single-stim","229","311738","0.0-5.0-215.0","go-nogo","true","0","","true","<div class = centerbox><div  id = stim2></div></div>","32","32","750","","test","go","215","adv","","",""
"","481","32","1341","0","test_block","poldrack-single-stim","230","313091","0.0-5.0-216.0","go-nogo","true","0","","true","<div class = centerbox><div  id = stim2></div></div>","32","32","750","","test","go","216","adv","","",""
"","157","32","1157","0","test_block","poldrack-single-stim","231","314255","0.0-5.0-217.0","go-nogo","true","0","","true","<div class = centerbox><div  id = stim2></div></div>","32","32","750","","test","go","217","adv","","",""
"","189","32","1233","0","test_block","poldrack-single-stim","232","315500","0.0-5.0-218.0","go-nogo","true","0","","true","<div class = centerbox><div  id = stim2></div></div>","32","32","750","","test","go","218","adv","","",""
"","392","32","1269","0","test_block","poldrack-single-stim","233","316790","0.0-5.0-219.0","go-nogo","true","0","","true","<div class = centerbox><div  id = stim2></div></div>","32","32","750","","test","go","219","adv","","",""
"","365","32","1273","0","test_block","poldrack-single-stim","234","318083","0.0-5.0-220.0","go-nogo","true","0","","true","<div class = centerbox><div  id = stim2></div></div>","32","32","750","","test","go","220","adv","","",""
"","364","32","1408","0","test_block","poldrack-single-stim","235","319504","0.0-5.0-221.0","go-nogo","true","0","","true","<div class = centerbox><div  id = stim2></div></div>","32","32","750","","test","go","221","adv","","",""
"","433","32","1255","0","test_block","poldrack-single-stim","236","320766","0.0-5.0-222.0","go-nogo","true","0","","true","<div class = centerbox><div  id = stim2></div></div>","32","32","750","","test","go","222","adv","","",""
"","378","32","1043","0","test_block","poldrack-single-stim","237","321825","0.0-5.0-223.0","go-nogo","true","0","","true","<div class = centerbox><div  id = stim2></div></div>","32","32","750","","test","go","223","adv","","",""
"","584","32","1332","0","test_block","poldrack-single-stim","238","323172","0.0-5.0-224.0","go-nogo","true","0","","true","<div class = centerbox><div  id = stim2></div></div>","32","32","750","","test","go","224","adv","","",""
"","357","32","1498","0","test_block","poldrack-single-stim","239","324687","0.0-5.0-225.0","go-nogo","true","0","","true","<div class = centerbox><div  id = stim2></div></div>","32","32","750","","test","go","225","adv","","",""
"","282","32","1185","0","test_block","poldrack-single-stim","240","325887","0.0-5.0-226.0","go-nogo","true","0","","true","<div class = centerbox><div  id = stim2></div></div>","32","32","750","","test","go","226","adv","","",""
"","147","32","1273","0","test_block","poldrack-single-stim","241","327166","0.0-5.0-227.0","go-nogo","true","0","","true","<div class = centerbox><div  id = stim2></div></div>","32","32","750","","test","go","227","adv","","",""
"","555","32","1086","0","test_block","poldrack-single-stim","242","328266","0.0-5.0-228.0","go-nogo","true","0","","true","<div class = centerbox><div  id = stim2></div></div>","32","32","750","","test","go","228","adv","","",""
"","-1","-1","1300","0","test_block","poldrack-single-stim","243","329576","0.0-5.0-229.0","go-nogo","true","0","","false","<div class = centerbox><div  id = stim2></div></div>","32","32","750","","test","go","229","adv","","",""
"","-1","-1","1309","0","test_block","poldrack-single-stim","244","330900","0.0-5.0-230.0","go-nogo","true","0","","false","<div class = centerbox><div  id = stim2></div></div>","32","32","750","","test","go","230","adv","","",""
"","285","32","1219","0","test_block","poldrack-single-stim","245","332140","0.0-5.0-231.0","go-nogo","true","0","","true","<div class = centerbox><div  id = stim2></div></div>","32","32","750","","test","go","231","adv","","",""
"","251","32","1411","0","test_block","poldrack-single-stim","246","333567","0.0-5.0-232.0","go-nogo","true","0","","false","<div class = centerbox><div  id = stim1></div></div>","-1","32","750","","test","nogo","232","adv","","",""
"","-1","-1","1203","0","test_block","poldrack-single-stim","247","334786","0.0-5.0-233.0","go-nogo","true","0","","true","<div class = centerbox><div  id = stim1></div></div>","-1","32","750","","test","nogo","233","adv","","",""
"","341","32","1029","0","test_block","poldrack-single-stim","248","335830","0.0-5.0-234.0","go-nogo","true","0","","true","<div class = centerbox><div  id = stim2></div></div>","32","32","750","","test","go","234","adv","","",""
"","401","32","1450","0","test_block","poldrack-single-stim","249","337295","0.0-5.0-235.0","go-nogo","true","0","","true","<div class = centerbox><div  id = stim2></div></div>","32","32","750","","test","go","235","adv","","",""
"","950","32","1009","0","test_block","poldrack-single-stim","250","338338","0.0-5.0-236.0","go-nogo","true","0","","true","<div class = centerbox><div  id = stim2></div></div>","32","32","750","","test","go","236","adv","","",""
"","777","32","1230","0","test_block","poldrack-single-stim","251","339582","0.0-5.0-237.0","go-nogo","true","0","","true","<div class = centerbox><div  id = stim2></div></div>","32","32","750","","test","go","237","adv","","",""
"","140","32","1015","0","test_block","poldrack-single-stim","252","340610","0.0-5.0-238.0","go-nogo","true","0","","true","<div class = centerbox><div  id = stim2></div></div>","32","32","750","","test","go","238","adv","","",""
"","160","32","1429","0","test_block","poldrack-single-stim","253","342045","0.0-5.0-239.0","go-nogo","true","0","","true","<div class = centerbox><div  id = stim2></div></div>","32","32","750","","test","go","239","adv","","",""
"","191","32","1194","0","test_block","poldrack-single-stim","254","343251","0.0-5.0-240.0","go-nogo","true","0","","true","<div class = centerbox><div  id = stim2></div></div>","32","32","750","","test","go","240","adv","","",""
"","246","32","1432","0","test_block","poldrack-single-stim","255","344697","0.0-5.0-241.0","go-nogo","true","0","","true","<div class = centerbox><div  id = stim2></div></div>","32","32","750","","test","go","241","adv","","",""
"","272","32","1457","0","test_block","poldrack-single-stim","256","346169","0.0-5.0-242.0","go-nogo","true","0","","true","<div class = centerbox><div  id = stim2></div></div>","32","32","750","","test","go","242","adv","","",""
"","225","32","1322","0","test_block","poldrack-single-stim","257","347504","0.0-5.0-243.0","go-nogo","true","0","","true","<div class = centerbox><div  id = stim2></div></div>","32","32","750","","test","go","243","adv","","",""
"","45","32","1410","0","test_block","poldrack-single-stim","258","348938","0.0-5.0-244.0","go-nogo","true","0","","false","<div class = centerbox><div  id = stim1></div></div>","-1","32","750","","test","nogo","244","adv","","",""
"","-1","-1","1080","0","test_block","poldrack-single-stim","259","350032","0.0-5.0-245.0","go-nogo","true","0","","true","<div class = centerbox><div  id = stim1></div></div>","-1","32","750","","test","nogo","245","adv","","",""
"","370","32","1138","0","test_block","poldrack-single-stim","260","351177","0.0-5.0-246.0","go-nogo","true","0","","true","<div class = centerbox><div  id = stim2></div></div>","32","32","750","","test","go","246","adv","","",""
"","4","32","1042","0","test_block","poldrack-single-stim","261","352231","0.0-5.0-247.0","go-nogo","true","0","","true","<div class = centerbox><div  id = stim2></div></div>","32","32","750","","test","go","247","adv","","",""
"","323","32","1218","0","test_block","poldrack-single-stim","262","353462","0.0-5.0-248.0","go-nogo","true","0","","true","<div class = centerbox><div  id = stim2></div></div>","32","32","750","","test","go","248","adv","","",""
"","268","32","1350","0","test_block","poldrack-single-stim","263","354820","0.0-5.0-249.0","go-nogo","true","0","","true","<div class = centerbox><div  id = stim2></div></div>","32","32","750","","test","go","249","adv","","",""
"","405","32","1187","0","test_block","poldrack-single-stim","264","356021","0.0-5.0-250.0","go-nogo","true","0","","false","<div class = centerbox><div  id = stim1></div></div>","-1","32","750","","test","nogo","250","adv","","",""
"","1126","32","1442","0","test_block","poldrack-single-stim","265","357484","0.0-5.0-251.0","go-nogo","true","0","","false","<div class = centerbox><div  id = stim1></div></div>","-1","32","750","","test","nogo","251","adv","","",""
"","407","32","1051","0","test_block","poldrack-single-stim","266","358556","0.0-5.0-252.0","go-nogo","true","0","","false","<div class = centerbox><div  id = stim1></div></div>","-1","32","750","","test","nogo","252","adv","","",""
"","-1","-1","1342","0","test_block","poldrack-single-stim","267","359918","0.0-5.0-253.0","go-nogo","true","0","","true","<div class = centerbox><div  id = stim1></div></div>","-1","32","750","","test","nogo","253","adv","","",""
"","349","32","1260","0","test_block","poldrack-single-stim","268","361206","0.0-5.0-254.0","go-nogo","true","0","","true","<div class = centerbox><div  id = stim2></div></div>","32","32","750","","test","go","254","adv","","",""
"","-1","-1","1272","0","test_block","poldrack-single-stim","269","362491","0.0-5.0-255.0","go-nogo","true","0","","false","<div class = centerbox><div  id = stim2></div></div>","32","32","750","","test","go","255","adv","","",""
"","-1","-1","1231","0","test_block","poldrack-single-stim","270","363729","0.0-5.0-256.0","go-nogo","true","0","","false","<div class = centerbox><div  id = stim2></div></div>","32","32","750","","test","go","256","adv","","",""
"","440","32","1194","0","test_block","poldrack-single-stim","271","364955","0.0-5.0-257.0","go-nogo","true","0","","true","<div class = centerbox><div  id = stim2></div></div>","32","32","750","","test","go","257","adv","","",""
"","164","32","1189","0","test_block","poldrack-single-stim","272","366153","0.0-5.0-258.0","go-nogo","true","0","","false","<div class = centerbox><div  id = stim1></div></div>","-1","32","750","","test","nogo","258","adv","","",""
"","-1","-1","1042","0","test_block","poldrack-single-stim","273","367201","0.0-5.0-259.0","go-nogo","true","0","","true","<div class = centerbox><div  id = stim1></div></div>","-1","32","750","","test","nogo","259","adv","","",""
"","315","32","1195","0","test_block","poldrack-single-stim","274","368409","0.0-5.0-260.0","go-nogo","true","0","","true","<div class = centerbox><div  id = stim2></div></div>","32","32","750","","test","go","260","adv","","",""
"","371","32","1223","0","test_block","poldrack-single-stim","275","369643","0.0-5.0-261.0","go-nogo","true","0","","true","<div class = centerbox><div  id = stim2></div></div>","32","32","750","","test","go","261","adv","","",""
"","503","32","1340","0","test_block","poldrack-single-stim","276","370989","0.0-5.0-262.0","go-nogo","true","0","","true","<div class = centerbox><div  id = stim2></div></div>","32","32","750","","test","go","262","adv","","",""
"","494","32","1079","0","test_block","poldrack-single-stim","277","372081","0.0-5.0-263.0","go-nogo","true","0","","true","<div class = centerbox><div  id = stim2></div></div>","32","32","750","","test","go","263","adv","","",""
"","41","32","1044","0","test_block","poldrack-single-stim","278","373138","0.0-5.0-264.0","go-nogo","true","0","","true","<div class = centerbox><div  id = stim2></div></div>","32","32","750","","test","go","264","adv","","",""
"","-1","-1","1402","0","test_block","poldrack-single-stim","279","374546","0.0-5.0-265.0","go-nogo","true","0","","false","<div class = centerbox><div  id = stim2></div></div>","32","32","750","","test","go","265","adv","","",""
"","-1","-1","1322","0","test_block","poldrack-single-stim","280","375883","0.0-5.0-266.0","go-nogo","true","0","","false","<div class = centerbox><div  id = stim2></div></div>","32","32","750","","test","go","266","adv","","",""
"","1242","32","1418","0","test_block","poldrack-single-stim","281","377321","0.0-5.0-267.0","go-nogo","true","0","","true","<div class = centerbox><div  id = stim2></div></div>","32","32","750","","test","go","267","adv","","",""
"","1220","32","1386","0","test_block","poldrack-single-stim","282","378719","0.0-5.0-268.0","go-nogo","true","0","","false","<div class = centerbox><div  id = stim1></div></div>","-1","32","750","","test","nogo","268","adv","","",""
"","-1","-1","1218","0","test_block","poldrack-single-stim","283","379960","0.0-5.0-269.0","go-nogo","true","0","","true","<div class = centerbox><div  id = stim1></div></div>","-1","32","750","","test","nogo","269","adv","","",""
"","-1","-1","1339","0","test_block","poldrack-single-stim","284","381307","0.0-5.0-270.0","go-nogo","true","0","","false","<div class = centerbox><div  id = stim2></div></div>","32","32","750","","test","go","270","adv","","",""
"","-1","-1","1122","0","test_block","poldrack-single-stim","285","382442","0.0-5.0-271.0","go-nogo","true","0","","false","<div class = centerbox><div  id = stim2></div></div>","32","32","750","","test","go","271","adv","","",""
"","-1","-1","1129","0","test_block","poldrack-single-stim","286","383595","0.0-5.0-272.0","go-nogo","true","0","","false","<div class = centerbox><div  id = stim2></div></div>","32","32","750","","test","go","272","adv","","",""
"","-1","-1","1359","0","test_block","poldrack-single-stim","287","384960","0.0-5.0-273.0","go-nogo","true","0","","false","<div class = centerbox><div  id = stim2></div></div>","32","32","750","","test","go","273","adv","","",""
"","-1","-1","1346","0","test_block","poldrack-single-stim","288","386312","0.0-5.0-274.0","go-nogo","true","0","","false","<div class = centerbox><div  id = stim2></div></div>","32","32","750","","test","go","274","adv","","",""
"","-1","-1","1118","0","test_block","poldrack-single-stim","289","387444","0.0-5.0-275.0","go-nogo","true","0","","false","<div class = centerbox><div  id = stim2></div></div>","32","32","750","","test","go","275","adv","","",""
"","-1","-1","1297","0","test_block","poldrack-single-stim","290","388760","0.0-5.0-276.0","go-nogo","true","0","","false","<div class = centerbox><div  id = stim2></div></div>","32","32","750","","test","go","276","adv","","",""
"","-1","-1","1365","0","test_block","poldrack-single-stim","291","390138","0.0-5.0-277.0","go-nogo","true","0","","false","<div class = centerbox><div  id = stim2></div></div>","32","32","750","","test","go","277","adv","","",""
"","-1","-1","1417","0","test_block","poldrack-single-stim","292","391562","0.0-5.0-278.0","go-nogo","true","0","","false","<div class = centerbox><div  id = stim2></div></div>","32","32","750","","test","go","278","adv","","",""
"","-1","-1","1083","0","test_block","poldrack-single-stim","293","392664","0.0-5.0-279.0","go-nogo","true","0","","false","<div class = centerbox><div  id = stim2></div></div>","32","32","750","","test","go","279","adv","","",""
"","-1","-1","1212","0","test_block","poldrack-single-stim","294","393888","0.0-5.0-280.0","go-nogo","true","0","","false","<div class = centerbox><div  id = stim2></div></div>","32","32","750","","test","go","280","adv","","",""
"","-1","-1","1182","0","test_block","poldrack-single-stim","295","395083","0.0-5.0-281.0","go-nogo","true","0","","false","<div class = centerbox><div  id = stim2></div></div>","32","32","750","","test","go","281","adv","","",""
"","-1","-1","1274","0","test_block","poldrack-single-stim","296","396372","0.0-5.0-282.0","go-nogo","true","0","","false","<div class = centerbox><div  id = stim2></div></div>","32","32","750","","test","go","282","adv","","",""
"","-1","-1","1331","0","test_block","poldrack-single-stim","297","397716","0.0-5.0-283.0","go-nogo","true","0","","false","<div class = centerbox><div  id = stim2></div></div>","32","32","750","","test","go","283","adv","","",""
"","-1","-1","1225","0","test_block","poldrack-single-stim","298","398954","0.0-5.0-284.0","go-nogo","true","0","","false","<div class = centerbox><div  id = stim2></div></div>","32","32","750","","test","go","284","adv","","",""
"","-1","-1","1487","0","test_block","poldrack-single-stim","299","400454","0.0-5.0-285.0","go-nogo","true","0","","false","<div class = centerbox><div  id = stim2></div></div>","32","32","750","","test","go","285","adv","","",""
"","-1","-1","1311","0","test_block","poldrack-single-stim","300","401770","0.0-5.0-286.0","go-nogo","true","0","","false","<div class = centerbox><div  id = stim2></div></div>","32","32","750","","test","go","286","adv","","",""
"","-1","-1","1287","0","test_block","poldrack-single-stim","301","403074","0.0-5.0-287.0","go-nogo","true","0","","false","<div class = centerbox><div  id = stim2></div></div>","32","32","750","","test","go","287","adv","","",""
"","-1","-1","1312","0","test_block","poldrack-single-stim","302","404395","0.0-5.0-288.0","go-nogo","true","0","","false","<div class = centerbox><div  id = stim2></div></div>","32","32","750","","test","go","288","adv","","",""
"","-1","-1","1222","0","test_block","poldrack-single-stim","303","405630","0.0-5.0-289.0","go-nogo","true","0","","false","<div class = centerbox><div  id = stim2></div></div>","32","32","750","","test","go","289","adv","","",""
"","-1","-1","1067","0","test_block","poldrack-single-stim","304","406711","0.0-5.0-290.0","go-nogo","true","0","","false","<div class = centerbox><div  id = stim2></div></div>","32","32","750","","test","go","290","adv","","",""
"","-1","-1","1138","0","test_block","poldrack-single-stim","305","407862","0.0-5.0-291.0","go-nogo","true","0","","false","<div class = centerbox><div  id = stim2></div></div>","32","32","750","","test","go","291","adv","","",""
"","-1","-1","1181","0","test_block","poldrack-single-stim","306","409055","0.0-5.0-292.0","go-nogo","true","0","","false","<div class = centerbox><div  id = stim2></div></div>","32","32","750","","test","go","292","adv","","",""
"","-1","-1","1067","0","test_block","poldrack-single-stim","307","410128","0.0-5.0-293.0","go-nogo","true","0","","false","<div class = centerbox><div  id = stim2></div></div>","32","32","750","","test","go","293","adv","","",""
"","1211","32","1371","0","test_block","poldrack-single-stim","308","411511","0.0-5.0-294.0","go-nogo","true","0","","true","<div class = centerbox><div  id = stim2></div></div>","32","32","750","","test","go","294","adv","","",""
"","-1","-1","1013","0","test_block","poldrack-single-stim","309","412557","0.0-5.0-295.0","go-nogo","true","0","","true","<div class = centerbox><div  id = stim1></div></div>","-1","32","750","","test","nogo","295","adv","","",""
"","484","32","1323","0","test_block","poldrack-single-stim","310","413885","0.0-5.0-296.0","go-nogo","true","0","","true","<div class = centerbox><div  id = stim2></div></div>","32","32","750","","test","go","296","adv","","",""
"","-1","-1","1380","0","test_block","poldrack-single-stim","311","415273","0.0-5.0-297.0","go-nogo","true","0","","true","<div class = centerbox><div  id = stim1></div></div>","-1","32","750","","test","nogo","297","adv","","",""
"","-1","-1","1255","0","test_block","poldrack-single-stim","312","416534","0.0-5.0-298.0","go-nogo","true","0","","false","<div class = centerbox><div  id = stim2></div></div>","32","32","750","","test","go","298","adv","","",""
"","-1","-1","1155","0","test_block","poldrack-single-stim","313","417701","0.0-5.0-299.0","go-nogo","true","0","","false","<div class = centerbox><div  id = stim2></div></div>","32","32","750","","test","go","299","adv","","",""
"","-1","-1","1474","0","test_block","poldrack-single-stim","314","419189","0.0-5.0-300.0","go-nogo","true","0","","false","<div class = centerbox><div  id = stim2></div></div>","32","32","750","","test","go","300","adv","","",""
"","-1","-1","1039","0","test_block","poldrack-single-stim","315","420242","0.0-5.0-301.0","go-nogo","true","0","","false","<div class = centerbox><div  id = stim2></div></div>","32","32","750","","test","go","301","adv","","",""
"","-1","-1","1305","0","test_block","poldrack-single-stim","316","421559","0.0-5.0-302.0","go-nogo","true","0","","false","<div class = centerbox><div  id = stim2></div></div>","32","32","750","","test","go","302","adv","","",""
"","-1","-1","1175","0","test_block","poldrack-single-stim","317","422748","0.0-5.0-303.0","go-nogo","true","0","","false","<div class = centerbox><div  id = stim2></div></div>","32","32","750","","test","go","303","adv","","",""
"","-1","-1","1150","0","test_block","poldrack-single-stim","318","423911","0.0-5.0-304.0","go-nogo","true","0","","false","<div class = centerbox><div  id = stim2></div></div>","32","32","750","","test","go","304","adv","","",""
"","-1","-1","1389","0","test_block","poldrack-single-stim","319","425310","0.0-5.0-305.0","go-nogo","true","0","","false","<div class = centerbox><div  id = stim2></div></div>","32","32","750","","test","go","305","adv","","",""
"","-1","-1","1310","0","test_block","poldrack-single-stim","320","426626","0.0-5.0-306.0","go-nogo","true","0","","false","<div class = centerbox><div  id = stim2></div></div>","32","32","750","","test","go","306","adv","","",""
"","-1","-1","1064","0","test_block","poldrack-single-stim","321","427703","0.0-5.0-307.0","go-nogo","true","0","","false","<div class = centerbox><div  id = stim2></div></div>","32","32","750","","test","go","307","adv","","",""
"","-1","-1","1176","0","test_block","poldrack-single-stim","322","428894","0.0-5.0-308.0","go-nogo","true","0","","false","<div class = centerbox><div  id = stim2></div></div>","32","32","750","","test","go","308","adv","","",""
"","-1","-1","1259","0","test_block","poldrack-single-stim","323","430169","0.0-5.0-309.0","go-nogo","true","0","","false","<div class = centerbox><div  id = stim2></div></div>","32","32","750","","test","go","309","adv","","",""
"","146","32","1336","0","test_block","poldrack-single-stim","324","431519","0.0-5.0-310.0","go-nogo","true","0","","true","<div class = centerbox><div  id = stim2></div></div>","32","32","750","","test","go","310","adv","","",""
"","12","32","1065","0","test_block","poldrack-single-stim","325","432596","0.0-5.0-311.0","go-nogo","true","0","","false","<div class = centerbox><div  id = stim1></div></div>","-1","32","750","","test","nogo","311","adv","","",""
"","298","32","1144","0","test_block","poldrack-single-stim","326","433752","0.0-5.0-312.0","go-nogo","true","0","","false","<div class = centerbox><div  id = stim1></div></div>","-1","32","750","","test","nogo","312","adv","","",""
"","-1","-1","1105","0","test_block","poldrack-single-stim","327","434871","0.0-5.0-313.0","go-nogo","true","0","","false","<div class = centerbox><div  id = stim2></div></div>","32","32","750","","test","go","313","adv","","",""
"","-1","-1","1021","0","test_block","poldrack-single-stim","328","435904","0.0-5.0-314.0","go-nogo","true","0","","false","<div class = centerbox><div  id = stim2></div></div>","32","32","750","","test","go","314","adv","","",""
"","-1","-1","1456","0","test_block","poldrack-single-stim","329","437370","0.0-5.0-315.0","go-nogo","true","0","","false","<div class = centerbox><div  id = stim2></div></div>","32","32","750","","test","go","315","adv","","",""
"","-1","-1","1431","0","test_block","poldrack-single-stim","330","438815","0.0-5.0-316.0","go-nogo","true","0","","false","<div class = centerbox><div  id = stim2></div></div>","32","32","750","","test","go","316","adv","","",""
"","-1","-1","1446","0","test_block","poldrack-single-stim","331","440274","0.0-5.0-317.0","go-nogo","true","0","","false","<div class = centerbox><div  id = stim2></div></div>","32","32","750","","test","go","317","adv","","",""
"","-1","-1","1301","0","test_block","poldrack-single-stim","332","441589","0.0-5.0-318.0","go-nogo","true","0","","false","<div class = centerbox><div  id = stim2></div></div>","32","32","750","","test","go","318","adv","","",""
"","-1","-1","1053","0","test_block","poldrack-single-stim","333","442655","0.0-5.0-319.0","go-nogo","true","0","","false","<div class = centerbox><div  id = stim2></div></div>","32","32","750","","test","go","319","adv","","",""
"","-1","-1","1040","0","test_block","poldrack-single-stim","334","443707","0.0-5.0-320.0","go-nogo","true","0","","false","<div class = centerbox><div  id = stim2></div></div>","32","32","750","","test","go","320","adv","","",""
"","-1","-1","1253","0","test_block","poldrack-single-stim","335","444974","0.0-5.0-321.0","go-nogo","true","0","","false","<div class = centerbox><div  id = stim2></div></div>","32","32","750","","test","go","321","adv","","",""
"","-1","-1","1018","0","test_block","poldrack-single-stim","336","446004","0.0-5.0-322.0","go-nogo","true","0","","false","<div class = centerbox><div  id = stim2></div></div>","32","32","750","","test","go","322","adv","","",""
"","-1","-1","1183","0","test_block","poldrack-single-stim","337","447197","0.0-5.0-323.0","go-nogo","true","0","","false","<div class = centerbox><div  id = stim2></div></div>","32","32","750","","test","go","323","adv","","",""
"","-1","-1","1138","0","test_block","poldrack-single-stim","338","448348","0.0-5.0-324.0","go-nogo","true","0","","false","<div class = centerbox><div  id = stim2></div></div>","32","32","750","","test","go","324","adv","","",""
"","-1","-1","1277","0","test_block","poldrack-single-stim","339","449639","0.0-5.0-325.0","go-nogo","true","0","","false","<div class = centerbox><div  id = stim2></div></div>","32","32","750","","test","go","325","adv","","",""
"","-1","-1","1138","0","test_block","poldrack-single-stim","340","450790","0.0-5.0-326.0","go-nogo","true","0","","false","<div class = centerbox><div  id = stim2></div></div>","32","32","750","","test","go","326","adv","","",""
"","-1","-1","1016","0","test_block","poldrack-single-stim","341","451820","0.0-5.0-327.0","go-nogo","true","0","","false","<div class = centerbox><div  id = stim2></div></div>","32","32","750","","test","go","327","adv","","",""
"","-1","-1","1151","0","test_block","poldrack-single-stim","342","452983","0.0-5.0-328.0","go-nogo","true","0","","false","<div class = centerbox><div  id = stim2></div></div>","32","32","750","","test","go","328","adv","","",""
"","-1","-1","1036","0","test_block","poldrack-single-stim","343","454028","0.0-5.0-329.0","go-nogo","true","0","","false","<div class = centerbox><div  id = stim2></div></div>","32","32","750","","test","go","329","adv","","",""
"","-1","-1","1272","0","test_block","poldrack-single-stim","344","455314","0.0-5.0-330.0","go-nogo","true","0","","false","<div class = centerbox><div  id = stim2></div></div>","32","32","750","","test","go","330","adv","","",""
"","-1","-1","1176","0","test_block","poldrack-single-stim","345","456502","0.0-5.0-331.0","go-nogo","true","0","","false","<div class = centerbox><div  id = stim2></div></div>","32","32","750","","test","go","331","adv","","",""
"","-1","-1","1194","0","test_block","poldrack-single-stim","346","457713","0.0-5.0-332.0","go-nogo","true","0","","false","<div class = centerbox><div  id = stim2></div></div>","32","32","750","","test","go","332","adv","","",""
"","-1","-1","1256","0","test_block","poldrack-single-stim","347","458984","0.0-5.0-333.0","go-nogo","true","0","","false","<div class = centerbox><div  id = stim2></div></div>","32","32","750","","test","go","333","adv","","",""
"","-1","-1","1093","0","test_block","poldrack-single-stim","348","460089","0.0-5.0-334.0","go-nogo","true","0","","false","<div class = centerbox><div  id = stim2></div></div>","32","32","750","","test","go","334","adv","","",""
"","-1","-1","1187","0","test_block","poldrack-single-stim","349","461282","0.0-5.0-335.0","go-nogo","true","0","","false","<div class = centerbox><div  id = stim2></div></div>","32","32","750","","test","go","335","adv","","",""
"","-1","-1","1032","0","test_block","poldrack-single-stim","350","462327","0.0-5.0-336.0","go-nogo","true","0","","false","<div class = centerbox><div  id = stim2></div></div>","32","32","750","","test","go","336","adv","","",""
"","-1","-1","1100","0","test_block","poldrack-single-stim","351","463434","0.0-5.0-337.0","go-nogo","true","0","","false","<div class = centerbox><div  id = stim2></div></div>","32","32","750","","test","go","337","adv","","",""
"","-1","-1","1163","0","test_block","poldrack-single-stim","352","464605","0.0-5.0-338.0","go-nogo","true","0","","false","<div class = centerbox><div  id = stim2></div></div>","32","32","750","","test","go","338","adv","","",""
"","-1","-1","1303","0","test_block","poldrack-single-stim","353","465920","0.0-5.0-339.0","go-nogo","true","0","","false","<div class = centerbox><div  id = stim2></div></div>","32","32","750","","test","go","339","adv","","",""
"","-1","-1","1434","0","test_block","poldrack-single-stim","354","467365","0.0-5.0-340.0","go-nogo","true","0","","false","<div class = centerbox><div  id = stim2></div></div>","32","32","750","","test","go","340","adv","","",""
"","-1","-1","1224","0","test_block","poldrack-single-stim","355","468604","0.0-5.0-341.0","go-nogo","true","0","","false","<div class = centerbox><div  id = stim2></div></div>","32","32","750","","test","go","341","adv","","",""
"","-1","-1","1187","0","test_block","poldrack-single-stim","356","469808","0.0-5.0-342.0","go-nogo","true","0","","false","<div class = centerbox><div  id = stim2></div></div>","32","32","750","","test","go","342","adv","","",""
"","-1","-1","1337","0","test_block","poldrack-single-stim","357","471164","0.0-5.0-343.0","go-nogo","true","0","","false","<div class = centerbox><div  id = stim2></div></div>","32","32","750","","test","go","343","adv","","",""
"","-1","-1","1460","0","test_block","poldrack-single-stim","358","472638","0.0-5.0-344.0","go-nogo","true","0","","false","<div class = centerbox><div  id = stim2></div></div>","32","32","750","","test","go","344","adv","","",""
"","-1","-1","1049","0","test_block","poldrack-single-stim","359","473701","0.0-5.0-345.0","go-nogo","true","0","","false","<div class = centerbox><div  id = stim2></div></div>","32","32","750","","test","go","345","adv","","",""
"","-1","-1","1451","0","test_block","poldrack-single-stim","360","475166","0.0-5.0-346.0","go-nogo","true","0","","false","<div class = centerbox><div  id = stim2></div></div>","32","32","750","","test","go","346","adv","","",""
"","-1","-1","1259","0","test_block","poldrack-single-stim","361","476438","0.0-5.0-347.0","go-nogo","true","0","","true","<div class = centerbox><div  id = stim1></div></div>","-1","32","750","","test","nogo","347","adv","","",""
"","-1","-1","1095","0","test_block","poldrack-single-stim","362","477551","0.0-5.0-348.0","go-nogo","true","0","","true","<div class = centerbox><div  id = stim1></div></div>","-1","32","750","","test","nogo","348","adv","","",""
"","-1","-1","1168","0","test_block","poldrack-single-stim","363","478723","0.0-5.0-349.0","go-nogo","true","0","","true","<div class = centerbox><div  id = stim1></div></div>","-1","32","750","","test","nogo","349","adv","","",""
"","227396","","","","post task questions","survey-text","364","706137","0.0-7.0","go-nogo","true","0","","","","","","","","","","","","{""Q0"":""to click the space bar button wnen the blue square appear"",""Q1"":""good job.""}","",""
"<div class = centerbox><p class = center-block-text>Thanks for completing this task!</p><p class = center-block-text>Insert the following code to collect your payment at Amazon Mechanical Turk:</p><p class = center-block-text>471230317</p><p class = center-block-text>Press <strong>enter</strong> to continue.</p></div>","4020","13","4020","0","end","poldrack-text","365","711158","0.0-8.0","go-nogo","true","0","","","","","","","","","","","","","471230317","true"
