"text","rt","key_press","block_duration","timing_post_trial","trial_id","trial_type","trial_index","time_elapsed","internal_node_id","exp_id","full_screen","focus_shifts","view_history","correct","stimulus","correct_response","possible_responses","stim_duration","feedback_duration","exp_stage","condition","trial_num","mode","responses","payment_id","credit_var"
"<div class = centerbox><p class = center-block-text>Welcome to the experiment. This task will take around 10 minutes. Press <strong>enter</strong> to begin.</p></div>","5716","13","5716","0","instruction","poldrack-text","0","5719","0.0-0.0-0.0","go-nogo","true","0","","","","","","","","","","","","","",""
"","1214","","","","instruction","poldrack-instructions","1","6935","0.0-0.0-1.0","go-nogo","true","0","[{""page_index"":0,""viewing_time"":1213}]","","","","","","","","","","","","",""
"","-1","-1","1475","250","practice","poldrack-categorize","2","10424","0.0-1.0-0.0","go-nogo","true","0","","false","<div class = centerbox><div  id = stim2></div></div>","32","32","750","1000","practice","go","0","adv","","",""
"","-1","-1","1451","250","practice","poldrack-categorize","3","13133","0.0-1.0-1.0","go-nogo","true","0","","true","<div class = centerbox><div id = stim1></div></div>","-1","32","750","1000","practice","nogo","1","adv","","",""
"","-1","-1","1279","250","practice","poldrack-categorize","4","15669","0.0-1.0-2.0","go-nogo","true","0","","true","<div class = centerbox><div id = stim1></div></div>","-1","32","750","1000","practice","nogo","2","adv","","",""
"","-1","-1","1304","250","practice","poldrack-categorize","5","18229","0.0-1.0-3.0","go-nogo","true","0","","true","<div class = centerbox><div id = stim1></div></div>","-1","32","750","1000","practice","nogo","3","adv","","",""
"","-1","-1","1493","250","practice","poldrack-categorize","6","20978","0.0-1.0-4.0","go-nogo","true","0","","false","<div class = centerbox><div  id = stim2></div></div>","32","32","750","1000","practice","go","4","adv","","",""
"","-1","-1","1020","250","practice","poldrack-categorize","7","23255","0.0-1.0-5.0","go-nogo","true","0","","true","<div class = centerbox><div id = stim1></div></div>","-1","32","750","1000","practice","nogo","5","adv","","",""
"","-1","-1","1326","250","practice","poldrack-categorize","8","25836","0.0-1.0-6.0","go-nogo","true","0","","false","<div class = centerbox><div  id = stim2></div></div>","32","32","750","1000","practice","go","6","adv","","",""
"","-1","-1","1034","250","practice","poldrack-categorize","9","28126","0.0-1.0-7.0","go-nogo","true","0","","false","<div class = centerbox><div  id = stim2></div></div>","32","32","750","1000","practice","go","7","adv","","",""
"","-1","-1","1116","250","practice","poldrack-categorize","10","30498","0.0-1.0-8.0","go-nogo","true","0","","true","<div class = centerbox><div id = stim1></div></div>","-1","32","750","1000","practice","nogo","8","adv","","",""
"","-1","-1","1011","250","practice","poldrack-categorize","11","32766","0.0-1.0-9.0","go-nogo","true","0","","false","<div class = centerbox><div  id = stim2></div></div>","32","32","750","1000","practice","go","9","adv","","",""
"","","","","","reset_trial","call-function","12","33019","0.0-3.0","go-nogo","true","0","","","","","","","","","","","","","",""
"<div class = centerbox><p class = block-text>Practice is over, we will now begin the experiment. You will no longer get feedback about your responses.</p><p class = block-text>Remember, if you see the <font color=""blue"">blue</font> square you should <strong> respond by pressing the spacebar as quickly as possible</strong>. If you see the <font color=""orange"">orange</font> square you should <strong> not respond</strong>. Press <strong>enter</strong> to begin.</p></div>","10438","13","10438","1000","test_intro","poldrack-text","13","43460","0.0-4.0","go-nogo","true","0","","","","","","","","","","","","","",""
"","-1","-1","1301","0","test_block","poldrack-single-stim","14","45767","0.0-5.0-0.0","go-nogo","true","0","","false","<div class = centerbox><div  id = stim2></div></div>","32","32","750","","test","go","0","adv","","",""
"","-1","-1","1431","0","test_block","poldrack-single-stim","15","47284","0.0-5.0-1.0","go-nogo","true","0","","false","<div class = centerbox><div  id = stim2></div></div>","32","32","750","","test","go","1","adv","","",""
"","-1","-1","1138","0","test_block","poldrack-single-stim","16","48497","0.0-5.0-2.0","go-nogo","true","0","","false","<div class = centerbox><div  id = stim2></div></div>","32","32","750","","test","go","2","adv","","",""
"","-1","-1","1258","0","test_block","poldrack-single-stim","17","49825","0.0-5.0-3.0","go-nogo","true","0","","false","<div class = centerbox><div  id = stim2></div></div>","32","32","750","","test","go","3","adv","","",""
"","-1","-1","1282","0","test_block","poldrack-single-stim","18","51181","0.0-5.0-4.0","go-nogo","true","0","","false","<div class = centerbox><div  id = stim2></div></div>","32","32","750","","test","go","4","adv","","",""
"","-1","-1","1205","0","test_block","poldrack-single-stim","19","52469","0.0-5.0-5.0","go-nogo","true","0","","false","<div class = centerbox><div  id = stim2></div></div>","32","32","750","","test","go","5","adv","","",""
"","-1","-1","1135","0","test_block","poldrack-single-stim","20","53681","0.0-5.0-6.0","go-nogo","true","0","","false","<div class = centerbox><div  id = stim2></div></div>","32","32","750","","test","go","6","adv","","",""
"","-1","-1","1065","0","test_block","poldrack-single-stim","21","54815","0.0-5.0-7.0","go-nogo","true","0","","false","<div class = centerbox><div  id = stim2></div></div>","32","32","750","","test","go","7","adv","","",""
"","-1","-1","1483","0","test_block","poldrack-single-stim","22","56370","0.0-5.0-8.0","go-nogo","true","0","","false","<div class = centerbox><div  id = stim2></div></div>","32","32","750","","test","go","8","adv","","",""
"","-1","-1","1177","0","test_block","poldrack-single-stim","23","57616","0.0-5.0-9.0","go-nogo","true","0","","false","<div class = centerbox><div  id = stim2></div></div>","32","32","750","","test","go","9","adv","","",""
"","-1","-1","1033","0","test_block","poldrack-single-stim","24","58712","0.0-5.0-10.0","go-nogo","true","0","","false","<div class = centerbox><div  id = stim2></div></div>","32","32","750","","test","go","10","adv","","",""
"","-1","-1","1036","0","test_block","poldrack-single-stim","25","59822","0.0-5.0-11.0","go-nogo","true","0","","false","<div class = centerbox><div  id = stim2></div></div>","32","32","750","","test","go","11","adv","","",""
"","-1","-1","1154","0","test_block","poldrack-single-stim","26","61040","0.0-5.0-12.0","go-nogo","true","0","","false","<div class = centerbox><div  id = stim2></div></div>","32","32","750","","test","go","12","adv","","",""
"","-1","-1","1309","0","test_block","poldrack-single-stim","27","62452","0.0-5.0-13.0","go-nogo","true","0","","false","<div class = centerbox><div  id = stim2></div></div>","32","32","750","","test","go","13","adv","","",""
"","-1","-1","1070","0","test_block","poldrack-single-stim","28","63581","0.0-5.0-14.0","go-nogo","true","0","","false","<div class = centerbox><div  id = stim2></div></div>","32","32","750","","test","go","14","adv","","",""
"","-1","-1","1205","0","test_block","poldrack-single-stim","29","64847","0.0-5.0-15.0","go-nogo","true","0","","false","<div class = centerbox><div  id = stim2></div></div>","32","32","750","","test","go","15","adv","","",""
"","-1","-1","1093","0","test_block","poldrack-single-stim","30","65998","0.0-5.0-16.0","go-nogo","true","0","","false","<div class = centerbox><div  id = stim2></div></div>","32","32","750","","test","go","16","adv","","",""
"","-1","-1","1415","0","test_block","poldrack-single-stim","31","67475","0.0-5.0-17.0","go-nogo","true","0","","false","<div class = centerbox><div  id = stim2></div></div>","32","32","750","","test","go","17","adv","","",""
"","-1","-1","1276","0","test_block","poldrack-single-stim","32","68804","0.0-5.0-18.0","go-nogo","true","0","","false","<div class = centerbox><div  id = stim2></div></div>","32","32","750","","test","go","18","adv","","",""
"","-1","-1","1311","0","test_block","poldrack-single-stim","33","70171","0.0-5.0-19.0","go-nogo","true","0","","false","<div class = centerbox><div  id = stim2></div></div>","32","32","750","","test","go","19","adv","","",""
"","-1","-1","1022","0","test_block","poldrack-single-stim","34","71260","0.0-5.0-20.0","go-nogo","true","0","","false","<div class = centerbox><div  id = stim2></div></div>","32","32","750","","test","go","20","adv","","",""
"","-1","-1","1230","0","test_block","poldrack-single-stim","35","72548","0.0-5.0-21.0","go-nogo","true","0","","false","<div class = centerbox><div  id = stim2></div></div>","32","32","750","","test","go","21","adv","","",""
"","-1","-1","1483","0","test_block","poldrack-single-stim","36","74103","0.0-5.0-22.0","go-nogo","true","0","","false","<div class = centerbox><div  id = stim2></div></div>","32","32","750","","test","go","22","adv","","",""
"","-1","-1","1386","0","test_block","poldrack-single-stim","37","75549","0.0-5.0-23.0","go-nogo","true","0","","false","<div class = centerbox><div  id = stim2></div></div>","32","32","750","","test","go","23","adv","","",""
"","-1","-1","1319","0","test_block","poldrack-single-stim","38","76920","0.0-5.0-24.0","go-nogo","true","0","","false","<div class = centerbox><div  id = stim2></div></div>","32","32","750","","test","go","24","adv","","",""
"","-1","-1","1032","0","test_block","poldrack-single-stim","39","78017","0.0-5.0-25.0","go-nogo","true","0","","false","<div class = centerbox><div  id = stim2></div></div>","32","32","750","","test","go","25","adv","","",""
"","-1","-1","1355","0","test_block","poldrack-single-stim","40","79425","0.0-5.0-26.0","go-nogo","true","0","","false","<div class = centerbox><div  id = stim2></div></div>","32","32","750","","test","go","26","adv","","",""
"","-1","-1","1484","0","test_block","poldrack-single-stim","41","80969","0.0-5.0-27.0","go-nogo","true","0","","false","<div class = centerbox><div  id = stim2></div></div>","32","32","750","","test","go","27","adv","","",""
"","-1","-1","1204","0","test_block","poldrack-single-stim","42","82236","0.0-5.0-28.0","go-nogo","true","0","","false","<div class = centerbox><div  id = stim2></div></div>","32","32","750","","test","go","28","adv","","",""
"","-1","-1","1425","0","test_block","poldrack-single-stim","43","83726","0.0-5.0-29.0","go-nogo","true","0","","false","<div class = centerbox><div  id = stim2></div></div>","32","32","750","","test","go","29","adv","","",""
"","-1","-1","1360","0","test_block","poldrack-single-stim","44","85149","0.0-5.0-30.0","go-nogo","true","0","","false","<div class = centerbox><div  id = stim2></div></div>","32","32","750","","test","go","30","adv","","",""
"","-1","-1","1418","0","test_block","poldrack-single-stim","45","86625","0.0-5.0-31.0","go-nogo","true","0","","false","<div class = centerbox><div  id = stim2></div></div>","32","32","750","","test","go","31","adv","","",""
"","-1","-1","1025","0","test_block","poldrack-single-stim","46","87704","0.0-5.0-32.0","go-nogo","true","0","","false","<div class = centerbox><div  id = stim2></div></div>","32","32","750","","test","go","32","adv","","",""
"","-1","-1","1379","0","test_block","poldrack-single-stim","47","89138","0.0-5.0-33.0","go-nogo","true","0","","false","<div class = centerbox><div  id = stim2></div></div>","32","32","750","","test","go","33","adv","","",""
"","-1","-1","1161","0","test_block","poldrack-single-stim","48","90362","0.0-5.0-34.0","go-nogo","true","0","","false","<div class = centerbox><div  id = stim2></div></div>","32","32","750","","test","go","34","adv","","",""
"","-1","-1","1468","0","test_block","poldrack-single-stim","49","92296","0.0-5.0-35.0","go-nogo","true","1","","false","<div class = centerbox><div  id = stim2></div></div>","32","32","750","","test","go","35","adv","","",""
"","-1","-1","1409","0","test_block","poldrack-single-stim","50","93741","0.0-5.0-36.0","go-nogo","true","0","","false","<div class = centerbox><div  id = stim2></div></div>","32","32","750","","test","go","36","adv","","",""
"","-1","-1","1246","0","test_block","poldrack-single-stim","51","95041","0.0-5.0-37.0","go-nogo","true","0","","false","<div class = centerbox><div  id = stim2></div></div>","32","32","750","","test","go","37","adv","","",""
"","-1","-1","1361","0","test_block","poldrack-single-stim","52","96468","0.0-5.0-38.0","go-nogo","true","0","","false","<div class = centerbox><div  id = stim2></div></div>","32","32","750","","test","go","38","adv","","",""
"","-1","-1","1437","0","test_block","poldrack-single-stim","53","97939","0.0-5.0-39.0","go-nogo","true","0","","false","<div class = centerbox><div  id = stim2></div></div>","32","32","750","","test","go","39","adv","","",""
"","-1","-1","1095","0","test_block","poldrack-single-stim","54","99092","0.0-5.0-40.0","go-nogo","true","0","","false","<div class = centerbox><div  id = stim2></div></div>","32","32","750","","test","go","40","adv","","",""
"","-1","-1","1326","0","test_block","poldrack-single-stim","55","100480","0.0-5.0-41.0","go-nogo","true","0","","false","<div class = centerbox><div  id = stim2></div></div>","32","32","750","","test","go","41","adv","","",""
"","-1","-1","1429","0","test_block","poldrack-single-stim","56","101973","0.0-5.0-42.0","go-nogo","true","0","","false","<div class = centerbox><div  id = stim2></div></div>","32","32","750","","test","go","42","adv","","",""
"","-1","-1","1179","0","test_block","poldrack-single-stim","57","103213","0.0-5.0-43.0","go-nogo","true","0","","false","<div class = centerbox><div  id = stim2></div></div>","32","32","750","","test","go","43","adv","","",""
"","-1","-1","1404","0","test_block","poldrack-single-stim","58","104684","0.0-5.0-44.0","go-nogo","true","0","","false","<div class = centerbox><div  id = stim2></div></div>","32","32","750","","test","go","44","adv","","",""
"","-1","-1","1467","0","test_block","poldrack-single-stim","59","106206","0.0-5.0-45.0","go-nogo","true","0","","false","<div class = centerbox><div  id = stim2></div></div>","32","32","750","","test","go","45","adv","","",""
"","-1","-1","1286","0","test_block","poldrack-single-stim","60","107549","0.0-5.0-46.0","go-nogo","true","0","","false","<div class = centerbox><div  id = stim2></div></div>","32","32","750","","test","go","46","adv","","",""
"","-1","-1","1480","0","test_block","poldrack-single-stim","61","109090","0.0-5.0-47.0","go-nogo","true","0","","false","<div class = centerbox><div  id = stim2></div></div>","32","32","750","","test","go","47","adv","","",""
"","-1","-1","1297","0","test_block","poldrack-single-stim","62","110444","0.0-5.0-48.0","go-nogo","true","0","","false","<div class = centerbox><div  id = stim2></div></div>","32","32","750","","test","go","48","adv","","",""
"","-1","-1","1066","0","test_block","poldrack-single-stim","63","111567","0.0-5.0-49.0","go-nogo","true","0","","false","<div class = centerbox><div  id = stim2></div></div>","32","32","750","","test","go","49","adv","","",""
"","-1","-1","1101","0","test_block","poldrack-single-stim","64","112735","0.0-5.0-50.0","go-nogo","true","0","","false","<div class = centerbox><div  id = stim2></div></div>","32","32","750","","test","go","50","adv","","",""
"","-1","-1","1494","0","test_block","poldrack-single-stim","65","114295","0.0-5.0-51.0","go-nogo","true","0","","false","<div class = centerbox><div  id = stim2></div></div>","32","32","750","","test","go","51","adv","","",""
"","-1","-1","1042","0","test_block","poldrack-single-stim","66","115388","0.0-5.0-52.0","go-nogo","true","0","","false","<div class = centerbox><div  id = stim2></div></div>","32","32","750","","test","go","52","adv","","",""
"","-1","-1","1116","0","test_block","poldrack-single-stim","67","116559","0.0-5.0-53.0","go-nogo","true","0","","false","<div class = centerbox><div  id = stim2></div></div>","32","32","750","","test","go","53","adv","","",""
"","-1","-1","1201","0","test_block","poldrack-single-stim","68","117830","0.0-5.0-54.0","go-nogo","true","0","","false","<div class = centerbox><div  id = stim2></div></div>","32","32","750","","test","go","54","adv","","",""
"","-1","-1","1219","0","test_block","poldrack-single-stim","69","119104","0.0-5.0-55.0","go-nogo","true","0","","false","<div class = centerbox><div  id = stim2></div></div>","32","32","750","","test","go","55","adv","","",""
"","-1","-1","1487","0","test_block","poldrack-single-stim","70","120654","0.0-5.0-56.0","go-nogo","true","0","","false","<div class = centerbox><div  id = stim2></div></div>","32","32","750","","test","go","56","adv","","",""
"","-1","-1","1302","0","test_block","poldrack-single-stim","71","122014","0.0-5.0-57.0","go-nogo","true","0","","false","<div class = centerbox><div  id = stim2></div></div>","32","32","750","","test","go","57","adv","","",""
"","-1","-1","1308","0","test_block","poldrack-single-stim","72","123385","0.0-5.0-58.0","go-nogo","true","0","","false","<div class = centerbox><div  id = stim2></div></div>","32","32","750","","test","go","58","adv","","",""
"","-1","-1","1024","0","test_block","poldrack-single-stim","73","124481","0.0-5.0-59.0","go-nogo","true","0","","false","<div class = centerbox><div  id = stim2></div></div>","32","32","750","","test","go","59","adv","","",""
"","-1","-1","1331","0","test_block","poldrack-single-stim","74","125868","0.0-5.0-60.0","go-nogo","true","0","","false","<div class = centerbox><div  id = stim2></div></div>","32","32","750","","test","go","60","adv","","",""
"","-1","-1","1060","0","test_block","poldrack-single-stim","75","126981","0.0-5.0-61.0","go-nogo","true","0","","false","<div class = centerbox><div  id = stim2></div></div>","32","32","750","","test","go","61","adv","","",""
"","-1","-1","1087","0","test_block","poldrack-single-stim","76","128121","0.0-5.0-62.0","go-nogo","true","0","","false","<div class = centerbox><div  id = stim2></div></div>","32","32","750","","test","go","62","adv","","",""
"","-1","-1","1335","0","test_block","poldrack-single-stim","77","129507","0.0-5.0-63.0","go-nogo","true","0","","false","<div class = centerbox><div  id = stim2></div></div>","32","32","750","","test","go","63","adv","","",""
"","-1","-1","1306","0","test_block","poldrack-single-stim","78","130881","0.0-5.0-64.0","go-nogo","true","0","","false","<div class = centerbox><div  id = stim2></div></div>","32","32","750","","test","go","64","adv","","",""
"","-1","-1","1370","0","test_block","poldrack-single-stim","79","132309","0.0-5.0-65.0","go-nogo","true","0","","false","<div class = centerbox><div  id = stim2></div></div>","32","32","750","","test","go","65","adv","","",""
"","-1","-1","1126","0","test_block","poldrack-single-stim","80","133479","0.0-5.0-66.0","go-nogo","true","0","","false","<div class = centerbox><div  id = stim2></div></div>","32","32","750","","test","go","66","adv","","",""
"","-1","-1","1066","0","test_block","poldrack-single-stim","81","134599","0.0-5.0-67.0","go-nogo","true","0","","false","<div class = centerbox><div  id = stim2></div></div>","32","32","750","","test","go","67","adv","","",""
"","-1","-1","1203","0","test_block","poldrack-single-stim","82","135858","0.0-5.0-68.0","go-nogo","true","0","","false","<div class = centerbox><div  id = stim2></div></div>","32","32","750","","test","go","68","adv","","",""
"","-1","-1","1388","0","test_block","poldrack-single-stim","83","137304","0.0-5.0-69.0","go-nogo","true","0","","false","<div class = centerbox><div  id = stim2></div></div>","32","32","750","","test","go","69","adv","","",""
"","-1","-1","1064","0","test_block","poldrack-single-stim","84","138428","0.0-5.0-70.0","go-nogo","true","0","","false","<div class = centerbox><div  id = stim2></div></div>","32","32","750","","test","go","70","adv","","",""
"","-1","-1","1052","0","test_block","poldrack-single-stim","85","139533","0.0-5.0-71.0","go-nogo","true","0","","false","<div class = centerbox><div  id = stim2></div></div>","32","32","750","","test","go","71","adv","","",""
"","-1","-1","1255","0","test_block","poldrack-single-stim","86","140844","0.0-5.0-72.0","go-nogo","true","0","","false","<div class = centerbox><div  id = stim2></div></div>","32","32","750","","test","go","72","adv","","",""
"","-1","-1","1335","0","test_block","poldrack-single-stim","87","142239","0.0-5.0-73.0","go-nogo","true","0","","false","<div class = centerbox><div  id = stim2></div></div>","32","32","750","","test","go","73","adv","","",""
"","-1","-1","1498","0","test_block","poldrack-single-stim","88","143793","0.0-5.0-74.0","go-nogo","true","0","","false","<div class = centerbox><div  id = stim2></div></div>","32","32","750","","test","go","74","adv","","",""
"","-1","-1","1302","0","test_block","poldrack-single-stim","89","145150","0.0-5.0-75.0","go-nogo","true","0","","false","<div class = centerbox><div  id = stim2></div></div>","32","32","750","","test","go","75","adv","","",""
"","-1","-1","1013","0","test_block","poldrack-single-stim","90","146228","0.0-5.0-76.0","go-nogo","true","0","","false","<div class = centerbox><div  id = stim2></div></div>","32","32","750","","test","go","76","adv","","",""
"","-1","-1","1252","0","test_block","poldrack-single-stim","91","147533","0.0-5.0-77.0","go-nogo","true","0","","false","<div class = centerbox><div  id = stim2></div></div>","32","32","750","","test","go","77","adv","","",""
"","-1","-1","1010","0","test_block","poldrack-single-stim","92","148594","0.0-5.0-78.0","go-nogo","true","0","","false","<div class = centerbox><div  id = stim2></div></div>","32","32","750","","test","go","78","adv","","",""
"","-1","-1","1109","0","test_block","poldrack-single-stim","93","149760","0.0-5.0-79.0","go-nogo","true","0","","false","<div class = centerbox><div  id = stim2></div></div>","32","32","750","","test","go","79","adv","","",""
"","-1","-1","1134","0","test_block","poldrack-single-stim","94","150951","0.0-5.0-80.0","go-nogo","true","0","","false","<div class = centerbox><div  id = stim2></div></div>","32","32","750","","test","go","80","adv","","",""
"","-1","-1","1238","0","test_block","poldrack-single-stim","95","152244","0.0-5.0-81.0","go-nogo","true","0","","false","<div class = centerbox><div  id = stim2></div></div>","32","32","750","","test","go","81","adv","","",""
"","-1","-1","1450","0","test_block","poldrack-single-stim","96","153753","0.0-5.0-82.0","go-nogo","true","0","","false","<div class = centerbox><div  id = stim2></div></div>","32","32","750","","test","go","82","adv","","",""
"","-1","-1","1293","0","test_block","poldrack-single-stim","97","155100","0.0-5.0-83.0","go-nogo","true","0","","false","<div class = centerbox><div  id = stim2></div></div>","32","32","750","","test","go","83","adv","","",""
"","-1","-1","1241","0","test_block","poldrack-single-stim","98","156399","0.0-5.0-84.0","go-nogo","true","0","","false","<div class = centerbox><div  id = stim2></div></div>","32","32","750","","test","go","84","adv","","",""
"","-1","-1","1190","0","test_block","poldrack-single-stim","99","157645","0.0-5.0-85.0","go-nogo","true","0","","false","<div class = centerbox><div  id = stim2></div></div>","32","32","750","","test","go","85","adv","","",""
"","-1","-1","1375","0","test_block","poldrack-single-stim","100","159079","0.0-5.0-86.0","go-nogo","true","0","","false","<div class = centerbox><div  id = stim2></div></div>","32","32","750","","test","go","86","adv","","",""
"","-1","-1","1392","0","test_block","poldrack-single-stim","101","160535","0.0-5.0-87.0","go-nogo","true","0","","false","<div class = centerbox><div  id = stim2></div></div>","32","32","750","","test","go","87","adv","","",""
"","-1","-1","1345","0","test_block","poldrack-single-stim","102","161938","0.0-5.0-88.0","go-nogo","true","0","","false","<div class = centerbox><div  id = stim2></div></div>","32","32","750","","test","go","88","adv","","",""
"","-1","-1","1129","0","test_block","poldrack-single-stim","103","163128","0.0-5.0-89.0","go-nogo","true","0","","false","<div class = centerbox><div  id = stim2></div></div>","32","32","750","","test","go","89","adv","","",""
"","-1","-1","1071","0","test_block","poldrack-single-stim","104","164252","0.0-5.0-90.0","go-nogo","true","0","","false","<div class = centerbox><div  id = stim2></div></div>","32","32","750","","test","go","90","adv","","",""
"","-1","-1","1263","0","test_block","poldrack-single-stim","105","165576","0.0-5.0-91.0","go-nogo","true","0","","false","<div class = centerbox><div  id = stim2></div></div>","32","32","750","","test","go","91","adv","","",""
"","-1","-1","1024","0","test_block","poldrack-single-stim","106","166655","0.0-5.0-92.0","go-nogo","true","0","","false","<div class = centerbox><div  id = stim2></div></div>","32","32","750","","test","go","92","adv","","",""
"","-1","-1","1191","0","test_block","poldrack-single-stim","107","167898","0.0-5.0-93.0","go-nogo","true","0","","false","<div class = centerbox><div  id = stim2></div></div>","32","32","750","","test","go","93","adv","","",""
"","-1","-1","1091","0","test_block","poldrack-single-stim","108","169041","0.0-5.0-94.0","go-nogo","true","0","","false","<div class = centerbox><div  id = stim2></div></div>","32","32","750","","test","go","94","adv","","",""
"","-1","-1","1137","0","test_block","poldrack-single-stim","109","170247","0.0-5.0-95.0","go-nogo","true","0","","false","<div class = centerbox><div  id = stim2></div></div>","32","32","750","","test","go","95","adv","","",""
"","-1","-1","1421","0","test_block","poldrack-single-stim","110","171733","0.0-5.0-96.0","go-nogo","true","0","","false","<div class = centerbox><div  id = stim2></div></div>","32","32","750","","test","go","96","adv","","",""
"","-1","-1","1378","0","test_block","poldrack-single-stim","111","173164","0.0-5.0-97.0","go-nogo","true","0","","false","<div class = centerbox><div  id = stim2></div></div>","32","32","750","","test","go","97","adv","","",""
"","-1","-1","1241","0","test_block","poldrack-single-stim","112","174461","0.0-5.0-98.0","go-nogo","true","0","","false","<div class = centerbox><div  id = stim2></div></div>","32","32","750","","test","go","98","adv","","",""
"","-1","-1","1015","0","test_block","poldrack-single-stim","113","175529","0.0-5.0-99.0","go-nogo","true","0","","false","<div class = centerbox><div  id = stim2></div></div>","32","32","750","","test","go","99","adv","","",""
"","-1","-1","1163","0","test_block","poldrack-single-stim","114","176746","0.0-5.0-100.0","go-nogo","true","0","","false","<div class = centerbox><div  id = stim2></div></div>","32","32","750","","test","go","100","adv","","",""
"","-1","-1","1187","0","test_block","poldrack-single-stim","115","177986","0.0-5.0-101.0","go-nogo","true","0","","false","<div class = centerbox><div  id = stim2></div></div>","32","32","750","","test","go","101","adv","","",""
"","-1","-1","1114","0","test_block","poldrack-single-stim","116","179160","0.0-5.0-102.0","go-nogo","true","0","","false","<div class = centerbox><div  id = stim2></div></div>","32","32","750","","test","go","102","adv","","",""
"","-1","-1","1153","0","test_block","poldrack-single-stim","117","180370","0.0-5.0-103.0","go-nogo","true","0","","false","<div class = centerbox><div  id = stim2></div></div>","32","32","750","","test","go","103","adv","","",""
"","-1","-1","1064","0","test_block","poldrack-single-stim","118","181489","0.0-5.0-104.0","go-nogo","true","0","","false","<div class = centerbox><div  id = stim2></div></div>","32","32","750","","test","go","104","adv","","",""
"","-1","-1","1424","0","test_block","poldrack-single-stim","119","182966","0.0-5.0-105.0","go-nogo","true","0","","false","<div class = centerbox><div  id = stim2></div></div>","32","32","750","","test","go","105","adv","","",""
"","-1","-1","1081","0","test_block","poldrack-single-stim","120","184106","0.0-5.0-106.0","go-nogo","true","0","","false","<div class = centerbox><div  id = stim2></div></div>","32","32","750","","test","go","106","adv","","",""
"","-1","-1","1083","0","test_block","poldrack-single-stim","121","185248","0.0-5.0-107.0","go-nogo","true","0","","false","<div class = centerbox><div  id = stim2></div></div>","32","32","750","","test","go","107","adv","","",""
"","-1","-1","1251","0","test_block","poldrack-single-stim","122","186568","0.0-5.0-108.0","go-nogo","true","0","","false","<div class = centerbox><div  id = stim2></div></div>","32","32","750","","test","go","108","adv","","",""
"","-1","-1","1097","0","test_block","poldrack-single-stim","123","187723","0.0-5.0-109.0","go-nogo","true","0","","false","<div class = centerbox><div  id = stim2></div></div>","32","32","750","","test","go","109","adv","","",""
"","-1","-1","1316","0","test_block","poldrack-single-stim","124","189094","0.0-5.0-110.0","go-nogo","true","0","","false","<div class = centerbox><div  id = stim2></div></div>","32","32","750","","test","go","110","adv","","",""
"","-1","-1","1435","0","test_block","poldrack-single-stim","125","190587","0.0-5.0-111.0","go-nogo","true","0","","false","<div class = centerbox><div  id = stim2></div></div>","32","32","750","","test","go","111","adv","","",""
"","-1","-1","1187","0","test_block","poldrack-single-stim","126","191836","0.0-5.0-112.0","go-nogo","true","0","","false","<div class = centerbox><div  id = stim2></div></div>","32","32","750","","test","go","112","adv","","",""
"","-1","-1","1271","0","test_block","poldrack-single-stim","127","193158","0.0-5.0-113.0","go-nogo","true","0","","false","<div class = centerbox><div  id = stim2></div></div>","32","32","750","","test","go","113","adv","","",""
"","-1","-1","1170","0","test_block","poldrack-single-stim","128","194380","0.0-5.0-114.0","go-nogo","true","0","","false","<div class = centerbox><div  id = stim2></div></div>","32","32","750","","test","go","114","adv","","",""
"","-1","-1","1460","0","test_block","poldrack-single-stim","129","195892","0.0-5.0-115.0","go-nogo","true","0","","false","<div class = centerbox><div  id = stim2></div></div>","32","32","750","","test","go","115","adv","","",""
"","-1","-1","1230","0","test_block","poldrack-single-stim","130","197173","0.0-5.0-116.0","go-nogo","true","0","","false","<div class = centerbox><div  id = stim2></div></div>","32","32","750","","test","go","116","adv","","",""
"","-1","-1","1486","0","test_block","poldrack-single-stim","131","198709","0.0-5.0-117.0","go-nogo","true","0","","false","<div class = centerbox><div  id = stim2></div></div>","32","32","750","","test","go","117","adv","","",""
"","-1","-1","1378","0","test_block","poldrack-single-stim","132","200146","0.0-5.0-118.0","go-nogo","true","0","","false","<div class = centerbox><div  id = stim2></div></div>","32","32","750","","test","go","118","adv","","",""
"","-1","-1","1437","0","test_block","poldrack-single-stim","133","201637","0.0-5.0-119.0","go-nogo","true","0","","false","<div class = centerbox><div  id = stim2></div></div>","32","32","750","","test","go","119","adv","","",""
"","-1","-1","1380","0","test_block","poldrack-single-stim","134","203072","0.0-5.0-120.0","go-nogo","true","0","","false","<div class = centerbox><div  id = stim2></div></div>","32","32","750","","test","go","120","adv","","",""
"","-1","-1","1308","0","test_block","poldrack-single-stim","135","204438","0.0-5.0-121.0","go-nogo","true","0","","false","<div class = centerbox><div  id = stim2></div></div>","32","32","750","","test","go","121","adv","","",""
"","-1","-1","1295","0","test_block","poldrack-single-stim","136","205782","0.0-5.0-122.0","go-nogo","true","0","","false","<div class = centerbox><div  id = stim2></div></div>","32","32","750","","test","go","122","adv","","",""
"","-1","-1","1072","0","test_block","poldrack-single-stim","137","206908","0.0-5.0-123.0","go-nogo","true","0","","false","<div class = centerbox><div  id = stim2></div></div>","32","32","750","","test","go","123","adv","","",""
"","-1","-1","1428","0","test_block","poldrack-single-stim","138","208396","0.0-5.0-124.0","go-nogo","true","0","","false","<div class = centerbox><div  id = stim2></div></div>","32","32","750","","test","go","124","adv","","",""
"","-1","-1","1102","0","test_block","poldrack-single-stim","139","209550","0.0-5.0-125.0","go-nogo","true","0","","false","<div class = centerbox><div  id = stim2></div></div>","32","32","750","","test","go","125","adv","","",""
"","-1","-1","1131","0","test_block","poldrack-single-stim","140","210739","0.0-5.0-126.0","go-nogo","true","0","","false","<div class = centerbox><div  id = stim2></div></div>","32","32","750","","test","go","126","adv","","",""
"","-1","-1","1332","0","test_block","poldrack-single-stim","141","212123","0.0-5.0-127.0","go-nogo","true","0","","false","<div class = centerbox><div  id = stim2></div></div>","32","32","750","","test","go","127","adv","","",""
"","-1","-1","1075","0","test_block","poldrack-single-stim","142","213248","0.0-5.0-128.0","go-nogo","true","0","","false","<div class = centerbox><div  id = stim2></div></div>","32","32","750","","test","go","128","adv","","",""
"","-1","-1","1375","0","test_block","poldrack-single-stim","143","214681","0.0-5.0-129.0","go-nogo","true","0","","false","<div class = centerbox><div  id = stim2></div></div>","32","32","750","","test","go","129","adv","","",""
"","-1","-1","1002","0","test_block","poldrack-single-stim","144","215739","0.0-5.0-130.0","go-nogo","true","0","","false","<div class = centerbox><div  id = stim2></div></div>","32","32","750","","test","go","130","adv","","",""
"","-1","-1","1140","0","test_block","poldrack-single-stim","145","216938","0.0-5.0-131.0","go-nogo","true","0","","false","<div class = centerbox><div  id = stim2></div></div>","32","32","750","","test","go","131","adv","","",""
"","-1","-1","1072","0","test_block","poldrack-single-stim","146","218066","0.0-5.0-132.0","go-nogo","true","0","","false","<div class = centerbox><div  id = stim2></div></div>","32","32","750","","test","go","132","adv","","",""
"","-1","-1","1214","0","test_block","poldrack-single-stim","147","219339","0.0-5.0-133.0","go-nogo","true","0","","false","<div class = centerbox><div  id = stim2></div></div>","32","32","750","","test","go","133","adv","","",""
"","-1","-1","1276","0","test_block","poldrack-single-stim","148","220671","0.0-5.0-134.0","go-nogo","true","0","","false","<div class = centerbox><div  id = stim2></div></div>","32","32","750","","test","go","134","adv","","",""
"","-1","-1","1021","0","test_block","poldrack-single-stim","149","221753","0.0-5.0-135.0","go-nogo","true","0","","false","<div class = centerbox><div  id = stim2></div></div>","32","32","750","","test","go","135","adv","","",""
"","-1","-1","1040","0","test_block","poldrack-single-stim","150","222851","0.0-5.0-136.0","go-nogo","true","0","","false","<div class = centerbox><div  id = stim2></div></div>","32","32","750","","test","go","136","adv","","",""
"","-1","-1","1335","0","test_block","poldrack-single-stim","151","224239","0.0-5.0-137.0","go-nogo","true","0","","false","<div class = centerbox><div  id = stim2></div></div>","32","32","750","","test","go","137","adv","","",""
"","-1","-1","1416","0","test_block","poldrack-single-stim","152","225724","0.0-5.0-138.0","go-nogo","true","0","","false","<div class = centerbox><div  id = stim2></div></div>","32","32","750","","test","go","138","adv","","",""
"","-1","-1","1002","0","test_block","poldrack-single-stim","153","226785","0.0-5.0-139.0","go-nogo","true","0","","false","<div class = centerbox><div  id = stim2></div></div>","32","32","750","","test","go","139","adv","","",""
"","-1","-1","1236","0","test_block","poldrack-single-stim","154","228074","0.0-5.0-140.0","go-nogo","true","0","","false","<div class = centerbox><div  id = stim2></div></div>","32","32","750","","test","go","140","adv","","",""
"","-1","-1","1164","0","test_block","poldrack-single-stim","155","229289","0.0-5.0-141.0","go-nogo","true","0","","false","<div class = centerbox><div  id = stim2></div></div>","32","32","750","","test","go","141","adv","","",""
"","-1","-1","1104","0","test_block","poldrack-single-stim","156","230441","0.0-5.0-142.0","go-nogo","true","0","","false","<div class = centerbox><div  id = stim2></div></div>","32","32","750","","test","go","142","adv","","",""
"","-1","-1","1168","0","test_block","poldrack-single-stim","157","231662","0.0-5.0-143.0","go-nogo","true","0","","false","<div class = centerbox><div  id = stim2></div></div>","32","32","750","","test","go","143","adv","","",""
"","-1","-1","1089","0","test_block","poldrack-single-stim","158","232807","0.0-5.0-144.0","go-nogo","true","0","","false","<div class = centerbox><div  id = stim2></div></div>","32","32","750","","test","go","144","adv","","",""
"","-1","-1","1079","0","test_block","poldrack-single-stim","159","233939","0.0-5.0-145.0","go-nogo","true","0","","false","<div class = centerbox><div  id = stim2></div></div>","32","32","750","","test","go","145","adv","","",""
"","-1","-1","1323","0","test_block","poldrack-single-stim","160","235320","0.0-5.0-146.0","go-nogo","true","0","","false","<div class = centerbox><div  id = stim2></div></div>","32","32","750","","test","go","146","adv","","",""
"","-1","-1","1407","0","test_block","poldrack-single-stim","161","236770","0.0-5.0-147.0","go-nogo","true","0","","false","<div class = centerbox><div  id = stim2></div></div>","32","32","750","","test","go","147","adv","","",""
"","-1","-1","1232","0","test_block","poldrack-single-stim","162","238055","0.0-5.0-148.0","go-nogo","true","0","","false","<div class = centerbox><div  id = stim2></div></div>","32","32","750","","test","go","148","adv","","",""
"","-1","-1","1450","0","test_block","poldrack-single-stim","163","239560","0.0-5.0-149.0","go-nogo","true","0","","false","<div class = centerbox><div  id = stim2></div></div>","32","32","750","","test","go","149","adv","","",""
"","-1","-1","1470","0","test_block","poldrack-single-stim","164","241083","0.0-5.0-150.0","go-nogo","true","0","","false","<div class = centerbox><div  id = stim2></div></div>","32","32","750","","test","go","150","adv","","",""
"","-1","-1","1434","0","test_block","poldrack-single-stim","165","242573","0.0-5.0-151.0","go-nogo","true","0","","false","<div class = centerbox><div  id = stim2></div></div>","32","32","750","","test","go","151","adv","","",""
"","-1","-1","1159","0","test_block","poldrack-single-stim","166","243800","0.0-5.0-152.0","go-nogo","true","0","","false","<div class = centerbox><div  id = stim2></div></div>","32","32","750","","test","go","152","adv","","",""
"","-1","-1","1443","0","test_block","poldrack-single-stim","167","245313","0.0-5.0-153.0","go-nogo","true","0","","false","<div class = centerbox><div  id = stim2></div></div>","32","32","750","","test","go","153","adv","","",""
"","-1","-1","1037","0","test_block","poldrack-single-stim","168","246392","0.0-5.0-154.0","go-nogo","true","0","","false","<div class = centerbox><div  id = stim2></div></div>","32","32","750","","test","go","154","adv","","",""
"","-1","-1","1164","0","test_block","poldrack-single-stim","169","247611","0.0-5.0-155.0","go-nogo","true","0","","false","<div class = centerbox><div  id = stim2></div></div>","32","32","750","","test","go","155","adv","","",""
"","-1","-1","1243","0","test_block","poldrack-single-stim","170","248909","0.0-5.0-156.0","go-nogo","true","0","","false","<div class = centerbox><div  id = stim2></div></div>","32","32","750","","test","go","156","adv","","",""
"","-1","-1","1174","0","test_block","poldrack-single-stim","171","250139","0.0-5.0-157.0","go-nogo","true","0","","false","<div class = centerbox><div  id = stim2></div></div>","32","32","750","","test","go","157","adv","","",""
"","-1","-1","1078","0","test_block","poldrack-single-stim","172","251273","0.0-5.0-158.0","go-nogo","true","0","","false","<div class = centerbox><div  id = stim2></div></div>","32","32","750","","test","go","158","adv","","",""
"","-1","-1","1027","0","test_block","poldrack-single-stim","173","252362","0.0-5.0-159.0","go-nogo","true","0","","false","<div class = centerbox><div  id = stim2></div></div>","32","32","750","","test","go","159","adv","","",""
"","-1","-1","1028","0","test_block","poldrack-single-stim","174","253445","0.0-5.0-160.0","go-nogo","true","0","","false","<div class = centerbox><div  id = stim2></div></div>","32","32","750","","test","go","160","adv","","",""
"","-1","-1","1441","0","test_block","poldrack-single-stim","175","254944","0.0-5.0-161.0","go-nogo","true","0","","false","<div class = centerbox><div  id = stim2></div></div>","32","32","750","","test","go","161","adv","","",""
"","-1","-1","1192","0","test_block","poldrack-single-stim","176","256190","0.0-5.0-162.0","go-nogo","true","0","","false","<div class = centerbox><div  id = stim2></div></div>","32","32","750","","test","go","162","adv","","",""
"","-1","-1","1070","0","test_block","poldrack-single-stim","177","257311","0.0-5.0-163.0","go-nogo","true","0","","false","<div class = centerbox><div  id = stim2></div></div>","32","32","750","","test","go","163","adv","","",""
"","-1","-1","1076","0","test_block","poldrack-single-stim","178","258441","0.0-5.0-164.0","go-nogo","true","0","","false","<div class = centerbox><div  id = stim2></div></div>","32","32","750","","test","go","164","adv","","",""
"","-1","-1","1136","0","test_block","poldrack-single-stim","179","259640","0.0-5.0-165.0","go-nogo","true","0","","false","<div class = centerbox><div  id = stim2></div></div>","32","32","750","","test","go","165","adv","","",""
"","-1","-1","1289","0","test_block","poldrack-single-stim","180","260981","0.0-5.0-166.0","go-nogo","true","0","","false","<div class = centerbox><div  id = stim2></div></div>","32","32","750","","test","go","166","adv","","",""
"","-1","-1","1439","0","test_block","poldrack-single-stim","181","262471","0.0-5.0-167.0","go-nogo","true","0","","false","<div class = centerbox><div  id = stim2></div></div>","32","32","750","","test","go","167","adv","","",""
"","-1","-1","1363","0","test_block","poldrack-single-stim","182","263888","0.0-5.0-168.0","go-nogo","true","0","","false","<div class = centerbox><div  id = stim2></div></div>","32","32","750","","test","go","168","adv","","",""
"","-1","-1","1299","0","test_block","poldrack-single-stim","183","265240","0.0-5.0-169.0","go-nogo","true","0","","false","<div class = centerbox><div  id = stim2></div></div>","32","32","750","","test","go","169","adv","","",""
"","-1","-1","1085","0","test_block","poldrack-single-stim","184","266384","0.0-5.0-170.0","go-nogo","true","0","","false","<div class = centerbox><div  id = stim2></div></div>","32","32","750","","test","go","170","adv","","",""
"","-1","-1","1279","0","test_block","poldrack-single-stim","185","267718","0.0-5.0-171.0","go-nogo","true","0","","false","<div class = centerbox><div  id = stim2></div></div>","32","32","750","","test","go","171","adv","","",""
"","-1","-1","1223","0","test_block","poldrack-single-stim","186","269005","0.0-5.0-172.0","go-nogo","true","0","","false","<div class = centerbox><div  id = stim2></div></div>","32","32","750","","test","go","172","adv","","",""
"","-1","-1","1271","0","test_block","poldrack-single-stim","187","270327","0.0-5.0-173.0","go-nogo","true","0","","false","<div class = centerbox><div  id = stim2></div></div>","32","32","750","","test","go","173","adv","","",""
"","-1","-1","1090","0","test_block","poldrack-single-stim","188","271476","0.0-5.0-174.0","go-nogo","true","0","","false","<div class = centerbox><div  id = stim2></div></div>","32","32","750","","test","go","174","adv","","",""
"","-1","-1","1071","0","test_block","poldrack-single-stim","189","272602","0.0-5.0-175.0","go-nogo","true","0","","false","<div class = centerbox><div  id = stim2></div></div>","32","32","750","","test","go","175","adv","","",""
"","-1","-1","1289","0","test_block","poldrack-single-stim","190","273950","0.0-5.0-176.0","go-nogo","true","0","","false","<div class = centerbox><div  id = stim2></div></div>","32","32","750","","test","go","176","adv","","",""
"","-1","-1","1144","0","test_block","poldrack-single-stim","191","275151","0.0-5.0-177.0","go-nogo","true","0","","false","<div class = centerbox><div  id = stim2></div></div>","32","32","750","","test","go","177","adv","","",""
"","-1","-1","1070","0","test_block","poldrack-single-stim","192","276271","0.0-5.0-178.0","go-nogo","true","0","","false","<div class = centerbox><div  id = stim2></div></div>","32","32","750","","test","go","178","adv","","",""
"","-1","-1","1060","0","test_block","poldrack-single-stim","193","277384","0.0-5.0-179.0","go-nogo","true","0","","false","<div class = centerbox><div  id = stim2></div></div>","32","32","750","","test","go","179","adv","","",""
"","-1","-1","1016","0","test_block","poldrack-single-stim","194","278457","0.0-5.0-180.0","go-nogo","true","0","","false","<div class = centerbox><div  id = stim2></div></div>","32","32","750","","test","go","180","adv","","",""
"","-1","-1","1281","0","test_block","poldrack-single-stim","195","279794","0.0-5.0-181.0","go-nogo","true","0","","false","<div class = centerbox><div  id = stim2></div></div>","32","32","750","","test","go","181","adv","","",""
"","-1","-1","1279","0","test_block","poldrack-single-stim","196","281112","0.0-5.0-182.0","go-nogo","true","0","","false","<div class = centerbox><div  id = stim2></div></div>","32","32","750","","test","go","182","adv","","",""
"","-1","-1","1411","0","test_block","poldrack-single-stim","197","282575","0.0-5.0-183.0","go-nogo","true","0","","false","<div class = centerbox><div  id = stim2></div></div>","32","32","750","","test","go","183","adv","","",""
"","-1","-1","1158","0","test_block","poldrack-single-stim","198","283786","0.0-5.0-184.0","go-nogo","true","0","","false","<div class = centerbox><div  id = stim2></div></div>","32","32","750","","test","go","184","adv","","",""
"","-1","-1","1165","0","test_block","poldrack-single-stim","199","285002","0.0-5.0-185.0","go-nogo","true","0","","false","<div class = centerbox><div  id = stim2></div></div>","32","32","750","","test","go","185","adv","","",""
"","-1","-1","1382","0","test_block","poldrack-single-stim","200","286444","0.0-5.0-186.0","go-nogo","true","0","","false","<div class = centerbox><div  id = stim2></div></div>","32","32","750","","test","go","186","adv","","",""
"","-1","-1","1478","0","test_block","poldrack-single-stim","201","287976","0.0-5.0-187.0","go-nogo","true","0","","false","<div class = centerbox><div  id = stim2></div></div>","32","32","750","","test","go","187","adv","","",""
"","-1","-1","1149","0","test_block","poldrack-single-stim","202","289180","0.0-5.0-188.0","go-nogo","true","0","","false","<div class = centerbox><div  id = stim2></div></div>","32","32","750","","test","go","188","adv","","",""
"","-1","-1","1398","0","test_block","poldrack-single-stim","203","290629","0.0-5.0-189.0","go-nogo","true","0","","false","<div class = centerbox><div  id = stim2></div></div>","32","32","750","","test","go","189","adv","","",""
"","-1","-1","1499","0","test_block","poldrack-single-stim","204","292180","0.0-5.0-190.0","go-nogo","true","0","","false","<div class = centerbox><div  id = stim2></div></div>","32","32","750","","test","go","190","adv","","",""
"","-1","-1","1221","0","test_block","poldrack-single-stim","205","293453","0.0-5.0-191.0","go-nogo","true","0","","false","<div class = centerbox><div  id = stim2></div></div>","32","32","750","","test","go","191","adv","","",""
"","-1","-1","1228","0","test_block","poldrack-single-stim","206","294742","0.0-5.0-192.0","go-nogo","true","0","","false","<div class = centerbox><div  id = stim2></div></div>","32","32","750","","test","go","192","adv","","",""
"","-1","-1","1005","0","test_block","poldrack-single-stim","207","295805","0.0-5.0-193.0","go-nogo","true","0","","false","<div class = centerbox><div  id = stim2></div></div>","32","32","750","","test","go","193","adv","","",""
"","-1","-1","1161","0","test_block","poldrack-single-stim","208","297022","0.0-5.0-194.0","go-nogo","true","0","","false","<div class = centerbox><div  id = stim2></div></div>","32","32","750","","test","go","194","adv","","",""
"","-1","-1","1348","0","test_block","poldrack-single-stim","209","298430","0.0-5.0-195.0","go-nogo","true","0","","false","<div class = centerbox><div  id = stim2></div></div>","32","32","750","","test","go","195","adv","","",""
"","-1","-1","1038","0","test_block","poldrack-single-stim","210","299529","0.0-5.0-196.0","go-nogo","true","0","","false","<div class = centerbox><div  id = stim2></div></div>","32","32","750","","test","go","196","adv","","",""
"","-1","-1","1152","0","test_block","poldrack-single-stim","211","300734","0.0-5.0-197.0","go-nogo","true","0","","false","<div class = centerbox><div  id = stim2></div></div>","32","32","750","","test","go","197","adv","","",""
"","-1","-1","1037","0","test_block","poldrack-single-stim","212","301819","0.0-5.0-198.0","go-nogo","true","0","","false","<div class = centerbox><div  id = stim2></div></div>","32","32","750","","test","go","198","adv","","",""
"","-1","-1","1306","0","test_block","poldrack-single-stim","213","303181","0.0-5.0-199.0","go-nogo","true","0","","false","<div class = centerbox><div  id = stim2></div></div>","32","32","750","","test","go","199","adv","","",""
"","-1","-1","1433","0","test_block","poldrack-single-stim","214","304668","0.0-5.0-200.0","go-nogo","true","0","","false","<div class = centerbox><div  id = stim2></div></div>","32","32","750","","test","go","200","adv","","",""
"","-1","-1","1273","0","test_block","poldrack-single-stim","215","305990","0.0-5.0-201.0","go-nogo","true","0","","false","<div class = centerbox><div  id = stim2></div></div>","32","32","750","","test","go","201","adv","","",""
"","-1","-1","1252","0","test_block","poldrack-single-stim","216","307303","0.0-5.0-202.0","go-nogo","true","0","","false","<div class = centerbox><div  id = stim2></div></div>","32","32","750","","test","go","202","adv","","",""
"","-1","-1","1131","0","test_block","poldrack-single-stim","217","308485","0.0-5.0-203.0","go-nogo","true","0","","false","<div class = centerbox><div  id = stim2></div></div>","32","32","750","","test","go","203","adv","","",""
"","-1","-1","1313","0","test_block","poldrack-single-stim","218","309857","0.0-5.0-204.0","go-nogo","true","0","","false","<div class = centerbox><div  id = stim2></div></div>","32","32","750","","test","go","204","adv","","",""
"","-1","-1","1069","0","test_block","poldrack-single-stim","219","310979","0.0-5.0-205.0","go-nogo","true","0","","false","<div class = centerbox><div  id = stim2></div></div>","32","32","750","","test","go","205","adv","","",""
"","-1","-1","1085","0","test_block","poldrack-single-stim","220","312122","0.0-5.0-206.0","go-nogo","true","0","","false","<div class = centerbox><div  id = stim2></div></div>","32","32","750","","test","go","206","adv","","",""
"","-1","-1","1060","0","test_block","poldrack-single-stim","221","313233","0.0-5.0-207.0","go-nogo","true","0","","false","<div class = centerbox><div  id = stim2></div></div>","32","32","750","","test","go","207","adv","","",""
"","-1","-1","1220","0","test_block","poldrack-single-stim","222","314509","0.0-5.0-208.0","go-nogo","true","0","","false","<div class = centerbox><div  id = stim2></div></div>","32","32","750","","test","go","208","adv","","",""
"","-1","-1","1318","0","test_block","poldrack-single-stim","223","315878","0.0-5.0-209.0","go-nogo","true","0","","false","<div class = centerbox><div  id = stim2></div></div>","32","32","750","","test","go","209","adv","","",""
"","-1","-1","1430","0","test_block","poldrack-single-stim","224","317360","0.0-5.0-210.0","go-nogo","true","0","","false","<div class = centerbox><div  id = stim2></div></div>","32","32","750","","test","go","210","adv","","",""
"","-1","-1","1360","0","test_block","poldrack-single-stim","225","318768","0.0-5.0-211.0","go-nogo","true","0","","false","<div class = centerbox><div  id = stim2></div></div>","32","32","750","","test","go","211","adv","","",""
"","-1","-1","1018","0","test_block","poldrack-single-stim","226","319834","0.0-5.0-212.0","go-nogo","true","0","","false","<div class = centerbox><div  id = stim2></div></div>","32","32","750","","test","go","212","adv","","",""
"","-1","-1","1025","0","test_block","poldrack-single-stim","227","320913","0.0-5.0-213.0","go-nogo","true","0","","false","<div class = centerbox><div  id = stim2></div></div>","32","32","750","","test","go","213","adv","","",""
"","-1","-1","1406","0","test_block","poldrack-single-stim","228","322376","0.0-5.0-214.0","go-nogo","true","0","","false","<div class = centerbox><div  id = stim2></div></div>","32","32","750","","test","go","214","adv","","",""
"","-1","-1","1197","0","test_block","poldrack-single-stim","229","323633","0.0-5.0-215.0","go-nogo","true","0","","false","<div class = centerbox><div  id = stim2></div></div>","32","32","750","","test","go","215","adv","","",""
"","-1","-1","1186","0","test_block","poldrack-single-stim","230","324877","0.0-5.0-216.0","go-nogo","true","0","","false","<div class = centerbox><div  id = stim2></div></div>","32","32","750","","test","go","216","adv","","",""
"","-1","-1","1234","0","test_block","poldrack-single-stim","231","326165","0.0-5.0-217.0","go-nogo","true","0","","false","<div class = centerbox><div  id = stim2></div></div>","32","32","750","","test","go","217","adv","","",""
"","-1","-1","1260","0","test_block","poldrack-single-stim","232","327481","0.0-5.0-218.0","go-nogo","true","0","","false","<div class = centerbox><div  id = stim2></div></div>","32","32","750","","test","go","218","adv","","",""
"","-1","-1","1165","0","test_block","poldrack-single-stim","233","328713","0.0-5.0-219.0","go-nogo","true","0","","false","<div class = centerbox><div  id = stim2></div></div>","32","32","750","","test","go","219","adv","","",""
"","-1","-1","1175","0","test_block","poldrack-single-stim","234","329947","0.0-5.0-220.0","go-nogo","true","0","","false","<div class = centerbox><div  id = stim2></div></div>","32","32","750","","test","go","220","adv","","",""
"","-1","-1","1447","0","test_block","poldrack-single-stim","235","331448","0.0-5.0-221.0","go-nogo","true","0","","false","<div class = centerbox><div  id = stim2></div></div>","32","32","750","","test","go","221","adv","","",""
"","-1","-1","1208","0","test_block","poldrack-single-stim","236","332710","0.0-5.0-222.0","go-nogo","true","0","","false","<div class = centerbox><div  id = stim2></div></div>","32","32","750","","test","go","222","adv","","",""
"","-1","-1","1310","0","test_block","poldrack-single-stim","237","334060","0.0-5.0-223.0","go-nogo","true","0","","false","<div class = centerbox><div  id = stim2></div></div>","32","32","750","","test","go","223","adv","","",""
"","-1","-1","1392","0","test_block","poldrack-single-stim","238","335506","0.0-5.0-224.0","go-nogo","true","0","","false","<div class = centerbox><div  id = stim2></div></div>","32","32","750","","test","go","224","adv","","",""
"","-1","-1","1478","0","test_block","poldrack-single-stim","239","337034","0.0-5.0-225.0","go-nogo","true","0","","false","<div class = centerbox><div  id = stim2></div></div>","32","32","750","","test","go","225","adv","","",""
"","-1","-1","1338","0","test_block","poldrack-single-stim","240","338423","0.0-5.0-226.0","go-nogo","true","0","","false","<div class = centerbox><div  id = stim2></div></div>","32","32","750","","test","go","226","adv","","",""
"","-1","-1","1033","0","test_block","poldrack-single-stim","241","339519","0.0-5.0-227.0","go-nogo","true","0","","false","<div class = centerbox><div  id = stim2></div></div>","32","32","750","","test","go","227","adv","","",""
"","-1","-1","1477","0","test_block","poldrack-single-stim","242","341050","0.0-5.0-228.0","go-nogo","true","0","","false","<div class = centerbox><div  id = stim2></div></div>","32","32","750","","test","go","228","adv","","",""
"","-1","-1","1083","0","test_block","poldrack-single-stim","243","342189","0.0-5.0-229.0","go-nogo","true","0","","false","<div class = centerbox><div  id = stim2></div></div>","32","32","750","","test","go","229","adv","","",""
"","-1","-1","1143","0","test_block","poldrack-single-stim","244","343388","0.0-5.0-230.0","go-nogo","true","0","","false","<div class = centerbox><div  id = stim2></div></div>","32","32","750","","test","go","230","adv","","",""
"","-1","-1","1183","0","test_block","poldrack-single-stim","245","344627","0.0-5.0-231.0","go-nogo","true","0","","false","<div class = centerbox><div  id = stim2></div></div>","32","32","750","","test","go","231","adv","","",""
"","-1","-1","1081","0","test_block","poldrack-single-stim","246","345764","0.0-5.0-232.0","go-nogo","true","0","","false","<div class = centerbox><div  id = stim2></div></div>","32","32","750","","test","go","232","adv","","",""
"","-1","-1","1322","0","test_block","poldrack-single-stim","247","347138","0.0-5.0-233.0","go-nogo","true","0","","false","<div class = centerbox><div  id = stim2></div></div>","32","32","750","","test","go","233","adv","","",""
"","-1","-1","1467","0","test_block","poldrack-single-stim","248","348661","0.0-5.0-234.0","go-nogo","true","0","","false","<div class = centerbox><div  id = stim2></div></div>","32","32","750","","test","go","234","adv","","",""
"","-1","-1","1049","0","test_block","poldrack-single-stim","249","349770","0.0-5.0-235.0","go-nogo","true","0","","false","<div class = centerbox><div  id = stim2></div></div>","32","32","750","","test","go","235","adv","","",""
"","-1","-1","1058","0","test_block","poldrack-single-stim","250","350884","0.0-5.0-236.0","go-nogo","true","0","","false","<div class = centerbox><div  id = stim2></div></div>","32","32","750","","test","go","236","adv","","",""
"","-1","-1","1184","0","test_block","poldrack-single-stim","251","352122","0.0-5.0-237.0","go-nogo","true","0","","false","<div class = centerbox><div  id = stim2></div></div>","32","32","750","","test","go","237","adv","","",""
"","-1","-1","1126","0","test_block","poldrack-single-stim","252","353278","0.0-5.0-238.0","go-nogo","true","0","","false","<div class = centerbox><div  id = stim2></div></div>","32","32","750","","test","go","238","adv","","",""
"","-1","-1","1496","0","test_block","poldrack-single-stim","253","354833","0.0-5.0-239.0","go-nogo","true","0","","false","<div class = centerbox><div  id = stim2></div></div>","32","32","750","","test","go","239","adv","","",""
"","-1","-1","1249","0","test_block","poldrack-single-stim","254","356129","0.0-5.0-240.0","go-nogo","true","0","","false","<div class = centerbox><div  id = stim2></div></div>","32","32","750","","test","go","240","adv","","",""
"","-1","-1","1199","0","test_block","poldrack-single-stim","255","357385","0.0-5.0-241.0","go-nogo","true","0","","false","<div class = centerbox><div  id = stim2></div></div>","32","32","750","","test","go","241","adv","","",""
"","-1","-1","1066","0","test_block","poldrack-single-stim","256","358511","0.0-5.0-242.0","go-nogo","true","0","","false","<div class = centerbox><div  id = stim2></div></div>","32","32","750","","test","go","242","adv","","",""
"","-1","-1","1191","0","test_block","poldrack-single-stim","257","359755","0.0-5.0-243.0","go-nogo","true","0","","false","<div class = centerbox><div  id = stim2></div></div>","32","32","750","","test","go","243","adv","","",""
"","-1","-1","1370","0","test_block","poldrack-single-stim","258","361185","0.0-5.0-244.0","go-nogo","true","0","","false","<div class = centerbox><div  id = stim2></div></div>","32","32","750","","test","go","244","adv","","",""
"","-1","-1","1467","0","test_block","poldrack-single-stim","259","362703","0.0-5.0-245.0","go-nogo","true","0","","false","<div class = centerbox><div  id = stim2></div></div>","32","32","750","","test","go","245","adv","","",""
"","-1","-1","1360","0","test_block","poldrack-single-stim","260","364119","0.0-5.0-246.0","go-nogo","true","0","","false","<div class = centerbox><div  id = stim2></div></div>","32","32","750","","test","go","246","adv","","",""
"","-1","-1","1411","0","test_block","poldrack-single-stim","261","365585","0.0-5.0-247.0","go-nogo","true","0","","false","<div class = centerbox><div  id = stim2></div></div>","32","32","750","","test","go","247","adv","","",""
"","-1","-1","1480","0","test_block","poldrack-single-stim","262","367121","0.0-5.0-248.0","go-nogo","true","0","","false","<div class = centerbox><div  id = stim2></div></div>","32","32","750","","test","go","248","adv","","",""
"","-1","-1","1464","0","test_block","poldrack-single-stim","263","368653","0.0-5.0-249.0","go-nogo","true","0","","false","<div class = centerbox><div  id = stim2></div></div>","32","32","750","","test","go","249","adv","","",""
"","-1","-1","1432","0","test_block","poldrack-single-stim","264","370137","0.0-5.0-250.0","go-nogo","true","0","","false","<div class = centerbox><div  id = stim2></div></div>","32","32","750","","test","go","250","adv","","",""
"","-1","-1","1041","0","test_block","poldrack-single-stim","265","371237","0.0-5.0-251.0","go-nogo","true","0","","false","<div class = centerbox><div  id = stim2></div></div>","32","32","750","","test","go","251","adv","","",""
"","-1","-1","1054","0","test_block","poldrack-single-stim","266","372343","0.0-5.0-252.0","go-nogo","true","0","","false","<div class = centerbox><div  id = stim2></div></div>","32","32","750","","test","go","252","adv","","",""
"","-1","-1","1175","0","test_block","poldrack-single-stim","267","373571","0.0-5.0-253.0","go-nogo","true","0","","false","<div class = centerbox><div  id = stim2></div></div>","32","32","750","","test","go","253","adv","","",""
"","-1","-1","1455","0","test_block","poldrack-single-stim","268","375082","0.0-5.0-254.0","go-nogo","true","0","","false","<div class = centerbox><div  id = stim2></div></div>","32","32","750","","test","go","254","adv","","",""
"","-1","-1","1264","0","test_block","poldrack-single-stim","269","376407","0.0-5.0-255.0","go-nogo","true","0","","false","<div class = centerbox><div  id = stim2></div></div>","32","32","750","","test","go","255","adv","","",""
"","-1","-1","1270","0","test_block","poldrack-single-stim","270","377735","0.0-5.0-256.0","go-nogo","true","0","","false","<div class = centerbox><div  id = stim2></div></div>","32","32","750","","test","go","256","adv","","",""
"","-1","-1","1256","0","test_block","poldrack-single-stim","271","379053","0.0-5.0-257.0","go-nogo","true","0","","false","<div class = centerbox><div  id = stim2></div></div>","32","32","750","","test","go","257","adv","","",""
"","-1","-1","1048","0","test_block","poldrack-single-stim","272","380160","0.0-5.0-258.0","go-nogo","true","0","","false","<div class = centerbox><div  id = stim2></div></div>","32","32","750","","test","go","258","adv","","",""
"","-1","-1","1481","0","test_block","poldrack-single-stim","273","381702","0.0-5.0-259.0","go-nogo","true","0","","false","<div class = centerbox><div  id = stim2></div></div>","32","32","750","","test","go","259","adv","","",""
"","-1","-1","1446","0","test_block","poldrack-single-stim","274","383198","0.0-5.0-260.0","go-nogo","true","0","","false","<div class = centerbox><div  id = stim2></div></div>","32","32","750","","test","go","260","adv","","",""
"","-1","-1","1360","0","test_block","poldrack-single-stim","275","384610","0.0-5.0-261.0","go-nogo","true","0","","false","<div class = centerbox><div  id = stim2></div></div>","32","32","750","","test","go","261","adv","","",""
"","-1","-1","1449","0","test_block","poldrack-single-stim","276","386109","0.0-5.0-262.0","go-nogo","true","0","","false","<div class = centerbox><div  id = stim2></div></div>","32","32","750","","test","go","262","adv","","",""
"","-1","-1","1456","0","test_block","poldrack-single-stim","277","387621","0.0-5.0-263.0","go-nogo","true","0","","false","<div class = centerbox><div  id = stim2></div></div>","32","32","750","","test","go","263","adv","","",""
"","-1","-1","1002","0","test_block","poldrack-single-stim","278","388676","0.0-5.0-264.0","go-nogo","true","0","","false","<div class = centerbox><div  id = stim2></div></div>","32","32","750","","test","go","264","adv","","",""
"","-1","-1","1134","0","test_block","poldrack-single-stim","279","389865","0.0-5.0-265.0","go-nogo","true","0","","false","<div class = centerbox><div  id = stim2></div></div>","32","32","750","","test","go","265","adv","","",""
"","-1","-1","1433","0","test_block","poldrack-single-stim","280","391348","0.0-5.0-266.0","go-nogo","true","0","","false","<div class = centerbox><div  id = stim2></div></div>","32","32","750","","test","go","266","adv","","",""
"","-1","-1","1197","0","test_block","poldrack-single-stim","281","392602","0.0-5.0-267.0","go-nogo","true","0","","false","<div class = centerbox><div  id = stim2></div></div>","32","32","750","","test","go","267","adv","","",""
"","-1","-1","1450","0","test_block","poldrack-single-stim","282","394103","0.0-5.0-268.0","go-nogo","true","0","","false","<div class = centerbox><div  id = stim2></div></div>","32","32","750","","test","go","268","adv","","",""
"","-1","-1","1147","0","test_block","poldrack-single-stim","283","395300","0.0-5.0-269.0","go-nogo","true","0","","false","<div class = centerbox><div  id = stim2></div></div>","32","32","750","","test","go","269","adv","","",""
"","-1","-1","1492","0","test_block","poldrack-single-stim","284","396844","0.0-5.0-270.0","go-nogo","true","0","","false","<div class = centerbox><div  id = stim2></div></div>","32","32","750","","test","go","270","adv","","",""
"","-1","-1","1372","0","test_block","poldrack-single-stim","285","398270","0.0-5.0-271.0","go-nogo","true","0","","false","<div class = centerbox><div  id = stim2></div></div>","32","32","750","","test","go","271","adv","","",""
"","-1","-1","1181","0","test_block","poldrack-single-stim","286","399508","0.0-5.0-272.0","go-nogo","true","0","","false","<div class = centerbox><div  id = stim2></div></div>","32","32","750","","test","go","272","adv","","",""
"","-1","-1","1024","0","test_block","poldrack-single-stim","287","400588","0.0-5.0-273.0","go-nogo","true","0","","false","<div class = centerbox><div  id = stim2></div></div>","32","32","750","","test","go","273","adv","","",""
"","-1","-1","1101","0","test_block","poldrack-single-stim","288","401748","0.0-5.0-274.0","go-nogo","true","0","","false","<div class = centerbox><div  id = stim2></div></div>","32","32","750","","test","go","274","adv","","",""
"","-1","-1","1049","0","test_block","poldrack-single-stim","289","402848","0.0-5.0-275.0","go-nogo","true","0","","false","<div class = centerbox><div  id = stim2></div></div>","32","32","750","","test","go","275","adv","","",""
"","-1","-1","1163","0","test_block","poldrack-single-stim","290","404064","0.0-5.0-276.0","go-nogo","true","0","","false","<div class = centerbox><div  id = stim2></div></div>","32","32","750","","test","go","276","adv","","",""
"","-1","-1","1306","0","test_block","poldrack-single-stim","291","405427","0.0-5.0-277.0","go-nogo","true","0","","false","<div class = centerbox><div  id = stim2></div></div>","32","32","750","","test","go","277","adv","","",""
"","-1","-1","1415","0","test_block","poldrack-single-stim","292","406895","0.0-5.0-278.0","go-nogo","true","0","","false","<div class = centerbox><div  id = stim2></div></div>","32","32","750","","test","go","278","adv","","",""
"","-1","-1","1105","0","test_block","poldrack-single-stim","293","408059","0.0-5.0-279.0","go-nogo","true","0","","false","<div class = centerbox><div  id = stim2></div></div>","32","32","750","","test","go","279","adv","","",""
"","-1","-1","1348","0","test_block","poldrack-single-stim","294","409463","0.0-5.0-280.0","go-nogo","true","0","","false","<div class = centerbox><div  id = stim2></div></div>","32","32","750","","test","go","280","adv","","",""
"","-1","-1","1346","0","test_block","poldrack-single-stim","295","410874","0.0-5.0-281.0","go-nogo","true","0","","false","<div class = centerbox><div  id = stim2></div></div>","32","32","750","","test","go","281","adv","","",""
"","-1","-1","1209","0","test_block","poldrack-single-stim","296","412143","0.0-5.0-282.0","go-nogo","true","0","","false","<div class = centerbox><div  id = stim2></div></div>","32","32","750","","test","go","282","adv","","",""
"","-1","-1","1046","0","test_block","poldrack-single-stim","297","413247","0.0-5.0-283.0","go-nogo","true","0","","false","<div class = centerbox><div  id = stim2></div></div>","32","32","750","","test","go","283","adv","","",""
"","-1","-1","1293","0","test_block","poldrack-single-stim","298","414603","0.0-5.0-284.0","go-nogo","true","0","","false","<div class = centerbox><div  id = stim2></div></div>","32","32","750","","test","go","284","adv","","",""
"","-1","-1","1283","0","test_block","poldrack-single-stim","299","415937","0.0-5.0-285.0","go-nogo","true","0","","false","<div class = centerbox><div  id = stim2></div></div>","32","32","750","","test","go","285","adv","","",""
"","-1","-1","1382","0","test_block","poldrack-single-stim","300","417369","0.0-5.0-286.0","go-nogo","true","0","","false","<div class = centerbox><div  id = stim2></div></div>","32","32","750","","test","go","286","adv","","",""
"","-1","-1","1368","0","test_block","poldrack-single-stim","301","418791","0.0-5.0-287.0","go-nogo","true","0","","false","<div class = centerbox><div  id = stim2></div></div>","32","32","750","","test","go","287","adv","","",""
"","-1","-1","1138","0","test_block","poldrack-single-stim","302","419984","0.0-5.0-288.0","go-nogo","true","0","","false","<div class = centerbox><div  id = stim2></div></div>","32","32","750","","test","go","288","adv","","",""
"","-1","-1","1102","0","test_block","poldrack-single-stim","303","421138","0.0-5.0-289.0","go-nogo","true","0","","false","<div class = centerbox><div  id = stim2></div></div>","32","32","750","","test","go","289","adv","","",""
"","-1","-1","1045","0","test_block","poldrack-single-stim","304","422240","0.0-5.0-290.0","go-nogo","true","0","","false","<div class = centerbox><div  id = stim2></div></div>","32","32","750","","test","go","290","adv","","",""
"","-1","-1","1328","0","test_block","poldrack-single-stim","305","423632","0.0-5.0-291.0","go-nogo","true","0","","false","<div class = centerbox><div  id = stim2></div></div>","32","32","750","","test","go","291","adv","","",""
"","-1","-1","1019","0","test_block","poldrack-single-stim","306","424707","0.0-5.0-292.0","go-nogo","true","0","","false","<div class = centerbox><div  id = stim2></div></div>","32","32","750","","test","go","292","adv","","",""
"","-1","-1","1245","0","test_block","poldrack-single-stim","307","425997","0.0-5.0-293.0","go-nogo","true","0","","false","<div class = centerbox><div  id = stim2></div></div>","32","32","750","","test","go","293","adv","","",""
"","-1","-1","1467","0","test_block","poldrack-single-stim","308","427523","0.0-5.0-294.0","go-nogo","true","0","","false","<div class = centerbox><div  id = stim2></div></div>","32","32","750","","test","go","294","adv","","",""
"","-1","-1","1405","0","test_block","poldrack-single-stim","309","428977","0.0-5.0-295.0","go-nogo","true","0","","false","<div class = centerbox><div  id = stim2></div></div>","32","32","750","","test","go","295","adv","","",""
"","-1","-1","1243","0","test_block","poldrack-single-stim","310","430273","0.0-5.0-296.0","go-nogo","true","0","","false","<div class = centerbox><div  id = stim2></div></div>","32","32","750","","test","go","296","adv","","",""
"","-1","-1","1371","0","test_block","poldrack-single-stim","311","431700","0.0-5.0-297.0","go-nogo","true","0","","false","<div class = centerbox><div  id = stim2></div></div>","32","32","750","","test","go","297","adv","","",""
"","-1","-1","1329","0","test_block","poldrack-single-stim","312","433086","0.0-5.0-298.0","go-nogo","true","0","","false","<div class = centerbox><div  id = stim2></div></div>","32","32","750","","test","go","298","adv","","",""
"","-1","-1","1393","0","test_block","poldrack-single-stim","313","434532","0.0-5.0-299.0","go-nogo","true","0","","false","<div class = centerbox><div  id = stim2></div></div>","32","32","750","","test","go","299","adv","","",""
"","-1","-1","1086","0","test_block","poldrack-single-stim","314","435670","0.0-5.0-300.0","go-nogo","true","0","","false","<div class = centerbox><div  id = stim2></div></div>","32","32","750","","test","go","300","adv","","",""
"","-1","-1","1339","0","test_block","poldrack-single-stim","315","437062","0.0-5.0-301.0","go-nogo","true","0","","false","<div class = centerbox><div  id = stim2></div></div>","32","32","750","","test","go","301","adv","","",""
"","-1","-1","1108","0","test_block","poldrack-single-stim","316","438230","0.0-5.0-302.0","go-nogo","true","0","","false","<div class = centerbox><div  id = stim2></div></div>","32","32","750","","test","go","302","adv","","",""
"","-1","-1","1478","0","test_block","poldrack-single-stim","317","439770","0.0-5.0-303.0","go-nogo","true","0","","false","<div class = centerbox><div  id = stim2></div></div>","32","32","750","","test","go","303","adv","","",""
"","-1","-1","1466","0","test_block","poldrack-single-stim","318","441293","0.0-5.0-304.0","go-nogo","true","0","","false","<div class = centerbox><div  id = stim2></div></div>","32","32","750","","test","go","304","adv","","",""
"","-1","-1","1127","0","test_block","poldrack-single-stim","319","442478","0.0-5.0-305.0","go-nogo","true","0","","false","<div class = centerbox><div  id = stim2></div></div>","32","32","750","","test","go","305","adv","","",""
"","-1","-1","1433","0","test_block","poldrack-single-stim","320","443965","0.0-5.0-306.0","go-nogo","true","0","","false","<div class = centerbox><div  id = stim2></div></div>","32","32","750","","test","go","306","adv","","",""
"","-1","-1","1232","0","test_block","poldrack-single-stim","321","445255","0.0-5.0-307.0","go-nogo","true","0","","false","<div class = centerbox><div  id = stim2></div></div>","32","32","750","","test","go","307","adv","","",""
"","-1","-1","1048","0","test_block","poldrack-single-stim","322","446369","0.0-5.0-308.0","go-nogo","true","0","","false","<div class = centerbox><div  id = stim2></div></div>","32","32","750","","test","go","308","adv","","",""
"","-1","-1","1356","0","test_block","poldrack-single-stim","323","447783","0.0-5.0-309.0","go-nogo","true","0","","false","<div class = centerbox><div  id = stim2></div></div>","32","32","750","","test","go","309","adv","","",""
"","-1","-1","1040","0","test_block","poldrack-single-stim","324","448878","0.0-5.0-310.0","go-nogo","true","0","","false","<div class = centerbox><div  id = stim2></div></div>","32","32","750","","test","go","310","adv","","",""
"","-1","-1","1172","0","test_block","poldrack-single-stim","325","450102","0.0-5.0-311.0","go-nogo","true","0","","false","<div class = centerbox><div  id = stim2></div></div>","32","32","750","","test","go","311","adv","","",""
"","-1","-1","1210","0","test_block","poldrack-single-stim","326","451364","0.0-5.0-312.0","go-nogo","true","0","","false","<div class = centerbox><div  id = stim2></div></div>","32","32","750","","test","go","312","adv","","",""
"","-1","-1","1412","0","test_block","poldrack-single-stim","327","452827","0.0-5.0-313.0","go-nogo","true","0","","false","<div class = centerbox><div  id = stim2></div></div>","32","32","750","","test","go","313","adv","","",""
"","-1","-1","1411","0","test_block","poldrack-single-stim","328","454290","0.0-5.0-314.0","go-nogo","true","0","","false","<div class = centerbox><div  id = stim2></div></div>","32","32","750","","test","go","314","adv","","",""
"","-1","-1","1411","0","test_block","poldrack-single-stim","329","455761","0.0-5.0-315.0","go-nogo","true","0","","true","<div class = centerbox><div  id = stim1></div></div>","-1","32","750","","test","nogo","315","adv","","",""
"","-1","-1","1465","0","test_block","poldrack-single-stim","330","457302","0.0-5.0-316.0","go-nogo","true","0","","true","<div class = centerbox><div  id = stim1></div></div>","-1","32","750","","test","nogo","316","adv","","",""
"","-1","-1","1125","0","test_block","poldrack-single-stim","331","458480","0.0-5.0-317.0","go-nogo","true","0","","true","<div class = centerbox><div  id = stim1></div></div>","-1","32","750","","test","nogo","317","adv","","",""
"","-1","-1","1148","0","test_block","poldrack-single-stim","332","459689","0.0-5.0-318.0","go-nogo","true","0","","true","<div class = centerbox><div  id = stim1></div></div>","-1","32","750","","test","nogo","318","adv","","",""
"","-1","-1","1396","0","test_block","poldrack-single-stim","333","461138","0.0-5.0-319.0","go-nogo","true","0","","true","<div class = centerbox><div  id = stim1></div></div>","-1","32","750","","test","nogo","319","adv","","",""
"","-1","-1","1301","0","test_block","poldrack-single-stim","334","462493","0.0-5.0-320.0","go-nogo","true","0","","true","<div class = centerbox><div  id = stim1></div></div>","-1","32","750","","test","nogo","320","adv","","",""
"","-1","-1","1375","0","test_block","poldrack-single-stim","335","463921","0.0-5.0-321.0","go-nogo","true","0","","true","<div class = centerbox><div  id = stim1></div></div>","-1","32","750","","test","nogo","321","adv","","",""
"","-1","-1","1013","0","test_block","poldrack-single-stim","336","464990","0.0-5.0-322.0","go-nogo","true","0","","true","<div class = centerbox><div  id = stim1></div></div>","-1","32","750","","test","nogo","322","adv","","",""
"","-1","-1","1340","0","test_block","poldrack-single-stim","337","466393","0.0-5.0-323.0","go-nogo","true","0","","true","<div class = centerbox><div  id = stim1></div></div>","-1","32","750","","test","nogo","323","adv","","",""
"","-1","-1","1060","0","test_block","poldrack-single-stim","338","467503","0.0-5.0-324.0","go-nogo","true","0","","true","<div class = centerbox><div  id = stim1></div></div>","-1","32","750","","test","nogo","324","adv","","",""
"","-1","-1","1479","0","test_block","poldrack-single-stim","339","469035","0.0-5.0-325.0","go-nogo","true","0","","true","<div class = centerbox><div  id = stim1></div></div>","-1","32","750","","test","nogo","325","adv","","",""
"","-1","-1","1243","0","test_block","poldrack-single-stim","340","470327","0.0-5.0-326.0","go-nogo","true","0","","true","<div class = centerbox><div  id = stim1></div></div>","-1","32","750","","test","nogo","326","adv","","",""
"","-1","-1","1228","0","test_block","poldrack-single-stim","341","471587","0.0-5.0-327.0","go-nogo","true","0","","true","<div class = centerbox><div  id = stim1></div></div>","-1","32","750","","test","nogo","327","adv","","",""
"","-1","-1","1062","0","test_block","poldrack-single-stim","342","472699","0.0-5.0-328.0","go-nogo","true","0","","true","<div class = centerbox><div  id = stim1></div></div>","-1","32","750","","test","nogo","328","adv","","",""
"","-1","-1","1150","0","test_block","poldrack-single-stim","343","473906","0.0-5.0-329.0","go-nogo","true","0","","true","<div class = centerbox><div  id = stim1></div></div>","-1","32","750","","test","nogo","329","adv","","",""
"","-1","-1","1418","0","test_block","poldrack-single-stim","344","475383","0.0-5.0-330.0","go-nogo","true","0","","true","<div class = centerbox><div  id = stim1></div></div>","-1","32","750","","test","nogo","330","adv","","",""
"","-1","-1","1284","0","test_block","poldrack-single-stim","345","476723","0.0-5.0-331.0","go-nogo","true","0","","true","<div class = centerbox><div  id = stim1></div></div>","-1","32","750","","test","nogo","331","adv","","",""
"","-1","-1","1192","0","test_block","poldrack-single-stim","346","477967","0.0-5.0-332.0","go-nogo","true","0","","true","<div class = centerbox><div  id = stim1></div></div>","-1","32","750","","test","nogo","332","adv","","",""
"","-1","-1","1388","0","test_block","poldrack-single-stim","347","479408","0.0-5.0-333.0","go-nogo","true","0","","true","<div class = centerbox><div  id = stim1></div></div>","-1","32","750","","test","nogo","333","adv","","",""
"","-1","-1","1207","0","test_block","poldrack-single-stim","348","480669","0.0-5.0-334.0","go-nogo","true","0","","true","<div class = centerbox><div  id = stim1></div></div>","-1","32","750","","test","nogo","334","adv","","",""
"","-1","-1","1041","0","test_block","poldrack-single-stim","349","481758","0.0-5.0-335.0","go-nogo","true","0","","true","<div class = centerbox><div  id = stim1></div></div>","-1","32","750","","test","nogo","335","adv","","",""
"","-1","-1","1137","0","test_block","poldrack-single-stim","350","482949","0.0-5.0-336.0","go-nogo","true","0","","true","<div class = centerbox><div  id = stim1></div></div>","-1","32","750","","test","nogo","336","adv","","",""
"","-1","-1","1308","0","test_block","poldrack-single-stim","351","484312","0.0-5.0-337.0","go-nogo","true","0","","true","<div class = centerbox><div  id = stim1></div></div>","-1","32","750","","test","nogo","337","adv","","",""
"","-1","-1","1406","0","test_block","poldrack-single-stim","352","485774","0.0-5.0-338.0","go-nogo","true","0","","true","<div class = centerbox><div  id = stim1></div></div>","-1","32","750","","test","nogo","338","adv","","",""
"","-1","-1","1126","0","test_block","poldrack-single-stim","353","486953","0.0-5.0-339.0","go-nogo","true","0","","true","<div class = centerbox><div  id = stim1></div></div>","-1","32","750","","test","nogo","339","adv","","",""
"","-1","-1","1178","0","test_block","poldrack-single-stim","354","488192","0.0-5.0-340.0","go-nogo","true","0","","true","<div class = centerbox><div  id = stim1></div></div>","-1","32","750","","test","nogo","340","adv","","",""
"","-1","-1","1443","0","test_block","poldrack-single-stim","355","489704","0.0-5.0-341.0","go-nogo","true","0","","true","<div class = centerbox><div  id = stim1></div></div>","-1","32","750","","test","nogo","341","adv","","",""
"","-1","-1","1318","0","test_block","poldrack-single-stim","356","491073","0.0-5.0-342.0","go-nogo","true","0","","true","<div class = centerbox><div  id = stim1></div></div>","-1","32","750","","test","nogo","342","adv","","",""
"","-1","-1","1390","0","test_block","poldrack-single-stim","357","492519","0.0-5.0-343.0","go-nogo","true","0","","true","<div class = centerbox><div  id = stim1></div></div>","-1","32","750","","test","nogo","343","adv","","",""
"","-1","-1","1371","0","test_block","poldrack-single-stim","358","493944","0.0-5.0-344.0","go-nogo","true","0","","true","<div class = centerbox><div  id = stim1></div></div>","-1","32","750","","test","nogo","344","adv","","",""
"","-1","-1","1164","0","test_block","poldrack-single-stim","359","495169","0.0-5.0-345.0","go-nogo","true","0","","true","<div class = centerbox><div  id = stim1></div></div>","-1","32","750","","test","nogo","345","adv","","",""
"","-1","-1","1447","0","test_block","poldrack-single-stim","360","496672","0.0-5.0-346.0","go-nogo","true","0","","true","<div class = centerbox><div  id = stim1></div></div>","-1","32","750","","test","nogo","346","adv","","",""
"","-1","-1","1213","0","test_block","poldrack-single-stim","361","497947","0.0-5.0-347.0","go-nogo","true","0","","true","<div class = centerbox><div  id = stim1></div></div>","-1","32","750","","test","nogo","347","adv","","",""
"","-1","-1","1472","0","test_block","poldrack-single-stim","362","499473","0.0-5.0-348.0","go-nogo","true","0","","true","<div class = centerbox><div  id = stim1></div></div>","-1","32","750","","test","nogo","348","adv","","",""
"","-1","-1","1470","0","test_block","poldrack-single-stim","363","500999","0.0-5.0-349.0","go-nogo","true","0","","true","<div class = centerbox><div  id = stim1></div></div>","-1","32","750","","test","nogo","349","adv","","",""
"","31082","","","","post task questions","survey-text","364","532149","0.0-7.0","go-nogo","true","1","","","","","","","","","","","","{""Q0"":""NORTHI]NGQ"",""Q1"":""NI]CE""}","",""
"<div class = centerbox><p class = center-block-text>Thanks for completing this task!</p><p class = center-block-text>Insert the following code to collect your payment at Amazon Mechanical Turk:</p><p class = center-block-text>629211317</p><p class = center-block-text>Press <strong>enter</strong> to continue.</p></div>","10671","13","10671","0","end","poldrack-text","365","543823","0.0-8.0","go-nogo","true","2","","","","","","","","","","","","","629211317","false"
