"text","rt","key_press","block_duration","timing_post_trial","trial_id","trial_type","trial_index","time_elapsed","internal_node_id","exp_id","full_screen","focus_shifts","view_history","correct","stimulus","correct_response","possible_responses","stim_duration","feedback_duration","exp_stage","condition","trial_num","mode","responses","payment_id","credit_var"
"<div class = centerbox><p class = center-block-text>Welcome to the experiment. This task will take around 10 minutes. Press <strong>enter</strong> to begin.</p></div>","3803","13","3803","0","instruction","poldrack-text","0","3809","0.0-0.0-0.0","go-nogo","true","0","","","","","","","","","","","","","",""
"","14566","","","","instruction","poldrack-instructions","1","18378","0.0-0.0-1.0","go-nogo","true","0","[{""page_index"":0,""viewing_time"":14565}]","","","","","","","","","","","","",""
"","-1","-1","1277","250","practice","poldrack-categorize","2","21664","0.0-1.0-0.0","go-nogo","true","0","","true","<div class = centerbox><div id = stim2></div></div>","-1","32","750","1000","practice","nogo","0","random","","",""
"","-1","-1","1214","250","practice","poldrack-categorize","3","24132","0.0-1.0-1.0","go-nogo","true","0","","false","<div class = centerbox><div  id = stim1></div></div>","32","32","750","1000","practice","go","1","random","","",""
"","-1","-1","1437","250","practice","poldrack-categorize","4","26822","0.0-1.0-2.0","go-nogo","true","0","","true","<div class = centerbox><div id = stim2></div></div>","-1","32","750","1000","practice","nogo","2","random","","",""
"","-1","-1","1284","250","practice","poldrack-categorize","5","29360","0.0-1.0-3.0","go-nogo","true","0","","false","<div class = centerbox><div  id = stim1></div></div>","32","32","750","1000","practice","go","3","random","","",""
"","-1","-1","1286","250","practice","poldrack-categorize","6","31899","0.0-1.0-4.0","go-nogo","true","0","","true","<div class = centerbox><div id = stim2></div></div>","-1","32","750","1000","practice","nogo","4","random","","",""
"","-1","-1","1310","250","practice","poldrack-categorize","7","34463","0.0-1.0-5.0","go-nogo","true","0","","true","<div class = centerbox><div id = stim2></div></div>","-1","32","750","1000","practice","nogo","5","random","","",""
"","-1","-1","1381","250","practice","poldrack-categorize","8","37096","0.0-1.0-6.0","go-nogo","true","0","","false","<div class = centerbox><div  id = stim1></div></div>","32","32","750","1000","practice","go","6","random","","",""
"","-1","-1","1367","250","practice","poldrack-categorize","9","39716","0.0-1.0-7.0","go-nogo","true","0","","false","<div class = centerbox><div  id = stim1></div></div>","32","32","750","1000","practice","go","7","random","","",""
"","-1","-1","1151","250","practice","poldrack-categorize","10","42120","0.0-1.0-8.0","go-nogo","true","0","","true","<div class = centerbox><div id = stim2></div></div>","-1","32","750","1000","practice","nogo","8","random","","",""
"","-1","-1","1048","250","practice","poldrack-categorize","11","44422","0.0-1.0-9.0","go-nogo","true","0","","false","<div class = centerbox><div  id = stim1></div></div>","32","32","750","1000","practice","go","9","random","","",""
"","","","","","reset_trial","call-function","12","44673","0.0-3.0","go-nogo","true","0","","","","","","","","","","","","","",""
"<div class = centerbox><p class = block-text>Practice is over, we will now begin the experiment. You will no longer get feedback about your responses.</p><p class = block-text>Remember, if you see the <font color=""orange"">orange</font> square you should <strong> respond by pressing the spacebar as quickly as possible</strong>. If you see the <font color=""blue"">blue</font> square you should <strong> not respond</strong>. Press <strong>enter</strong> to begin.</p></div>","19677","13","19677","1000","test_intro","poldrack-text","13","64352","0.0-4.0","go-nogo","true","0","","","","","","","","","","","","","",""
"","-1","-1","1253","0","test_block","poldrack-single-stim","14","66608","0.0-5.0-0.0","go-nogo","true","0","","false","<div class = centerbox><div  id = stim1></div></div>","32","32","750","","test","go","0","random","","",""
"","-1","-1","1280","0","test_block","poldrack-single-stim","15","67932","0.0-5.0-1.0","go-nogo","true","0","","false","<div class = centerbox><div  id = stim1></div></div>","32","32","750","","test","go","1","random","","",""
"","-1","-1","1214","0","test_block","poldrack-single-stim","16","69172","0.0-5.0-2.0","go-nogo","true","0","","false","<div class = centerbox><div  id = stim1></div></div>","32","32","750","","test","go","2","random","","",""
"","-1","-1","1464","0","test_block","poldrack-single-stim","17","70661","0.0-5.0-3.0","go-nogo","true","0","","false","<div class = centerbox><div  id = stim1></div></div>","32","32","750","","test","go","3","random","","",""
"","-1","-1","1496","0","test_block","poldrack-single-stim","18","72181","0.0-5.0-4.0","go-nogo","true","0","","false","<div class = centerbox><div  id = stim1></div></div>","32","32","750","","test","go","4","random","","",""
"","-1","-1","1180","0","test_block","poldrack-single-stim","19","73382","0.0-5.0-5.0","go-nogo","true","0","","false","<div class = centerbox><div  id = stim1></div></div>","32","32","750","","test","go","5","random","","",""
"","-1","-1","1039","0","test_block","poldrack-single-stim","20","74451","0.0-5.0-6.0","go-nogo","true","0","","false","<div class = centerbox><div  id = stim1></div></div>","32","32","750","","test","go","6","random","","",""
"","-1","-1","1342","0","test_block","poldrack-single-stim","21","75817","0.0-5.0-7.0","go-nogo","true","0","","false","<div class = centerbox><div  id = stim1></div></div>","32","32","750","","test","go","7","random","","",""
"","-1","-1","1418","0","test_block","poldrack-single-stim","22","77254","0.0-5.0-8.0","go-nogo","true","0","","false","<div class = centerbox><div  id = stim1></div></div>","32","32","750","","test","go","8","random","","",""
"","-1","-1","1007","0","test_block","poldrack-single-stim","23","78294","0.0-5.0-9.0","go-nogo","true","0","","false","<div class = centerbox><div  id = stim1></div></div>","32","32","750","","test","go","9","random","","",""
"","-1","-1","1282","0","test_block","poldrack-single-stim","24","79595","0.0-5.0-10.0","go-nogo","true","0","","false","<div class = centerbox><div  id = stim1></div></div>","32","32","750","","test","go","10","random","","",""
"","-1","-1","1421","0","test_block","poldrack-single-stim","25","81033","0.0-5.0-11.0","go-nogo","true","0","","false","<div class = centerbox><div  id = stim1></div></div>","32","32","750","","test","go","11","random","","",""
"","-1","-1","1311","0","test_block","poldrack-single-stim","26","82360","0.0-5.0-12.0","go-nogo","true","0","","false","<div class = centerbox><div  id = stim1></div></div>","32","32","750","","test","go","12","random","","",""
"","-1","-1","1025","0","test_block","poldrack-single-stim","27","83408","0.0-5.0-13.0","go-nogo","true","0","","false","<div class = centerbox><div  id = stim1></div></div>","32","32","750","","test","go","13","random","","",""
"","-1","-1","1378","0","test_block","poldrack-single-stim","28","84800","0.0-5.0-14.0","go-nogo","true","0","","false","<div class = centerbox><div  id = stim1></div></div>","32","32","750","","test","go","14","random","","",""
"","-1","-1","1223","0","test_block","poldrack-single-stim","29","86041","0.0-5.0-15.0","go-nogo","true","0","","false","<div class = centerbox><div  id = stim1></div></div>","32","32","750","","test","go","15","random","","",""
"","-1","-1","1248","0","test_block","poldrack-single-stim","30","87313","0.0-5.0-16.0","go-nogo","true","0","","false","<div class = centerbox><div  id = stim1></div></div>","32","32","750","","test","go","16","random","","",""
"","-1","-1","1382","0","test_block","poldrack-single-stim","31","88709","0.0-5.0-17.0","go-nogo","true","0","","false","<div class = centerbox><div  id = stim1></div></div>","32","32","750","","test","go","17","random","","",""
"","-1","-1","1353","0","test_block","poldrack-single-stim","32","90078","0.0-5.0-18.0","go-nogo","true","0","","false","<div class = centerbox><div  id = stim1></div></div>","32","32","750","","test","go","18","random","","",""
"","-1","-1","1300","0","test_block","poldrack-single-stim","33","91393","0.0-5.0-19.0","go-nogo","true","0","","true","<div class = centerbox><div  id = stim2></div></div>","-1","32","750","","test","nogo","19","random","","",""
"","-1","-1","1206","0","test_block","poldrack-single-stim","34","92611","0.0-5.0-20.0","go-nogo","true","0","","false","<div class = centerbox><div  id = stim1></div></div>","32","32","750","","test","go","20","random","","",""
"","-1","-1","1366","0","test_block","poldrack-single-stim","35","93989","0.0-5.0-21.0","go-nogo","true","0","","false","<div class = centerbox><div  id = stim1></div></div>","32","32","750","","test","go","21","random","","",""
"","-1","-1","1113","0","test_block","poldrack-single-stim","36","95121","0.0-5.0-22.0","go-nogo","true","0","","false","<div class = centerbox><div  id = stim1></div></div>","32","32","750","","test","go","22","random","","",""
"","-1","-1","1036","0","test_block","poldrack-single-stim","37","96170","0.0-5.0-23.0","go-nogo","true","0","","false","<div class = centerbox><div  id = stim1></div></div>","32","32","750","","test","go","23","random","","",""
"","-1","-1","1010","0","test_block","poldrack-single-stim","38","97194","0.0-5.0-24.0","go-nogo","true","0","","false","<div class = centerbox><div  id = stim1></div></div>","32","32","750","","test","go","24","random","","",""
"","-1","-1","1395","0","test_block","poldrack-single-stim","39","98601","0.0-5.0-25.0","go-nogo","true","0","","false","<div class = centerbox><div  id = stim1></div></div>","32","32","750","","test","go","25","random","","",""
"","-1","-1","1008","0","test_block","poldrack-single-stim","40","99622","0.0-5.0-26.0","go-nogo","true","0","","false","<div class = centerbox><div  id = stim1></div></div>","32","32","750","","test","go","26","random","","",""
"","-1","-1","1262","0","test_block","poldrack-single-stim","41","100896","0.0-5.0-27.0","go-nogo","true","0","","false","<div class = centerbox><div  id = stim1></div></div>","32","32","750","","test","go","27","random","","",""
"","-1","-1","1331","0","test_block","poldrack-single-stim","42","102240","0.0-5.0-28.0","go-nogo","true","0","","false","<div class = centerbox><div  id = stim1></div></div>","32","32","750","","test","go","28","random","","",""
"","-1","-1","1286","0","test_block","poldrack-single-stim","43","103539","0.0-5.0-29.0","go-nogo","true","0","","false","<div class = centerbox><div  id = stim1></div></div>","32","32","750","","test","go","29","random","","",""
"","-1","-1","1107","0","test_block","poldrack-single-stim","44","104659","0.0-5.0-30.0","go-nogo","true","0","","false","<div class = centerbox><div  id = stim1></div></div>","32","32","750","","test","go","30","random","","",""
"","-1","-1","1361","0","test_block","poldrack-single-stim","45","106032","0.0-5.0-31.0","go-nogo","true","0","","false","<div class = centerbox><div  id = stim1></div></div>","32","32","750","","test","go","31","random","","",""
"","-1","-1","1341","0","test_block","poldrack-single-stim","46","107389","0.0-5.0-32.0","go-nogo","true","0","","true","<div class = centerbox><div  id = stim2></div></div>","-1","32","750","","test","nogo","32","random","","",""
"","-1","-1","1186","0","test_block","poldrack-single-stim","47","108588","0.0-5.0-33.0","go-nogo","true","0","","false","<div class = centerbox><div  id = stim1></div></div>","32","32","750","","test","go","33","random","","",""
"","-1","-1","1458","0","test_block","poldrack-single-stim","48","110064","0.0-5.0-34.0","go-nogo","true","0","","false","<div class = centerbox><div  id = stim1></div></div>","32","32","750","","test","go","34","random","","",""
"","-1","-1","1221","0","test_block","poldrack-single-stim","49","111298","0.0-5.0-35.0","go-nogo","true","0","","false","<div class = centerbox><div  id = stim1></div></div>","32","32","750","","test","go","35","random","","",""
"","-1","-1","1043","0","test_block","poldrack-single-stim","50","112354","0.0-5.0-36.0","go-nogo","true","0","","false","<div class = centerbox><div  id = stim1></div></div>","32","32","750","","test","go","36","random","","",""
"","-1","-1","1155","0","test_block","poldrack-single-stim","51","113521","0.0-5.0-37.0","go-nogo","true","0","","false","<div class = centerbox><div  id = stim1></div></div>","32","32","750","","test","go","37","random","","",""
"","-1","-1","1050","0","test_block","poldrack-single-stim","52","114585","0.0-5.0-38.0","go-nogo","true","0","","false","<div class = centerbox><div  id = stim1></div></div>","32","32","750","","test","go","38","random","","",""
"","-1","-1","1377","0","test_block","poldrack-single-stim","53","115978","0.0-5.0-39.0","go-nogo","true","0","","false","<div class = centerbox><div  id = stim1></div></div>","32","32","750","","test","go","39","random","","",""
"","-1","-1","1421","0","test_block","poldrack-single-stim","54","117414","0.0-5.0-40.0","go-nogo","true","0","","false","<div class = centerbox><div  id = stim1></div></div>","32","32","750","","test","go","40","random","","",""
"","-1","-1","1229","0","test_block","poldrack-single-stim","55","118655","0.0-5.0-41.0","go-nogo","true","0","","false","<div class = centerbox><div  id = stim1></div></div>","32","32","750","","test","go","41","random","","",""
"","-1","-1","1237","0","test_block","poldrack-single-stim","56","119903","0.0-5.0-42.0","go-nogo","true","0","","false","<div class = centerbox><div  id = stim1></div></div>","32","32","750","","test","go","42","random","","",""
"","-1","-1","1247","0","test_block","poldrack-single-stim","57","121160","0.0-5.0-43.0","go-nogo","true","0","","false","<div class = centerbox><div  id = stim1></div></div>","32","32","750","","test","go","43","random","","",""
"","-1","-1","1202","0","test_block","poldrack-single-stim","58","122380","0.0-5.0-44.0","go-nogo","true","0","","false","<div class = centerbox><div  id = stim1></div></div>","32","32","750","","test","go","44","random","","",""
"","-1","-1","1488","0","test_block","poldrack-single-stim","59","123880","0.0-5.0-45.0","go-nogo","true","0","","false","<div class = centerbox><div  id = stim1></div></div>","32","32","750","","test","go","45","random","","",""
"","-1","-1","1147","0","test_block","poldrack-single-stim","60","125042","0.0-5.0-46.0","go-nogo","true","0","","false","<div class = centerbox><div  id = stim1></div></div>","32","32","750","","test","go","46","random","","",""
"","-1","-1","1085","0","test_block","poldrack-single-stim","61","126141","0.0-5.0-47.0","go-nogo","true","0","","false","<div class = centerbox><div  id = stim1></div></div>","32","32","750","","test","go","47","random","","",""
"","-1","-1","1272","0","test_block","poldrack-single-stim","62","127426","0.0-5.0-48.0","go-nogo","true","0","","false","<div class = centerbox><div  id = stim1></div></div>","32","32","750","","test","go","48","random","","",""
"","-1","-1","1240","0","test_block","poldrack-single-stim","63","128680","0.0-5.0-49.0","go-nogo","true","0","","false","<div class = centerbox><div  id = stim1></div></div>","32","32","750","","test","go","49","random","","",""
"","-1","-1","1321","0","test_block","poldrack-single-stim","64","130010","0.0-5.0-50.0","go-nogo","true","0","","true","<div class = centerbox><div  id = stim2></div></div>","-1","32","750","","test","nogo","50","random","","",""
"","-1","-1","1395","0","test_block","poldrack-single-stim","65","131421","0.0-5.0-51.0","go-nogo","true","0","","false","<div class = centerbox><div  id = stim1></div></div>","32","32","750","","test","go","51","random","","",""
"","-1","-1","1015","0","test_block","poldrack-single-stim","66","132454","0.0-5.0-52.0","go-nogo","true","0","","false","<div class = centerbox><div  id = stim1></div></div>","32","32","750","","test","go","52","random","","",""
"","-1","-1","1494","0","test_block","poldrack-single-stim","67","133964","0.0-5.0-53.0","go-nogo","true","0","","false","<div class = centerbox><div  id = stim1></div></div>","32","32","750","","test","go","53","random","","",""
"","-1","-1","1104","0","test_block","poldrack-single-stim","68","135083","0.0-5.0-54.0","go-nogo","true","0","","false","<div class = centerbox><div  id = stim1></div></div>","32","32","750","","test","go","54","random","","",""
"","-1","-1","1137","0","test_block","poldrack-single-stim","69","136230","0.0-5.0-55.0","go-nogo","true","0","","false","<div class = centerbox><div  id = stim1></div></div>","32","32","750","","test","go","55","random","","",""
"","-1","-1","1118","0","test_block","poldrack-single-stim","70","137358","0.0-5.0-56.0","go-nogo","true","0","","false","<div class = centerbox><div  id = stim1></div></div>","32","32","750","","test","go","56","random","","",""
"","-1","-1","1247","0","test_block","poldrack-single-stim","71","138617","0.0-5.0-57.0","go-nogo","true","0","","false","<div class = centerbox><div  id = stim1></div></div>","32","32","750","","test","go","57","random","","",""
"","-1","-1","1423","0","test_block","poldrack-single-stim","72","140049","0.0-5.0-58.0","go-nogo","true","0","","false","<div class = centerbox><div  id = stim1></div></div>","32","32","750","","test","go","58","random","","",""
"","-1","-1","1297","0","test_block","poldrack-single-stim","73","141358","0.0-5.0-59.0","go-nogo","true","0","","false","<div class = centerbox><div  id = stim1></div></div>","32","32","750","","test","go","59","random","","",""
"","-1","-1","1274","0","test_block","poldrack-single-stim","74","142648","0.0-5.0-60.0","go-nogo","true","0","","false","<div class = centerbox><div  id = stim1></div></div>","32","32","750","","test","go","60","random","","",""
"","-1","-1","1253","0","test_block","poldrack-single-stim","75","143910","0.0-5.0-61.0","go-nogo","true","0","","false","<div class = centerbox><div  id = stim1></div></div>","32","32","750","","test","go","61","random","","",""
"","-1","-1","1143","0","test_block","poldrack-single-stim","76","145065","0.0-5.0-62.0","go-nogo","true","0","","false","<div class = centerbox><div  id = stim1></div></div>","32","32","750","","test","go","62","random","","",""
"","-1","-1","1289","0","test_block","poldrack-single-stim","77","146362","0.0-5.0-63.0","go-nogo","true","0","","false","<div class = centerbox><div  id = stim1></div></div>","32","32","750","","test","go","63","random","","",""
"","-1","-1","1421","0","test_block","poldrack-single-stim","78","147793","0.0-5.0-64.0","go-nogo","true","0","","false","<div class = centerbox><div  id = stim1></div></div>","32","32","750","","test","go","64","random","","",""
"","-1","-1","1331","0","test_block","poldrack-single-stim","79","149134","0.0-5.0-65.0","go-nogo","true","0","","false","<div class = centerbox><div  id = stim1></div></div>","32","32","750","","test","go","65","random","","",""
"","-1","-1","1423","0","test_block","poldrack-single-stim","80","150571","0.0-5.0-66.0","go-nogo","true","0","","false","<div class = centerbox><div  id = stim1></div></div>","32","32","750","","test","go","66","random","","",""
"","-1","-1","1420","0","test_block","poldrack-single-stim","81","151999","0.0-5.0-67.0","go-nogo","true","0","","false","<div class = centerbox><div  id = stim1></div></div>","32","32","750","","test","go","67","random","","",""
"","-1","-1","1251","0","test_block","poldrack-single-stim","82","153260","0.0-5.0-68.0","go-nogo","true","0","","false","<div class = centerbox><div  id = stim1></div></div>","32","32","750","","test","go","68","random","","",""
"","-1","-1","1301","0","test_block","poldrack-single-stim","83","154571","0.0-5.0-69.0","go-nogo","true","0","","false","<div class = centerbox><div  id = stim1></div></div>","32","32","750","","test","go","69","random","","",""
"","-1","-1","1241","0","test_block","poldrack-single-stim","84","155831","0.0-5.0-70.0","go-nogo","true","0","","false","<div class = centerbox><div  id = stim1></div></div>","32","32","750","","test","go","70","random","","",""
"","-1","-1","1136","0","test_block","poldrack-single-stim","85","156976","0.0-5.0-71.0","go-nogo","true","0","","false","<div class = centerbox><div  id = stim1></div></div>","32","32","750","","test","go","71","random","","",""
"","-1","-1","1426","0","test_block","poldrack-single-stim","86","158412","0.0-5.0-72.0","go-nogo","true","0","","false","<div class = centerbox><div  id = stim1></div></div>","32","32","750","","test","go","72","random","","",""
"","-1","-1","1122","0","test_block","poldrack-single-stim","87","159543","0.0-5.0-73.0","go-nogo","true","0","","false","<div class = centerbox><div  id = stim1></div></div>","32","32","750","","test","go","73","random","","",""
"","-1","-1","1016","0","test_block","poldrack-single-stim","88","160568","0.0-5.0-74.0","go-nogo","true","0","","false","<div class = centerbox><div  id = stim1></div></div>","32","32","750","","test","go","74","random","","",""
"","-1","-1","1166","0","test_block","poldrack-single-stim","89","161743","0.0-5.0-75.0","go-nogo","true","0","","false","<div class = centerbox><div  id = stim1></div></div>","32","32","750","","test","go","75","random","","",""
"","-1","-1","1219","0","test_block","poldrack-single-stim","90","162972","0.0-5.0-76.0","go-nogo","true","0","","false","<div class = centerbox><div  id = stim1></div></div>","32","32","750","","test","go","76","random","","",""
"","-1","-1","1157","0","test_block","poldrack-single-stim","91","164138","0.0-5.0-77.0","go-nogo","true","0","","true","<div class = centerbox><div  id = stim2></div></div>","-1","32","750","","test","nogo","77","random","","",""
"","-1","-1","1295","0","test_block","poldrack-single-stim","92","165444","0.0-5.0-78.0","go-nogo","true","0","","false","<div class = centerbox><div  id = stim1></div></div>","32","32","750","","test","go","78","random","","",""
"","-1","-1","1073","0","test_block","poldrack-single-stim","93","166526","0.0-5.0-79.0","go-nogo","true","0","","true","<div class = centerbox><div  id = stim2></div></div>","-1","32","750","","test","nogo","79","random","","",""
"","-1","-1","1428","0","test_block","poldrack-single-stim","94","167962","0.0-5.0-80.0","go-nogo","true","0","","false","<div class = centerbox><div  id = stim1></div></div>","32","32","750","","test","go","80","random","","",""
"","-1","-1","1332","0","test_block","poldrack-single-stim","95","169305","0.0-5.0-81.0","go-nogo","true","0","","false","<div class = centerbox><div  id = stim1></div></div>","32","32","750","","test","go","81","random","","",""
"","-1","-1","1093","0","test_block","poldrack-single-stim","96","170407","0.0-5.0-82.0","go-nogo","true","0","","false","<div class = centerbox><div  id = stim1></div></div>","32","32","750","","test","go","82","random","","",""
"","-1","-1","1109","0","test_block","poldrack-single-stim","97","171536","0.0-5.0-83.0","go-nogo","true","0","","false","<div class = centerbox><div  id = stim1></div></div>","32","32","750","","test","go","83","random","","",""
"","-1","-1","1265","0","test_block","poldrack-single-stim","98","172812","0.0-5.0-84.0","go-nogo","true","0","","false","<div class = centerbox><div  id = stim1></div></div>","32","32","750","","test","go","84","random","","",""
"","-1","-1","1451","0","test_block","poldrack-single-stim","99","174272","0.0-5.0-85.0","go-nogo","true","0","","false","<div class = centerbox><div  id = stim1></div></div>","32","32","750","","test","go","85","random","","",""
"","-1","-1","1052","0","test_block","poldrack-single-stim","100","175335","0.0-5.0-86.0","go-nogo","true","0","","true","<div class = centerbox><div  id = stim2></div></div>","-1","32","750","","test","nogo","86","random","","",""
"","-1","-1","1066","0","test_block","poldrack-single-stim","101","176411","0.0-5.0-87.0","go-nogo","true","0","","false","<div class = centerbox><div  id = stim1></div></div>","32","32","750","","test","go","87","random","","",""
"","-1","-1","1101","0","test_block","poldrack-single-stim","102","177521","0.0-5.0-88.0","go-nogo","true","0","","false","<div class = centerbox><div  id = stim1></div></div>","32","32","750","","test","go","88","random","","",""
"","-1","-1","1212","0","test_block","poldrack-single-stim","103","178743","0.0-5.0-89.0","go-nogo","true","0","","false","<div class = centerbox><div  id = stim1></div></div>","32","32","750","","test","go","89","random","","",""
"","-1","-1","1046","0","test_block","poldrack-single-stim","104","179798","0.0-5.0-90.0","go-nogo","true","0","","false","<div class = centerbox><div  id = stim1></div></div>","32","32","750","","test","go","90","random","","",""
"","-1","-1","1063","0","test_block","poldrack-single-stim","105","180870","0.0-5.0-91.0","go-nogo","true","0","","false","<div class = centerbox><div  id = stim1></div></div>","32","32","750","","test","go","91","random","","",""
"","-1","-1","1199","0","test_block","poldrack-single-stim","106","182080","0.0-5.0-92.0","go-nogo","true","0","","false","<div class = centerbox><div  id = stim1></div></div>","32","32","750","","test","go","92","random","","",""
"","-1","-1","1251","0","test_block","poldrack-single-stim","107","183340","0.0-5.0-93.0","go-nogo","true","0","","false","<div class = centerbox><div  id = stim1></div></div>","32","32","750","","test","go","93","random","","",""
"","-1","-1","1005","0","test_block","poldrack-single-stim","108","184356","0.0-5.0-94.0","go-nogo","true","0","","false","<div class = centerbox><div  id = stim1></div></div>","32","32","750","","test","go","94","random","","",""
"","-1","-1","1136","0","test_block","poldrack-single-stim","109","185502","0.0-5.0-95.0","go-nogo","true","0","","false","<div class = centerbox><div  id = stim1></div></div>","32","32","750","","test","go","95","random","","",""
"","-1","-1","1015","0","test_block","poldrack-single-stim","110","186525","0.0-5.0-96.0","go-nogo","true","0","","false","<div class = centerbox><div  id = stim1></div></div>","32","32","750","","test","go","96","random","","",""
"","-1","-1","1355","0","test_block","poldrack-single-stim","111","187890","0.0-5.0-97.0","go-nogo","true","0","","false","<div class = centerbox><div  id = stim1></div></div>","32","32","750","","test","go","97","random","","",""
"","-1","-1","1320","0","test_block","poldrack-single-stim","112","189219","0.0-5.0-98.0","go-nogo","true","0","","true","<div class = centerbox><div  id = stim2></div></div>","-1","32","750","","test","nogo","98","random","","",""
"","-1","-1","1334","0","test_block","poldrack-single-stim","113","190563","0.0-5.0-99.0","go-nogo","true","0","","false","<div class = centerbox><div  id = stim1></div></div>","32","32","750","","test","go","99","random","","",""
"","-1","-1","1071","0","test_block","poldrack-single-stim","114","191644","0.0-5.0-100.0","go-nogo","true","0","","false","<div class = centerbox><div  id = stim1></div></div>","32","32","750","","test","go","100","random","","",""
"","-1","-1","1440","0","test_block","poldrack-single-stim","115","193093","0.0-5.0-101.0","go-nogo","true","0","","false","<div class = centerbox><div  id = stim1></div></div>","32","32","750","","test","go","101","random","","",""
"","-1","-1","1092","0","test_block","poldrack-single-stim","116","194195","0.0-5.0-102.0","go-nogo","true","0","","false","<div class = centerbox><div  id = stim1></div></div>","32","32","750","","test","go","102","random","","",""
"","-1","-1","1356","0","test_block","poldrack-single-stim","117","195561","0.0-5.0-103.0","go-nogo","true","0","","false","<div class = centerbox><div  id = stim1></div></div>","32","32","750","","test","go","103","random","","",""
"","-1","-1","1131","0","test_block","poldrack-single-stim","118","196700","0.0-5.0-104.0","go-nogo","true","0","","false","<div class = centerbox><div  id = stim1></div></div>","32","32","750","","test","go","104","random","","",""
"","-1","-1","1237","0","test_block","poldrack-single-stim","119","197947","0.0-5.0-105.0","go-nogo","true","0","","false","<div class = centerbox><div  id = stim1></div></div>","32","32","750","","test","go","105","random","","",""
"","-1","-1","1416","0","test_block","poldrack-single-stim","120","199373","0.0-5.0-106.0","go-nogo","true","0","","false","<div class = centerbox><div  id = stim1></div></div>","32","32","750","","test","go","106","random","","",""
"","-1","-1","1360","0","test_block","poldrack-single-stim","121","200743","0.0-5.0-107.0","go-nogo","true","0","","false","<div class = centerbox><div  id = stim1></div></div>","32","32","750","","test","go","107","random","","",""
"","-1","-1","1413","0","test_block","poldrack-single-stim","122","202165","0.0-5.0-108.0","go-nogo","true","0","","false","<div class = centerbox><div  id = stim1></div></div>","32","32","750","","test","go","108","random","","",""
"","-1","-1","1438","0","test_block","poldrack-single-stim","123","203619","0.0-5.0-109.0","go-nogo","true","0","","false","<div class = centerbox><div  id = stim1></div></div>","32","32","750","","test","go","109","random","","",""
"","-1","-1","1302","0","test_block","poldrack-single-stim","124","204937","0.0-5.0-110.0","go-nogo","true","0","","false","<div class = centerbox><div  id = stim1></div></div>","32","32","750","","test","go","110","random","","",""
"","-1","-1","1347","0","test_block","poldrack-single-stim","125","206294","0.0-5.0-111.0","go-nogo","true","0","","false","<div class = centerbox><div  id = stim1></div></div>","32","32","750","","test","go","111","random","","",""
"","-1","-1","1061","0","test_block","poldrack-single-stim","126","207364","0.0-5.0-112.0","go-nogo","true","0","","true","<div class = centerbox><div  id = stim2></div></div>","-1","32","750","","test","nogo","112","random","","",""
"","-1","-1","1348","0","test_block","poldrack-single-stim","127","208724","0.0-5.0-113.0","go-nogo","true","0","","true","<div class = centerbox><div  id = stim2></div></div>","-1","32","750","","test","nogo","113","random","","",""
"","-1","-1","1067","0","test_block","poldrack-single-stim","128","209799","0.0-5.0-114.0","go-nogo","true","0","","false","<div class = centerbox><div  id = stim1></div></div>","32","32","750","","test","go","114","random","","",""
"","-1","-1","1324","0","test_block","poldrack-single-stim","129","211135","0.0-5.0-115.0","go-nogo","true","0","","false","<div class = centerbox><div  id = stim1></div></div>","32","32","750","","test","go","115","random","","",""
"","-1","-1","1291","0","test_block","poldrack-single-stim","130","212438","0.0-5.0-116.0","go-nogo","true","0","","false","<div class = centerbox><div  id = stim1></div></div>","32","32","750","","test","go","116","random","","",""
"","-1","-1","1384","0","test_block","poldrack-single-stim","131","213832","0.0-5.0-117.0","go-nogo","true","0","","false","<div class = centerbox><div  id = stim1></div></div>","32","32","750","","test","go","117","random","","",""
"","-1","-1","1205","0","test_block","poldrack-single-stim","132","215046","0.0-5.0-118.0","go-nogo","true","0","","false","<div class = centerbox><div  id = stim1></div></div>","32","32","750","","test","go","118","random","","",""
"","-1","-1","1280","0","test_block","poldrack-single-stim","133","216337","0.0-5.0-119.0","go-nogo","true","0","","false","<div class = centerbox><div  id = stim1></div></div>","32","32","750","","test","go","119","random","","",""
"","-1","-1","1087","0","test_block","poldrack-single-stim","134","217435","0.0-5.0-120.0","go-nogo","true","0","","false","<div class = centerbox><div  id = stim1></div></div>","32","32","750","","test","go","120","random","","",""
"","-1","-1","1329","0","test_block","poldrack-single-stim","135","218773","0.0-5.0-121.0","go-nogo","true","0","","false","<div class = centerbox><div  id = stim1></div></div>","32","32","750","","test","go","121","random","","",""
"","-1","-1","1472","0","test_block","poldrack-single-stim","136","220254","0.0-5.0-122.0","go-nogo","true","0","","true","<div class = centerbox><div  id = stim2></div></div>","-1","32","750","","test","nogo","122","random","","",""
"","-1","-1","1248","0","test_block","poldrack-single-stim","137","221512","0.0-5.0-123.0","go-nogo","true","0","","false","<div class = centerbox><div  id = stim1></div></div>","32","32","750","","test","go","123","random","","",""
"","-1","-1","1327","0","test_block","poldrack-single-stim","138","222849","0.0-5.0-124.0","go-nogo","true","0","","false","<div class = centerbox><div  id = stim1></div></div>","32","32","750","","test","go","124","random","","",""
"","-1","-1","1260","0","test_block","poldrack-single-stim","139","224118","0.0-5.0-125.0","go-nogo","true","0","","false","<div class = centerbox><div  id = stim1></div></div>","32","32","750","","test","go","125","random","","",""
"","-1","-1","1496","0","test_block","poldrack-single-stim","140","225625","0.0-5.0-126.0","go-nogo","true","0","","true","<div class = centerbox><div  id = stim2></div></div>","-1","32","750","","test","nogo","126","random","","",""
"","-1","-1","1255","0","test_block","poldrack-single-stim","141","226891","0.0-5.0-127.0","go-nogo","true","0","","false","<div class = centerbox><div  id = stim1></div></div>","32","32","750","","test","go","127","random","","",""
"","-1","-1","1156","0","test_block","poldrack-single-stim","142","228055","0.0-5.0-128.0","go-nogo","true","0","","false","<div class = centerbox><div  id = stim1></div></div>","32","32","750","","test","go","128","random","","",""
"","-1","-1","1391","0","test_block","poldrack-single-stim","143","229455","0.0-5.0-129.0","go-nogo","true","0","","false","<div class = centerbox><div  id = stim1></div></div>","32","32","750","","test","go","129","random","","",""
"","-1","-1","1245","0","test_block","poldrack-single-stim","144","230710","0.0-5.0-130.0","go-nogo","true","0","","false","<div class = centerbox><div  id = stim1></div></div>","32","32","750","","test","go","130","random","","",""
"","-1","-1","1316","0","test_block","poldrack-single-stim","145","232035","0.0-5.0-131.0","go-nogo","true","0","","false","<div class = centerbox><div  id = stim1></div></div>","32","32","750","","test","go","131","random","","",""
"","-1","-1","1366","0","test_block","poldrack-single-stim","146","233414","0.0-5.0-132.0","go-nogo","true","0","","false","<div class = centerbox><div  id = stim1></div></div>","32","32","750","","test","go","132","random","","",""
"","-1","-1","1015","0","test_block","poldrack-single-stim","147","234445","0.0-5.0-133.0","go-nogo","true","0","","false","<div class = centerbox><div  id = stim1></div></div>","32","32","750","","test","go","133","random","","",""
"","-1","-1","1001","0","test_block","poldrack-single-stim","148","235454","0.0-5.0-134.0","go-nogo","true","0","","false","<div class = centerbox><div  id = stim1></div></div>","32","32","750","","test","go","134","random","","",""
"","-1","-1","1220","0","test_block","poldrack-single-stim","149","236684","0.0-5.0-135.0","go-nogo","true","0","","false","<div class = centerbox><div  id = stim1></div></div>","32","32","750","","test","go","135","random","","",""
"","-1","-1","1491","0","test_block","poldrack-single-stim","150","238184","0.0-5.0-136.0","go-nogo","true","0","","false","<div class = centerbox><div  id = stim1></div></div>","32","32","750","","test","go","136","random","","",""
"","-1","-1","1332","0","test_block","poldrack-single-stim","151","239525","0.0-5.0-137.0","go-nogo","true","0","","false","<div class = centerbox><div  id = stim1></div></div>","32","32","750","","test","go","137","random","","",""
"","-1","-1","1025","0","test_block","poldrack-single-stim","152","240565","0.0-5.0-138.0","go-nogo","true","0","","false","<div class = centerbox><div  id = stim1></div></div>","32","32","750","","test","go","138","random","","",""
"","-1","-1","1331","0","test_block","poldrack-single-stim","153","241906","0.0-5.0-139.0","go-nogo","true","0","","false","<div class = centerbox><div  id = stim1></div></div>","32","32","750","","test","go","139","random","","",""
"","-1","-1","1367","0","test_block","poldrack-single-stim","154","243282","0.0-5.0-140.0","go-nogo","true","0","","false","<div class = centerbox><div  id = stim1></div></div>","32","32","750","","test","go","140","random","","",""
"","-1","-1","1275","0","test_block","poldrack-single-stim","155","244567","0.0-5.0-141.0","go-nogo","true","0","","false","<div class = centerbox><div  id = stim1></div></div>","32","32","750","","test","go","141","random","","",""
"","-1","-1","1498","0","test_block","poldrack-single-stim","156","246073","0.0-5.0-142.0","go-nogo","true","0","","false","<div class = centerbox><div  id = stim1></div></div>","32","32","750","","test","go","142","random","","",""
"","-1","-1","1080","0","test_block","poldrack-single-stim","157","247164","0.0-5.0-143.0","go-nogo","true","0","","false","<div class = centerbox><div  id = stim1></div></div>","32","32","750","","test","go","143","random","","",""
"","-1","-1","1166","0","test_block","poldrack-single-stim","158","248338","0.0-5.0-144.0","go-nogo","true","0","","true","<div class = centerbox><div  id = stim2></div></div>","-1","32","750","","test","nogo","144","random","","",""
"","-1","-1","1137","0","test_block","poldrack-single-stim","159","249485","0.0-5.0-145.0","go-nogo","true","0","","false","<div class = centerbox><div  id = stim1></div></div>","32","32","750","","test","go","145","random","","",""
"","-1","-1","1110","0","test_block","poldrack-single-stim","160","250604","0.0-5.0-146.0","go-nogo","true","0","","false","<div class = centerbox><div  id = stim1></div></div>","32","32","750","","test","go","146","random","","",""
"","-1","-1","1279","0","test_block","poldrack-single-stim","161","251892","0.0-5.0-147.0","go-nogo","true","0","","false","<div class = centerbox><div  id = stim1></div></div>","32","32","750","","test","go","147","random","","",""
"","-1","-1","1396","0","test_block","poldrack-single-stim","162","253296","0.0-5.0-148.0","go-nogo","true","0","","true","<div class = centerbox><div  id = stim2></div></div>","-1","32","750","","test","nogo","148","random","","",""
"","-1","-1","1293","0","test_block","poldrack-single-stim","163","254605","0.0-5.0-149.0","go-nogo","true","0","","false","<div class = centerbox><div  id = stim1></div></div>","32","32","750","","test","go","149","random","","",""
"","-1","-1","1492","0","test_block","poldrack-single-stim","164","256106","0.0-5.0-150.0","go-nogo","true","0","","false","<div class = centerbox><div  id = stim1></div></div>","32","32","750","","test","go","150","random","","",""
"","-1","-1","1212","0","test_block","poldrack-single-stim","165","257328","0.0-5.0-151.0","go-nogo","true","0","","false","<div class = centerbox><div  id = stim1></div></div>","32","32","750","","test","go","151","random","","",""
"","-1","-1","1426","0","test_block","poldrack-single-stim","166","258763","0.0-5.0-152.0","go-nogo","true","0","","false","<div class = centerbox><div  id = stim1></div></div>","32","32","750","","test","go","152","random","","",""
"","-1","-1","1132","0","test_block","poldrack-single-stim","167","259904","0.0-5.0-153.0","go-nogo","true","0","","false","<div class = centerbox><div  id = stim1></div></div>","32","32","750","","test","go","153","random","","",""
"","-1","-1","1421","0","test_block","poldrack-single-stim","168","261335","0.0-5.0-154.0","go-nogo","true","0","","false","<div class = centerbox><div  id = stim1></div></div>","32","32","750","","test","go","154","random","","",""
"","-1","-1","1463","0","test_block","poldrack-single-stim","169","262813","0.0-5.0-155.0","go-nogo","true","0","","false","<div class = centerbox><div  id = stim1></div></div>","32","32","750","","test","go","155","random","","",""
"","-1","-1","1270","0","test_block","poldrack-single-stim","170","264091","0.0-5.0-156.0","go-nogo","true","0","","true","<div class = centerbox><div  id = stim2></div></div>","-1","32","750","","test","nogo","156","random","","",""
"","-1","-1","1196","0","test_block","poldrack-single-stim","171","265309","0.0-5.0-157.0","go-nogo","true","0","","false","<div class = centerbox><div  id = stim1></div></div>","32","32","750","","test","go","157","random","","",""
"","-1","-1","1082","0","test_block","poldrack-single-stim","172","266402","0.0-5.0-158.0","go-nogo","true","0","","false","<div class = centerbox><div  id = stim1></div></div>","32","32","750","","test","go","158","random","","",""
"","-1","-1","1188","0","test_block","poldrack-single-stim","173","267600","0.0-5.0-159.0","go-nogo","true","0","","false","<div class = centerbox><div  id = stim1></div></div>","32","32","750","","test","go","159","random","","",""
"","-1","-1","1197","0","test_block","poldrack-single-stim","174","268806","0.0-5.0-160.0","go-nogo","true","0","","false","<div class = centerbox><div  id = stim1></div></div>","32","32","750","","test","go","160","random","","",""
"","-1","-1","1428","0","test_block","poldrack-single-stim","175","270250","0.0-5.0-161.0","go-nogo","true","0","","false","<div class = centerbox><div  id = stim1></div></div>","32","32","750","","test","go","161","random","","",""
"","-1","-1","1491","0","test_block","poldrack-single-stim","176","271751","0.0-5.0-162.0","go-nogo","true","0","","false","<div class = centerbox><div  id = stim1></div></div>","32","32","750","","test","go","162","random","","",""
"","-1","-1","1497","0","test_block","poldrack-single-stim","177","273257","0.0-5.0-163.0","go-nogo","true","0","","false","<div class = centerbox><div  id = stim1></div></div>","32","32","750","","test","go","163","random","","",""
"","-1","-1","1293","0","test_block","poldrack-single-stim","178","274560","0.0-5.0-164.0","go-nogo","true","0","","false","<div class = centerbox><div  id = stim1></div></div>","32","32","750","","test","go","164","random","","",""
"","-1","-1","1359","0","test_block","poldrack-single-stim","179","275930","0.0-5.0-165.0","go-nogo","true","0","","true","<div class = centerbox><div  id = stim2></div></div>","-1","32","750","","test","nogo","165","random","","",""
"","-1","-1","1010","0","test_block","poldrack-single-stim","180","276947","0.0-5.0-166.0","go-nogo","true","0","","true","<div class = centerbox><div  id = stim2></div></div>","-1","32","750","","test","nogo","166","random","","",""
"","-1","-1","1324","0","test_block","poldrack-single-stim","181","278279","0.0-5.0-167.0","go-nogo","true","0","","false","<div class = centerbox><div  id = stim1></div></div>","32","32","750","","test","go","167","random","","",""
"","-1","-1","1251","0","test_block","poldrack-single-stim","182","279541","0.0-5.0-168.0","go-nogo","true","0","","false","<div class = centerbox><div  id = stim1></div></div>","32","32","750","","test","go","168","random","","",""
"","-1","-1","1218","0","test_block","poldrack-single-stim","183","280766","0.0-5.0-169.0","go-nogo","true","0","","false","<div class = centerbox><div  id = stim1></div></div>","32","32","750","","test","go","169","random","","",""
"","-1","-1","1382","0","test_block","poldrack-single-stim","184","282157","0.0-5.0-170.0","go-nogo","true","0","","false","<div class = centerbox><div  id = stim1></div></div>","32","32","750","","test","go","170","random","","",""
"","-1","-1","1105","0","test_block","poldrack-single-stim","185","283270","0.0-5.0-171.0","go-nogo","true","0","","false","<div class = centerbox><div  id = stim1></div></div>","32","32","750","","test","go","171","random","","",""
"","-1","-1","1010","0","test_block","poldrack-single-stim","186","284288","0.0-5.0-172.0","go-nogo","true","0","","false","<div class = centerbox><div  id = stim1></div></div>","32","32","750","","test","go","172","random","","",""
"","-1","-1","1497","0","test_block","poldrack-single-stim","187","285795","0.0-5.0-173.0","go-nogo","true","0","","false","<div class = centerbox><div  id = stim1></div></div>","32","32","750","","test","go","173","random","","",""
"","-1","-1","1406","0","test_block","poldrack-single-stim","188","287209","0.0-5.0-174.0","go-nogo","true","0","","false","<div class = centerbox><div  id = stim1></div></div>","32","32","750","","test","go","174","random","","",""
"","-1","-1","1461","0","test_block","poldrack-single-stim","189","288680","0.0-5.0-175.0","go-nogo","true","0","","false","<div class = centerbox><div  id = stim1></div></div>","32","32","750","","test","go","175","random","","",""
"","-1","-1","1236","0","test_block","poldrack-single-stim","190","289925","0.0-5.0-176.0","go-nogo","true","0","","false","<div class = centerbox><div  id = stim1></div></div>","32","32","750","","test","go","176","random","","",""
"","-1","-1","1440","0","test_block","poldrack-single-stim","191","291373","0.0-5.0-177.0","go-nogo","true","0","","true","<div class = centerbox><div  id = stim2></div></div>","-1","32","750","","test","nogo","177","random","","",""
"","-1","-1","1376","0","test_block","poldrack-single-stim","192","292757","0.0-5.0-178.0","go-nogo","true","0","","false","<div class = centerbox><div  id = stim1></div></div>","32","32","750","","test","go","178","random","","",""
"","-1","-1","1482","0","test_block","poldrack-single-stim","193","294257","0.0-5.0-179.0","go-nogo","true","0","","false","<div class = centerbox><div  id = stim1></div></div>","32","32","750","","test","go","179","random","","",""
"","-1","-1","1196","0","test_block","poldrack-single-stim","194","295462","0.0-5.0-180.0","go-nogo","true","0","","false","<div class = centerbox><div  id = stim1></div></div>","32","32","750","","test","go","180","random","","",""
"","-1","-1","1338","0","test_block","poldrack-single-stim","195","296809","0.0-5.0-181.0","go-nogo","true","0","","false","<div class = centerbox><div  id = stim1></div></div>","32","32","750","","test","go","181","random","","",""
"","-1","-1","1352","0","test_block","poldrack-single-stim","196","298169","0.0-5.0-182.0","go-nogo","true","0","","false","<div class = centerbox><div  id = stim1></div></div>","32","32","750","","test","go","182","random","","",""
"","-1","-1","1322","0","test_block","poldrack-single-stim","197","299504","0.0-5.0-183.0","go-nogo","true","0","","false","<div class = centerbox><div  id = stim1></div></div>","32","32","750","","test","go","183","random","","",""
"","-1","-1","1029","0","test_block","poldrack-single-stim","198","300542","0.0-5.0-184.0","go-nogo","true","0","","false","<div class = centerbox><div  id = stim1></div></div>","32","32","750","","test","go","184","random","","",""
"","-1","-1","1326","0","test_block","poldrack-single-stim","199","301876","0.0-5.0-185.0","go-nogo","true","0","","false","<div class = centerbox><div  id = stim1></div></div>","32","32","750","","test","go","185","random","","",""
"","-1","-1","1498","0","test_block","poldrack-single-stim","200","303383","0.0-5.0-186.0","go-nogo","true","0","","false","<div class = centerbox><div  id = stim1></div></div>","32","32","750","","test","go","186","random","","",""
"","-1","-1","1258","0","test_block","poldrack-single-stim","201","304650","0.0-5.0-187.0","go-nogo","true","0","","false","<div class = centerbox><div  id = stim1></div></div>","32","32","750","","test","go","187","random","","",""
"","-1","-1","1464","0","test_block","poldrack-single-stim","202","306125","0.0-5.0-188.0","go-nogo","true","0","","false","<div class = centerbox><div  id = stim1></div></div>","32","32","750","","test","go","188","random","","",""
"","-1","-1","1379","0","test_block","poldrack-single-stim","203","307513","0.0-5.0-189.0","go-nogo","true","0","","false","<div class = centerbox><div  id = stim1></div></div>","32","32","750","","test","go","189","random","","",""
"","-1","-1","1082","0","test_block","poldrack-single-stim","204","308604","0.0-5.0-190.0","go-nogo","true","0","","false","<div class = centerbox><div  id = stim1></div></div>","32","32","750","","test","go","190","random","","",""
"","-1","-1","1261","0","test_block","poldrack-single-stim","205","309877","0.0-5.0-191.0","go-nogo","true","0","","false","<div class = centerbox><div  id = stim1></div></div>","32","32","750","","test","go","191","random","","",""
"","-1","-1","1317","0","test_block","poldrack-single-stim","206","311202","0.0-5.0-192.0","go-nogo","true","0","","false","<div class = centerbox><div  id = stim1></div></div>","32","32","750","","test","go","192","random","","",""
"","-1","-1","1210","0","test_block","poldrack-single-stim","207","312421","0.0-5.0-193.0","go-nogo","true","0","","false","<div class = centerbox><div  id = stim1></div></div>","32","32","750","","test","go","193","random","","",""
"","-1","-1","1408","0","test_block","poldrack-single-stim","208","313836","0.0-5.0-194.0","go-nogo","true","0","","false","<div class = centerbox><div  id = stim1></div></div>","32","32","750","","test","go","194","random","","",""
"","-1","-1","1404","0","test_block","poldrack-single-stim","209","315250","0.0-5.0-195.0","go-nogo","true","0","","false","<div class = centerbox><div  id = stim1></div></div>","32","32","750","","test","go","195","random","","",""
"","-1","-1","1139","0","test_block","poldrack-single-stim","210","316400","0.0-5.0-196.0","go-nogo","true","0","","false","<div class = centerbox><div  id = stim1></div></div>","32","32","750","","test","go","196","random","","",""
"","-1","-1","1331","0","test_block","poldrack-single-stim","211","317739","0.0-5.0-197.0","go-nogo","true","0","","false","<div class = centerbox><div  id = stim1></div></div>","32","32","750","","test","go","197","random","","",""
"","-1","-1","1240","0","test_block","poldrack-single-stim","212","318988","0.0-5.0-198.0","go-nogo","true","0","","false","<div class = centerbox><div  id = stim1></div></div>","32","32","750","","test","go","198","random","","",""
"","-1","-1","1295","0","test_block","poldrack-single-stim","213","320302","0.0-5.0-199.0","go-nogo","true","0","","false","<div class = centerbox><div  id = stim1></div></div>","32","32","750","","test","go","199","random","","",""
"","-1","-1","1028","0","test_block","poldrack-single-stim","214","321339","0.0-5.0-200.0","go-nogo","true","0","","true","<div class = centerbox><div  id = stim2></div></div>","-1","32","750","","test","nogo","200","random","","",""
"","-1","-1","1491","0","test_block","poldrack-single-stim","215","322847","0.0-5.0-201.0","go-nogo","true","0","","true","<div class = centerbox><div  id = stim2></div></div>","-1","32","750","","test","nogo","201","random","","",""
"","-1","-1","1164","0","test_block","poldrack-single-stim","216","324021","0.0-5.0-202.0","go-nogo","true","0","","false","<div class = centerbox><div  id = stim1></div></div>","32","32","750","","test","go","202","random","","",""
"","-1","-1","1241","0","test_block","poldrack-single-stim","217","325270","0.0-5.0-203.0","go-nogo","true","0","","false","<div class = centerbox><div  id = stim1></div></div>","32","32","750","","test","go","203","random","","",""
"","-1","-1","1135","0","test_block","poldrack-single-stim","218","326413","0.0-5.0-204.0","go-nogo","true","0","","false","<div class = centerbox><div  id = stim1></div></div>","32","32","750","","test","go","204","random","","",""
"","-1","-1","1434","0","test_block","poldrack-single-stim","219","327855","0.0-5.0-205.0","go-nogo","true","0","","true","<div class = centerbox><div  id = stim2></div></div>","-1","32","750","","test","nogo","205","random","","",""
"","-1","-1","1210","0","test_block","poldrack-single-stim","220","329074","0.0-5.0-206.0","go-nogo","true","0","","false","<div class = centerbox><div  id = stim1></div></div>","32","32","750","","test","go","206","random","","",""
"","-1","-1","1050","0","test_block","poldrack-single-stim","221","330132","0.0-5.0-207.0","go-nogo","true","0","","true","<div class = centerbox><div  id = stim2></div></div>","-1","32","750","","test","nogo","207","random","","",""
"","-1","-1","1299","0","test_block","poldrack-single-stim","222","331440","0.0-5.0-208.0","go-nogo","true","0","","false","<div class = centerbox><div  id = stim1></div></div>","32","32","750","","test","go","208","random","","",""
"","-1","-1","1434","0","test_block","poldrack-single-stim","223","332883","0.0-5.0-209.0","go-nogo","true","0","","false","<div class = centerbox><div  id = stim1></div></div>","32","32","750","","test","go","209","random","","",""
"","-1","-1","1142","0","test_block","poldrack-single-stim","224","334034","0.0-5.0-210.0","go-nogo","true","0","","false","<div class = centerbox><div  id = stim1></div></div>","32","32","750","","test","go","210","random","","",""
"","-1","-1","1077","0","test_block","poldrack-single-stim","225","335119","0.0-5.0-211.0","go-nogo","true","0","","false","<div class = centerbox><div  id = stim1></div></div>","32","32","750","","test","go","211","random","","",""
"","-1","-1","1169","0","test_block","poldrack-single-stim","226","336297","0.0-5.0-212.0","go-nogo","true","0","","false","<div class = centerbox><div  id = stim1></div></div>","32","32","750","","test","go","212","random","","",""
"","-1","-1","1343","0","test_block","poldrack-single-stim","227","337650","0.0-5.0-213.0","go-nogo","true","0","","false","<div class = centerbox><div  id = stim1></div></div>","32","32","750","","test","go","213","random","","",""
"","-1","-1","1275","0","test_block","poldrack-single-stim","228","338932","0.0-5.0-214.0","go-nogo","true","0","","false","<div class = centerbox><div  id = stim1></div></div>","32","32","750","","test","go","214","random","","",""
"","-1","-1","1010","0","test_block","poldrack-single-stim","229","339950","0.0-5.0-215.0","go-nogo","true","0","","false","<div class = centerbox><div  id = stim1></div></div>","32","32","750","","test","go","215","random","","",""
"","-1","-1","1332","0","test_block","poldrack-single-stim","230","341293","0.0-5.0-216.0","go-nogo","true","0","","true","<div class = centerbox><div  id = stim2></div></div>","-1","32","750","","test","nogo","216","random","","",""
"","-1","-1","1478","0","test_block","poldrack-single-stim","231","342783","0.0-5.0-217.0","go-nogo","true","0","","true","<div class = centerbox><div  id = stim2></div></div>","-1","32","750","","test","nogo","217","random","","",""
"","-1","-1","1144","0","test_block","poldrack-single-stim","232","343935","0.0-5.0-218.0","go-nogo","true","0","","false","<div class = centerbox><div  id = stim1></div></div>","32","32","750","","test","go","218","random","","",""
"","-1","-1","1094","0","test_block","poldrack-single-stim","233","345042","0.0-5.0-219.0","go-nogo","true","0","","false","<div class = centerbox><div  id = stim1></div></div>","32","32","750","","test","go","219","random","","",""
"","-1","-1","1450","0","test_block","poldrack-single-stim","234","346508","0.0-5.0-220.0","go-nogo","true","0","","false","<div class = centerbox><div  id = stim1></div></div>","32","32","750","","test","go","220","random","","",""
"","-1","-1","1237","0","test_block","poldrack-single-stim","235","347754","0.0-5.0-221.0","go-nogo","true","0","","false","<div class = centerbox><div  id = stim1></div></div>","32","32","750","","test","go","221","random","","",""
"","-1","-1","1294","0","test_block","poldrack-single-stim","236","349061","0.0-5.0-222.0","go-nogo","true","0","","false","<div class = centerbox><div  id = stim1></div></div>","32","32","750","","test","go","222","random","","",""
"","-1","-1","1369","0","test_block","poldrack-single-stim","237","350441","0.0-5.0-223.0","go-nogo","true","0","","false","<div class = centerbox><div  id = stim1></div></div>","32","32","750","","test","go","223","random","","",""
"","-1","-1","1291","0","test_block","poldrack-single-stim","238","351740","0.0-5.0-224.0","go-nogo","true","0","","true","<div class = centerbox><div  id = stim2></div></div>","-1","32","750","","test","nogo","224","random","","",""
"","-1","-1","1335","0","test_block","poldrack-single-stim","239","353084","0.0-5.0-225.0","go-nogo","true","0","","true","<div class = centerbox><div  id = stim2></div></div>","-1","32","750","","test","nogo","225","random","","",""
"","-1","-1","1393","0","test_block","poldrack-single-stim","240","354489","0.0-5.0-226.0","go-nogo","true","0","","false","<div class = centerbox><div  id = stim1></div></div>","32","32","750","","test","go","226","random","","",""
"","-1","-1","1407","0","test_block","poldrack-single-stim","241","355906","0.0-5.0-227.0","go-nogo","true","0","","false","<div class = centerbox><div  id = stim1></div></div>","32","32","750","","test","go","227","random","","",""
"","-1","-1","1261","0","test_block","poldrack-single-stim","242","357176","0.0-5.0-228.0","go-nogo","true","0","","false","<div class = centerbox><div  id = stim1></div></div>","32","32","750","","test","go","228","random","","",""
"","-1","-1","1236","0","test_block","poldrack-single-stim","243","358423","0.0-5.0-229.0","go-nogo","true","0","","false","<div class = centerbox><div  id = stim1></div></div>","32","32","750","","test","go","229","random","","",""
"","-1","-1","1265","0","test_block","poldrack-single-stim","244","359697","0.0-5.0-230.0","go-nogo","true","0","","false","<div class = centerbox><div  id = stim1></div></div>","32","32","750","","test","go","230","random","","",""
"","-1","-1","1313","0","test_block","poldrack-single-stim","245","361020","0.0-5.0-231.0","go-nogo","true","0","","false","<div class = centerbox><div  id = stim1></div></div>","32","32","750","","test","go","231","random","","",""
"","-1","-1","1014","0","test_block","poldrack-single-stim","246","362043","0.0-5.0-232.0","go-nogo","true","0","","false","<div class = centerbox><div  id = stim1></div></div>","32","32","750","","test","go","232","random","","",""
"","-1","-1","1289","0","test_block","poldrack-single-stim","247","363341","0.0-5.0-233.0","go-nogo","true","0","","false","<div class = centerbox><div  id = stim1></div></div>","32","32","750","","test","go","233","random","","",""
"","-1","-1","1479","0","test_block","poldrack-single-stim","248","364839","0.0-5.0-234.0","go-nogo","true","0","","false","<div class = centerbox><div  id = stim1></div></div>","32","32","750","","test","go","234","random","","",""
"","-1","-1","1037","0","test_block","poldrack-single-stim","249","365884","0.0-5.0-235.0","go-nogo","true","0","","false","<div class = centerbox><div  id = stim1></div></div>","32","32","750","","test","go","235","random","","",""
"","-1","-1","1478","0","test_block","poldrack-single-stim","250","367371","0.0-5.0-236.0","go-nogo","true","0","","false","<div class = centerbox><div  id = stim1></div></div>","32","32","750","","test","go","236","random","","",""
"","-1","-1","1177","0","test_block","poldrack-single-stim","251","368561","0.0-5.0-237.0","go-nogo","true","0","","false","<div class = centerbox><div  id = stim1></div></div>","32","32","750","","test","go","237","random","","",""
"","-1","-1","1259","0","test_block","poldrack-single-stim","252","369828","0.0-5.0-238.0","go-nogo","true","0","","false","<div class = centerbox><div  id = stim1></div></div>","32","32","750","","test","go","238","random","","",""
"","-1","-1","1337","0","test_block","poldrack-single-stim","253","371174","0.0-5.0-239.0","go-nogo","true","0","","false","<div class = centerbox><div  id = stim1></div></div>","32","32","750","","test","go","239","random","","",""
"","-1","-1","1371","0","test_block","poldrack-single-stim","254","372564","0.0-5.0-240.0","go-nogo","true","0","","true","<div class = centerbox><div  id = stim2></div></div>","-1","32","750","","test","nogo","240","random","","",""
"","-1","-1","1272","0","test_block","poldrack-single-stim","255","373851","0.0-5.0-241.0","go-nogo","true","0","","false","<div class = centerbox><div  id = stim1></div></div>","32","32","750","","test","go","241","random","","",""
"","-1","-1","1492","0","test_block","poldrack-single-stim","256","375355","0.0-5.0-242.0","go-nogo","true","0","","false","<div class = centerbox><div  id = stim1></div></div>","32","32","750","","test","go","242","random","","",""
"","-1","-1","1115","0","test_block","poldrack-single-stim","257","376479","0.0-5.0-243.0","go-nogo","true","0","","false","<div class = centerbox><div  id = stim1></div></div>","32","32","750","","test","go","243","random","","",""
"","-1","-1","1423","0","test_block","poldrack-single-stim","258","377909","0.0-5.0-244.0","go-nogo","true","0","","false","<div class = centerbox><div  id = stim1></div></div>","32","32","750","","test","go","244","random","","",""
"","-1","-1","1303","0","test_block","poldrack-single-stim","259","379222","0.0-5.0-245.0","go-nogo","true","0","","false","<div class = centerbox><div  id = stim1></div></div>","32","32","750","","test","go","245","random","","",""
"","-1","-1","1314","0","test_block","poldrack-single-stim","260","380546","0.0-5.0-246.0","go-nogo","true","0","","false","<div class = centerbox><div  id = stim1></div></div>","32","32","750","","test","go","246","random","","",""
"","-1","-1","1326","0","test_block","poldrack-single-stim","261","381880","0.0-5.0-247.0","go-nogo","true","0","","false","<div class = centerbox><div  id = stim1></div></div>","32","32","750","","test","go","247","random","","",""
"","-1","-1","1210","0","test_block","poldrack-single-stim","262","383101","0.0-5.0-248.0","go-nogo","true","0","","false","<div class = centerbox><div  id = stim1></div></div>","32","32","750","","test","go","248","random","","",""
"","-1","-1","1164","0","test_block","poldrack-single-stim","263","384273","0.0-5.0-249.0","go-nogo","true","0","","false","<div class = centerbox><div  id = stim1></div></div>","32","32","750","","test","go","249","random","","",""
"","-1","-1","1294","0","test_block","poldrack-single-stim","264","385578","0.0-5.0-250.0","go-nogo","true","0","","false","<div class = centerbox><div  id = stim1></div></div>","32","32","750","","test","go","250","random","","",""
"","-1","-1","1434","0","test_block","poldrack-single-stim","265","387019","0.0-5.0-251.0","go-nogo","true","0","","false","<div class = centerbox><div  id = stim1></div></div>","32","32","750","","test","go","251","random","","",""
"","-1","-1","1477","0","test_block","poldrack-single-stim","266","388509","0.0-5.0-252.0","go-nogo","true","0","","false","<div class = centerbox><div  id = stim1></div></div>","32","32","750","","test","go","252","random","","",""
"","-1","-1","1343","0","test_block","poldrack-single-stim","267","389861","0.0-5.0-253.0","go-nogo","true","0","","false","<div class = centerbox><div  id = stim1></div></div>","32","32","750","","test","go","253","random","","",""
"","-1","-1","1063","0","test_block","poldrack-single-stim","268","390932","0.0-5.0-254.0","go-nogo","true","0","","false","<div class = centerbox><div  id = stim1></div></div>","32","32","750","","test","go","254","random","","",""
"","-1","-1","1147","0","test_block","poldrack-single-stim","269","392087","0.0-5.0-255.0","go-nogo","true","0","","false","<div class = centerbox><div  id = stim1></div></div>","32","32","750","","test","go","255","random","","",""
"","-1","-1","1477","0","test_block","poldrack-single-stim","270","393583","0.0-5.0-256.0","go-nogo","true","0","","false","<div class = centerbox><div  id = stim1></div></div>","32","32","750","","test","go","256","random","","",""
"","-1","-1","1109","0","test_block","poldrack-single-stim","271","394700","0.0-5.0-257.0","go-nogo","true","0","","false","<div class = centerbox><div  id = stim1></div></div>","32","32","750","","test","go","257","random","","",""
"","-1","-1","1476","0","test_block","poldrack-single-stim","272","396186","0.0-5.0-258.0","go-nogo","true","0","","false","<div class = centerbox><div  id = stim1></div></div>","32","32","750","","test","go","258","random","","",""
"","-1","-1","1368","0","test_block","poldrack-single-stim","273","397563","0.0-5.0-259.0","go-nogo","true","0","","false","<div class = centerbox><div  id = stim1></div></div>","32","32","750","","test","go","259","random","","",""
"","-1","-1","1476","0","test_block","poldrack-single-stim","274","399050","0.0-5.0-260.0","go-nogo","true","0","","false","<div class = centerbox><div  id = stim1></div></div>","32","32","750","","test","go","260","random","","",""
"","-1","-1","1272","0","test_block","poldrack-single-stim","275","400332","0.0-5.0-261.0","go-nogo","true","0","","false","<div class = centerbox><div  id = stim1></div></div>","32","32","750","","test","go","261","random","","",""
"","-1","-1","1409","0","test_block","poldrack-single-stim","276","401750","0.0-5.0-262.0","go-nogo","true","0","","false","<div class = centerbox><div  id = stim1></div></div>","32","32","750","","test","go","262","random","","",""
"","-1","-1","1150","0","test_block","poldrack-single-stim","277","402908","0.0-5.0-263.0","go-nogo","true","0","","false","<div class = centerbox><div  id = stim1></div></div>","32","32","750","","test","go","263","random","","",""
"","-1","-1","1344","0","test_block","poldrack-single-stim","278","404262","0.0-5.0-264.0","go-nogo","true","0","","false","<div class = centerbox><div  id = stim1></div></div>","32","32","750","","test","go","264","random","","",""
"","-1","-1","1451","0","test_block","poldrack-single-stim","279","405722","0.0-5.0-265.0","go-nogo","true","0","","false","<div class = centerbox><div  id = stim1></div></div>","32","32","750","","test","go","265","random","","",""
"","-1","-1","1380","0","test_block","poldrack-single-stim","280","407121","0.0-5.0-266.0","go-nogo","true","0","","false","<div class = centerbox><div  id = stim1></div></div>","32","32","750","","test","go","266","random","","",""
"","-1","-1","1424","0","test_block","poldrack-single-stim","281","408554","0.0-5.0-267.0","go-nogo","true","0","","false","<div class = centerbox><div  id = stim1></div></div>","32","32","750","","test","go","267","random","","",""
"","-1","-1","1070","0","test_block","poldrack-single-stim","282","409631","0.0-5.0-268.0","go-nogo","true","0","","true","<div class = centerbox><div  id = stim2></div></div>","-1","32","750","","test","nogo","268","random","","",""
"","-1","-1","1109","0","test_block","poldrack-single-stim","283","410753","0.0-5.0-269.0","go-nogo","true","0","","false","<div class = centerbox><div  id = stim1></div></div>","32","32","750","","test","go","269","random","","",""
"","-1","-1","1209","0","test_block","poldrack-single-stim","284","411975","0.0-5.0-270.0","go-nogo","true","0","","false","<div class = centerbox><div  id = stim1></div></div>","32","32","750","","test","go","270","random","","",""
"","-1","-1","1160","0","test_block","poldrack-single-stim","285","413154","0.0-5.0-271.0","go-nogo","true","0","","false","<div class = centerbox><div  id = stim1></div></div>","32","32","750","","test","go","271","random","","",""
"","-1","-1","1445","0","test_block","poldrack-single-stim","286","414608","0.0-5.0-272.0","go-nogo","true","0","","false","<div class = centerbox><div  id = stim1></div></div>","32","32","750","","test","go","272","random","","",""
"","-1","-1","1459","0","test_block","poldrack-single-stim","287","416074","0.0-5.0-273.0","go-nogo","true","0","","false","<div class = centerbox><div  id = stim1></div></div>","32","32","750","","test","go","273","random","","",""
"","-1","-1","1497","0","test_block","poldrack-single-stim","288","417581","0.0-5.0-274.0","go-nogo","true","0","","false","<div class = centerbox><div  id = stim1></div></div>","32","32","750","","test","go","274","random","","",""
"","-1","-1","1114","0","test_block","poldrack-single-stim","289","418702","0.0-5.0-275.0","go-nogo","true","0","","false","<div class = centerbox><div  id = stim1></div></div>","32","32","750","","test","go","275","random","","",""
"","-1","-1","1484","0","test_block","poldrack-single-stim","290","420194","0.0-5.0-276.0","go-nogo","true","0","","false","<div class = centerbox><div  id = stim1></div></div>","32","32","750","","test","go","276","random","","",""
"","-1","-1","1433","0","test_block","poldrack-single-stim","291","421637","0.0-5.0-277.0","go-nogo","true","0","","false","<div class = centerbox><div  id = stim1></div></div>","32","32","750","","test","go","277","random","","",""
"","-1","-1","1261","0","test_block","poldrack-single-stim","292","422905","0.0-5.0-278.0","go-nogo","true","0","","false","<div class = centerbox><div  id = stim1></div></div>","32","32","750","","test","go","278","random","","",""
"","-1","-1","1420","0","test_block","poldrack-single-stim","293","424340","0.0-5.0-279.0","go-nogo","true","0","","false","<div class = centerbox><div  id = stim1></div></div>","32","32","750","","test","go","279","random","","",""
"","-1","-1","1224","0","test_block","poldrack-single-stim","294","425573","0.0-5.0-280.0","go-nogo","true","0","","false","<div class = centerbox><div  id = stim1></div></div>","32","32","750","","test","go","280","random","","",""
"","-1","-1","1045","0","test_block","poldrack-single-stim","295","426625","0.0-5.0-281.0","go-nogo","true","0","","false","<div class = centerbox><div  id = stim1></div></div>","32","32","750","","test","go","281","random","","",""
"","-1","-1","1307","0","test_block","poldrack-single-stim","296","427942","0.0-5.0-282.0","go-nogo","true","0","","false","<div class = centerbox><div  id = stim1></div></div>","32","32","750","","test","go","282","random","","",""
"","-1","-1","1165","0","test_block","poldrack-single-stim","297","429115","0.0-5.0-283.0","go-nogo","true","0","","false","<div class = centerbox><div  id = stim1></div></div>","32","32","750","","test","go","283","random","","",""
"","-1","-1","1185","0","test_block","poldrack-single-stim","298","430315","0.0-5.0-284.0","go-nogo","true","0","","false","<div class = centerbox><div  id = stim1></div></div>","32","32","750","","test","go","284","random","","",""
"","-1","-1","1489","0","test_block","poldrack-single-stim","299","431812","0.0-5.0-285.0","go-nogo","true","0","","true","<div class = centerbox><div  id = stim2></div></div>","-1","32","750","","test","nogo","285","random","","",""
"","-1","-1","1300","0","test_block","poldrack-single-stim","300","433120","0.0-5.0-286.0","go-nogo","true","0","","false","<div class = centerbox><div  id = stim1></div></div>","32","32","750","","test","go","286","random","","",""
"","-1","-1","1196","0","test_block","poldrack-single-stim","301","434329","0.0-5.0-287.0","go-nogo","true","0","","false","<div class = centerbox><div  id = stim1></div></div>","32","32","750","","test","go","287","random","","",""
"","-1","-1","1073","0","test_block","poldrack-single-stim","302","435420","0.0-5.0-288.0","go-nogo","true","0","","true","<div class = centerbox><div  id = stim2></div></div>","-1","32","750","","test","nogo","288","random","","",""
"","-1","-1","1037","0","test_block","poldrack-single-stim","303","436465","0.0-5.0-289.0","go-nogo","true","0","","false","<div class = centerbox><div  id = stim1></div></div>","32","32","750","","test","go","289","random","","",""
"","-1","-1","1212","0","test_block","poldrack-single-stim","304","437685","0.0-5.0-290.0","go-nogo","true","0","","false","<div class = centerbox><div  id = stim1></div></div>","32","32","750","","test","go","290","random","","",""
"","-1","-1","1458","0","test_block","poldrack-single-stim","305","439151","0.0-5.0-291.0","go-nogo","true","0","","false","<div class = centerbox><div  id = stim1></div></div>","32","32","750","","test","go","291","random","","",""
"","-1","-1","1237","0","test_block","poldrack-single-stim","306","440397","0.0-5.0-292.0","go-nogo","true","0","","false","<div class = centerbox><div  id = stim1></div></div>","32","32","750","","test","go","292","random","","",""
"","-1","-1","1465","0","test_block","poldrack-single-stim","307","441871","0.0-5.0-293.0","go-nogo","true","0","","false","<div class = centerbox><div  id = stim1></div></div>","32","32","750","","test","go","293","random","","",""
"","-1","-1","1106","0","test_block","poldrack-single-stim","308","442984","0.0-5.0-294.0","go-nogo","true","0","","false","<div class = centerbox><div  id = stim1></div></div>","32","32","750","","test","go","294","random","","",""
"","-1","-1","1250","0","test_block","poldrack-single-stim","309","444243","0.0-5.0-295.0","go-nogo","true","0","","false","<div class = centerbox><div  id = stim1></div></div>","32","32","750","","test","go","295","random","","",""
"","-1","-1","1495","0","test_block","poldrack-single-stim","310","445747","0.0-5.0-296.0","go-nogo","true","0","","false","<div class = centerbox><div  id = stim1></div></div>","32","32","750","","test","go","296","random","","",""
"","-1","-1","1095","0","test_block","poldrack-single-stim","311","446850","0.0-5.0-297.0","go-nogo","true","0","","false","<div class = centerbox><div  id = stim1></div></div>","32","32","750","","test","go","297","random","","",""
"","-1","-1","1035","0","test_block","poldrack-single-stim","312","447894","0.0-5.0-298.0","go-nogo","true","0","","false","<div class = centerbox><div  id = stim1></div></div>","32","32","750","","test","go","298","random","","",""
"","-1","-1","1039","0","test_block","poldrack-single-stim","313","448941","0.0-5.0-299.0","go-nogo","true","0","","false","<div class = centerbox><div  id = stim1></div></div>","32","32","750","","test","go","299","random","","",""
"","-1","-1","1225","0","test_block","poldrack-single-stim","314","450175","0.0-5.0-300.0","go-nogo","true","0","","false","<div class = centerbox><div  id = stim1></div></div>","32","32","750","","test","go","300","random","","",""
"","-1","-1","1237","0","test_block","poldrack-single-stim","315","451421","0.0-5.0-301.0","go-nogo","true","0","","false","<div class = centerbox><div  id = stim1></div></div>","32","32","750","","test","go","301","random","","",""
"","-1","-1","1477","0","test_block","poldrack-single-stim","316","452906","0.0-5.0-302.0","go-nogo","true","0","","false","<div class = centerbox><div  id = stim1></div></div>","32","32","750","","test","go","302","random","","",""
"","-1","-1","1156","0","test_block","poldrack-single-stim","317","454072","0.0-5.0-303.0","go-nogo","true","0","","false","<div class = centerbox><div  id = stim1></div></div>","32","32","750","","test","go","303","random","","",""
"","-1","-1","1209","0","test_block","poldrack-single-stim","318","455288","0.0-5.0-304.0","go-nogo","true","0","","false","<div class = centerbox><div  id = stim1></div></div>","32","32","750","","test","go","304","random","","",""
"","-1","-1","1256","0","test_block","poldrack-single-stim","319","456553","0.0-5.0-305.0","go-nogo","true","0","","false","<div class = centerbox><div  id = stim1></div></div>","32","32","750","","test","go","305","random","","",""
"","-1","-1","1023","0","test_block","poldrack-single-stim","320","457586","0.0-5.0-306.0","go-nogo","true","0","","false","<div class = centerbox><div  id = stim1></div></div>","32","32","750","","test","go","306","random","","",""
"","-1","-1","1075","0","test_block","poldrack-single-stim","321","458668","0.0-5.0-307.0","go-nogo","true","0","","false","<div class = centerbox><div  id = stim1></div></div>","32","32","750","","test","go","307","random","","",""
"","-1","-1","1230","0","test_block","poldrack-single-stim","322","459907","0.0-5.0-308.0","go-nogo","true","0","","false","<div class = centerbox><div  id = stim1></div></div>","32","32","750","","test","go","308","random","","",""
"","-1","-1","1484","0","test_block","poldrack-single-stim","323","461397","0.0-5.0-309.0","go-nogo","true","0","","false","<div class = centerbox><div  id = stim1></div></div>","32","32","750","","test","go","309","random","","",""
"","-1","-1","1065","0","test_block","poldrack-single-stim","324","462471","0.0-5.0-310.0","go-nogo","true","0","","false","<div class = centerbox><div  id = stim1></div></div>","32","32","750","","test","go","310","random","","",""
"","-1","-1","1458","0","test_block","poldrack-single-stim","325","463939","0.0-5.0-311.0","go-nogo","true","0","","true","<div class = centerbox><div  id = stim2></div></div>","-1","32","750","","test","nogo","311","random","","",""
"","-1","-1","1301","0","test_block","poldrack-single-stim","326","465248","0.0-5.0-312.0","go-nogo","true","0","","false","<div class = centerbox><div  id = stim1></div></div>","32","32","750","","test","go","312","random","","",""
"","-1","-1","1170","0","test_block","poldrack-single-stim","327","466427","0.0-5.0-313.0","go-nogo","true","0","","false","<div class = centerbox><div  id = stim1></div></div>","32","32","750","","test","go","313","random","","",""
"","-1","-1","1485","0","test_block","poldrack-single-stim","328","467922","0.0-5.0-314.0","go-nogo","true","0","","false","<div class = centerbox><div  id = stim1></div></div>","32","32","750","","test","go","314","random","","",""
"","-1","-1","1312","0","test_block","poldrack-single-stim","329","469243","0.0-5.0-315.0","go-nogo","true","0","","true","<div class = centerbox><div  id = stim2></div></div>","-1","32","750","","test","nogo","315","random","","",""
"","-1","-1","1381","0","test_block","poldrack-single-stim","330","470632","0.0-5.0-316.0","go-nogo","true","0","","false","<div class = centerbox><div  id = stim1></div></div>","32","32","750","","test","go","316","random","","",""
"","-1","-1","1241","0","test_block","poldrack-single-stim","331","471882","0.0-5.0-317.0","go-nogo","true","0","","false","<div class = centerbox><div  id = stim1></div></div>","32","32","750","","test","go","317","random","","",""
"","-1","-1","1108","0","test_block","poldrack-single-stim","332","472999","0.0-5.0-318.0","go-nogo","true","0","","false","<div class = centerbox><div  id = stim1></div></div>","32","32","750","","test","go","318","random","","",""
"","-1","-1","1110","0","test_block","poldrack-single-stim","333","474117","0.0-5.0-319.0","go-nogo","true","0","","false","<div class = centerbox><div  id = stim1></div></div>","32","32","750","","test","go","319","random","","",""
"","-1","-1","1185","0","test_block","poldrack-single-stim","334","475310","0.0-5.0-320.0","go-nogo","true","0","","false","<div class = centerbox><div  id = stim1></div></div>","32","32","750","","test","go","320","random","","",""
"","-1","-1","1037","0","test_block","poldrack-single-stim","335","476355","0.0-5.0-321.0","go-nogo","true","0","","false","<div class = centerbox><div  id = stim1></div></div>","32","32","750","","test","go","321","random","","",""
"","-1","-1","1335","0","test_block","poldrack-single-stim","336","477700","0.0-5.0-322.0","go-nogo","true","0","","false","<div class = centerbox><div  id = stim1></div></div>","32","32","750","","test","go","322","random","","",""
"","-1","-1","1183","0","test_block","poldrack-single-stim","337","478895","0.0-5.0-323.0","go-nogo","true","0","","false","<div class = centerbox><div  id = stim1></div></div>","32","32","750","","test","go","323","random","","",""
"","-1","-1","1085","0","test_block","poldrack-single-stim","338","479988","0.0-5.0-324.0","go-nogo","true","0","","false","<div class = centerbox><div  id = stim1></div></div>","32","32","750","","test","go","324","random","","",""
"","-1","-1","1456","0","test_block","poldrack-single-stim","339","481454","0.0-5.0-325.0","go-nogo","true","0","","true","<div class = centerbox><div  id = stim2></div></div>","-1","32","750","","test","nogo","325","random","","",""
"","-1","-1","1243","0","test_block","poldrack-single-stim","340","482704","0.0-5.0-326.0","go-nogo","true","0","","false","<div class = centerbox><div  id = stim1></div></div>","32","32","750","","test","go","326","random","","",""
"","-1","-1","1386","0","test_block","poldrack-single-stim","341","484099","0.0-5.0-327.0","go-nogo","true","0","","false","<div class = centerbox><div  id = stim1></div></div>","32","32","750","","test","go","327","random","","",""
"","-1","-1","1088","0","test_block","poldrack-single-stim","342","485195","0.0-5.0-328.0","go-nogo","true","0","","false","<div class = centerbox><div  id = stim1></div></div>","32","32","750","","test","go","328","random","","",""
"","-1","-1","1238","0","test_block","poldrack-single-stim","343","486448","0.0-5.0-329.0","go-nogo","true","0","","false","<div class = centerbox><div  id = stim1></div></div>","32","32","750","","test","go","329","random","","",""
"","-1","-1","1449","0","test_block","poldrack-single-stim","344","487907","0.0-5.0-330.0","go-nogo","true","0","","false","<div class = centerbox><div  id = stim1></div></div>","32","32","750","","test","go","330","random","","",""
"","-1","-1","1079","0","test_block","poldrack-single-stim","345","488993","0.0-5.0-331.0","go-nogo","true","0","","false","<div class = centerbox><div  id = stim1></div></div>","32","32","750","","test","go","331","random","","",""
"","-1","-1","1282","0","test_block","poldrack-single-stim","346","490285","0.0-5.0-332.0","go-nogo","true","0","","false","<div class = centerbox><div  id = stim1></div></div>","32","32","750","","test","go","332","random","","",""
"","-1","-1","1120","0","test_block","poldrack-single-stim","347","491415","0.0-5.0-333.0","go-nogo","true","0","","false","<div class = centerbox><div  id = stim1></div></div>","32","32","750","","test","go","333","random","","",""
"","-1","-1","1295","0","test_block","poldrack-single-stim","348","492717","0.0-5.0-334.0","go-nogo","true","0","","false","<div class = centerbox><div  id = stim1></div></div>","32","32","750","","test","go","334","random","","",""
"","-1","-1","1037","0","test_block","poldrack-single-stim","349","493763","0.0-5.0-335.0","go-nogo","true","0","","false","<div class = centerbox><div  id = stim1></div></div>","32","32","750","","test","go","335","random","","",""
"","-1","-1","1316","0","test_block","poldrack-single-stim","350","495088","0.0-5.0-336.0","go-nogo","true","0","","false","<div class = centerbox><div  id = stim1></div></div>","32","32","750","","test","go","336","random","","",""
"","-1","-1","1136","0","test_block","poldrack-single-stim","351","496231","0.0-5.0-337.0","go-nogo","true","0","","true","<div class = centerbox><div  id = stim2></div></div>","-1","32","750","","test","nogo","337","random","","",""
"","-1","-1","1228","0","test_block","poldrack-single-stim","352","497476","0.0-5.0-338.0","go-nogo","true","0","","false","<div class = centerbox><div  id = stim1></div></div>","32","32","750","","test","go","338","random","","",""
"","-1","-1","1344","0","test_block","poldrack-single-stim","353","498827","0.0-5.0-339.0","go-nogo","true","0","","false","<div class = centerbox><div  id = stim1></div></div>","32","32","750","","test","go","339","random","","",""
"","-1","-1","1277","0","test_block","poldrack-single-stim","354","500112","0.0-5.0-340.0","go-nogo","true","0","","true","<div class = centerbox><div  id = stim2></div></div>","-1","32","750","","test","nogo","340","random","","",""
"","-1","-1","1391","0","test_block","poldrack-single-stim","355","501513","0.0-5.0-341.0","go-nogo","true","0","","false","<div class = centerbox><div  id = stim1></div></div>","32","32","750","","test","go","341","random","","",""
"","-1","-1","1460","0","test_block","poldrack-single-stim","356","502980","0.0-5.0-342.0","go-nogo","true","0","","false","<div class = centerbox><div  id = stim1></div></div>","32","32","750","","test","go","342","random","","",""
"","-1","-1","1340","0","test_block","poldrack-single-stim","357","504329","0.0-5.0-343.0","go-nogo","true","0","","false","<div class = centerbox><div  id = stim1></div></div>","32","32","750","","test","go","343","random","","",""
"","-1","-1","1033","0","test_block","poldrack-single-stim","358","505370","0.0-5.0-344.0","go-nogo","true","0","","false","<div class = centerbox><div  id = stim1></div></div>","32","32","750","","test","go","344","random","","",""
"","-1","-1","1119","0","test_block","poldrack-single-stim","359","506497","0.0-5.0-345.0","go-nogo","true","0","","false","<div class = centerbox><div  id = stim1></div></div>","32","32","750","","test","go","345","random","","",""
"","-1","-1","1265","0","test_block","poldrack-single-stim","360","507772","0.0-5.0-346.0","go-nogo","true","0","","true","<div class = centerbox><div  id = stim2></div></div>","-1","32","750","","test","nogo","346","random","","",""
"","-1","-1","1020","0","test_block","poldrack-single-stim","361","508799","0.0-5.0-347.0","go-nogo","true","0","","false","<div class = centerbox><div  id = stim1></div></div>","32","32","750","","test","go","347","random","","",""
"","-1","-1","1113","0","test_block","poldrack-single-stim","362","509920","0.0-5.0-348.0","go-nogo","true","0","","false","<div class = centerbox><div  id = stim1></div></div>","32","32","750","","test","go","348","random","","",""
"","-1","-1","1042","0","test_block","poldrack-single-stim","363","510973","0.0-5.0-349.0","go-nogo","true","0","","false","<div class = centerbox><div  id = stim1></div></div>","32","32","750","","test","go","349","random","","",""
"","61983","","","","post task questions","survey-text","364","572977","0.0-7.0","go-nogo","true","3","","","","","","","","","","","","{""Q0"":""smart is work"",""Q1"":""nice survey""}","",""
"<div class = centerbox><p class = center-block-text>Thanks for completing this task!</p><p class = center-block-text>Insert the following code to collect your payment at Amazon Mechanical Turk:</p><p class = center-block-text>121274317</p><p class = center-block-text>Press <strong>enter</strong> to continue.</p></div>","15869","13","15869","0","end","poldrack-text","365","589847","0.0-8.0","go-nogo","true","1","","","","","","","","","","","","","121274317","false"
