"text","rt","key_press","block_duration","timing_post_trial","trial_id","trial_type","trial_index","time_elapsed","internal_node_id","exp_id","full_screen","focus_shifts","view_history","correct","stimulus","correct_response","possible_responses","stim_duration","feedback_duration","exp_stage","condition","trial_num","mode","responses","payment_id","credit_var"
"<div class = centerbox><p class = center-block-text>Welcome to the experiment. This task will take around 10 minutes. Press <strong>enter</strong> to begin.</p></div>","2264","13","2264","0","instruction","poldrack-text","0","2266","0.0-0.0-0.0","go-nogo","true","0","","","","","","","","","","","","","",""
"","6395","","","","instruction","poldrack-instructions","1","8661","0.0-0.0-1.0","go-nogo","true","0","[{""page_index"":0,""viewing_time"":6394}]","","","","","","","","","","","","",""
"","-1","-1","1477","250","practice","poldrack-categorize","2","12142","0.0-1.0-0.0","go-nogo","true","0","","true","<div class = centerbox><div id = stim1></div></div>","-1","32","750","1000","practice","nogo","0","adv","","",""
"","359","32","1398","250","practice","poldrack-categorize","3","14793","0.0-1.0-1.0","go-nogo","true","0","","true","<div class = centerbox><div  id = stim2></div></div>","32","32","750","1000","practice","go","1","adv","","",""
"","-1","-1","1452","250","practice","poldrack-categorize","4","17498","0.0-1.0-2.0","go-nogo","true","0","","true","<div class = centerbox><div id = stim1></div></div>","-1","32","750","1000","practice","nogo","2","adv","","",""
"","-1","-1","1021","250","practice","poldrack-categorize","5","19772","0.0-1.0-3.0","go-nogo","true","0","","true","<div class = centerbox><div id = stim1></div></div>","-1","32","750","1000","practice","nogo","3","adv","","",""
"","441","32","1240","250","practice","poldrack-categorize","6","22265","0.0-1.0-4.0","go-nogo","true","0","","true","<div class = centerbox><div  id = stim2></div></div>","32","32","750","1000","practice","go","4","adv","","",""
"","404","32","1016","250","practice","poldrack-categorize","7","24534","0.0-1.0-5.0","go-nogo","true","0","","true","<div class = centerbox><div  id = stim2></div></div>","32","32","750","1000","practice","go","5","adv","","",""
"","342","32","1316","250","practice","poldrack-categorize","8","27103","0.0-1.0-6.0","go-nogo","true","0","","true","<div class = centerbox><div  id = stim2></div></div>","32","32","750","1000","practice","go","6","adv","","",""
"","-1","-1","1418","250","practice","poldrack-categorize","9","29774","0.0-1.0-7.0","go-nogo","true","0","","true","<div class = centerbox><div id = stim1></div></div>","-1","32","750","1000","practice","nogo","7","adv","","",""
"","-1","-1","1250","250","practice","poldrack-categorize","10","32277","0.0-1.0-8.0","go-nogo","true","1","","true","<div class = centerbox><div id = stim1></div></div>","-1","32","750","1000","practice","nogo","8","adv","","",""
"","391","32","1336","250","practice","poldrack-categorize","11","34866","0.0-1.0-9.0","go-nogo","true","0","","true","<div class = centerbox><div  id = stim2></div></div>","32","32","750","1000","practice","go","9","adv","","",""
"","","","","","reset_trial","call-function","12","35117","0.0-3.0","go-nogo","true","0","","","","","","","","","","","","","",""
"<div class = centerbox><p class = block-text>Practice is over, we will now begin the experiment. You will no longer get feedback about your responses.</p><p class = block-text>Remember, if you see the <font color=""blue"">blue</font> square you should <strong> respond by pressing the spacebar as quickly as possible</strong>. If you see the <font color=""orange"">orange</font> square you should <strong> not respond</strong>. Press <strong>enter</strong> to begin.</p></div>","5882","13","5882","1000","test_intro","poldrack-text","13","40999","0.0-4.0","go-nogo","true","0","","","","","","","","","","","","","",""
"","383","32","1495","0","test_block","poldrack-single-stim","14","43496","0.0-5.0-0.0","go-nogo","true","0","","true","<div class = centerbox><div  id = stim2></div></div>","32","32","750","","test","go","0","adv","","",""
"","422","32","1266","0","test_block","poldrack-single-stim","15","44812","0.0-5.0-1.0","go-nogo","true","0","","true","<div class = centerbox><div  id = stim2></div></div>","32","32","750","","test","go","1","adv","","",""
"","349","32","1186","0","test_block","poldrack-single-stim","16","46024","0.0-5.0-2.0","go-nogo","true","0","","true","<div class = centerbox><div  id = stim2></div></div>","32","32","750","","test","go","2","adv","","",""
"","306","32","1385","0","test_block","poldrack-single-stim","17","47435","0.0-5.0-3.0","go-nogo","true","0","","true","<div class = centerbox><div  id = stim2></div></div>","32","32","750","","test","go","3","adv","","",""
"","265","32","1305","0","test_block","poldrack-single-stim","18","48762","0.0-5.0-4.0","go-nogo","true","0","","true","<div class = centerbox><div  id = stim2></div></div>","32","32","750","","test","go","4","adv","","",""
"","276","32","1082","0","test_block","poldrack-single-stim","19","49873","0.0-5.0-5.0","go-nogo","true","0","","true","<div class = centerbox><div  id = stim2></div></div>","32","32","750","","test","go","5","adv","","",""
"","367","32","1194","0","test_block","poldrack-single-stim","20","51094","0.0-5.0-6.0","go-nogo","true","0","","true","<div class = centerbox><div  id = stim2></div></div>","32","32","750","","test","go","6","adv","","",""
"","292","32","1463","0","test_block","poldrack-single-stim","21","52582","0.0-5.0-7.0","go-nogo","true","0","","true","<div class = centerbox><div  id = stim2></div></div>","32","32","750","","test","go","7","adv","","",""
"","331","32","1483","0","test_block","poldrack-single-stim","22","54090","0.0-5.0-8.0","go-nogo","true","0","","true","<div class = centerbox><div  id = stim2></div></div>","32","32","750","","test","go","8","adv","","",""
"","284","32","1022","0","test_block","poldrack-single-stim","23","55141","0.0-5.0-9.0","go-nogo","true","0","","true","<div class = centerbox><div  id = stim2></div></div>","32","32","750","","test","go","9","adv","","",""
"","374","32","1421","0","test_block","poldrack-single-stim","24","56600","0.0-5.0-10.0","go-nogo","true","0","","true","<div class = centerbox><div  id = stim2></div></div>","32","32","750","","test","go","10","adv","","",""
"","304","32","1386","0","test_block","poldrack-single-stim","25","58011","0.0-5.0-11.0","go-nogo","true","0","","true","<div class = centerbox><div  id = stim2></div></div>","32","32","750","","test","go","11","adv","","",""
"","248","32","1317","0","test_block","poldrack-single-stim","26","59351","0.0-5.0-12.0","go-nogo","true","0","","true","<div class = centerbox><div  id = stim2></div></div>","32","32","750","","test","go","12","adv","","",""
"","278","32","1235","0","test_block","poldrack-single-stim","27","60615","0.0-5.0-13.0","go-nogo","true","0","","true","<div class = centerbox><div  id = stim2></div></div>","32","32","750","","test","go","13","adv","","",""
"","263","32","1446","0","test_block","poldrack-single-stim","28","62081","0.0-5.0-14.0","go-nogo","true","0","","true","<div class = centerbox><div  id = stim2></div></div>","32","32","750","","test","go","14","adv","","",""
"","28","32","1499","0","test_block","poldrack-single-stim","29","63601","0.0-5.0-15.0","go-nogo","true","0","","true","<div class = centerbox><div  id = stim2></div></div>","32","32","750","","test","go","15","adv","","",""
"","275","32","1482","0","test_block","poldrack-single-stim","30","65105","0.0-5.0-16.0","go-nogo","true","1","","true","<div class = centerbox><div  id = stim2></div></div>","32","32","750","","test","go","16","adv","","",""
"","-1","-1","1290","0","test_block","poldrack-single-stim","31","66417","0.0-5.0-17.0","go-nogo","true","0","","false","<div class = centerbox><div  id = stim2></div></div>","32","32","750","","test","go","17","adv","","",""
"","317","32","1422","0","test_block","poldrack-single-stim","32","67867","0.0-5.0-18.0","go-nogo","true","0","","true","<div class = centerbox><div  id = stim2></div></div>","32","32","750","","test","go","18","adv","","",""
"","-1","-1","1031","0","test_block","poldrack-single-stim","33","68917","0.0-5.0-19.0","go-nogo","true","0","","true","<div class = centerbox><div  id = stim1></div></div>","-1","32","750","","test","nogo","19","adv","","",""
"","796","32","1232","0","test_block","poldrack-single-stim","34","70165","0.0-5.0-20.0","go-nogo","true","0","","true","<div class = centerbox><div  id = stim2></div></div>","32","32","750","","test","go","20","adv","","",""
"","-1","-1","1328","0","test_block","poldrack-single-stim","35","71516","0.0-5.0-21.0","go-nogo","true","0","","true","<div class = centerbox><div  id = stim1></div></div>","-1","32","750","","test","nogo","21","adv","","",""
"","262","32","1043","0","test_block","poldrack-single-stim","36","72583","0.0-5.0-22.0","go-nogo","true","0","","true","<div class = centerbox><div  id = stim2></div></div>","32","32","750","","test","go","22","adv","","",""
"","378","32","1283","0","test_block","poldrack-single-stim","37","73882","0.0-5.0-23.0","go-nogo","true","0","","true","<div class = centerbox><div  id = stim2></div></div>","32","32","750","","test","go","23","adv","","",""
"","314","32","1485","0","test_block","poldrack-single-stim","38","75388","0.0-5.0-24.0","go-nogo","true","0","","true","<div class = centerbox><div  id = stim2></div></div>","32","32","750","","test","go","24","adv","","",""
"","283","32","1399","0","test_block","poldrack-single-stim","39","76821","0.0-5.0-25.0","go-nogo","true","0","","true","<div class = centerbox><div  id = stim2></div></div>","32","32","750","","test","go","25","adv","","",""
"","294","32","1172","0","test_block","poldrack-single-stim","40","78017","0.0-5.0-26.0","go-nogo","true","0","","true","<div class = centerbox><div  id = stim2></div></div>","32","32","750","","test","go","26","adv","","",""
"","330","32","1019","0","test_block","poldrack-single-stim","41","79065","0.0-5.0-27.0","go-nogo","true","0","","true","<div class = centerbox><div  id = stim2></div></div>","32","32","750","","test","go","27","adv","","",""
"","318","32","1480","0","test_block","poldrack-single-stim","42","80562","0.0-5.0-28.0","go-nogo","true","0","","true","<div class = centerbox><div  id = stim2></div></div>","32","32","750","","test","go","28","adv","","",""
"","283","32","1243","0","test_block","poldrack-single-stim","43","81825","0.0-5.0-29.0","go-nogo","true","0","","true","<div class = centerbox><div  id = stim2></div></div>","32","32","750","","test","go","29","adv","","",""
"","310","32","1380","0","test_block","poldrack-single-stim","44","83223","0.0-5.0-30.0","go-nogo","true","0","","true","<div class = centerbox><div  id = stim2></div></div>","32","32","750","","test","go","30","adv","","",""
"","295","32","1196","0","test_block","poldrack-single-stim","45","84437","0.0-5.0-31.0","go-nogo","true","0","","true","<div class = centerbox><div  id = stim2></div></div>","32","32","750","","test","go","31","adv","","",""
"","302","32","1468","0","test_block","poldrack-single-stim","46","85927","0.0-5.0-32.0","go-nogo","true","0","","true","<div class = centerbox><div  id = stim2></div></div>","32","32","750","","test","go","32","adv","","",""
"","359","32","1433","0","test_block","poldrack-single-stim","47","87379","0.0-5.0-33.0","go-nogo","true","0","","true","<div class = centerbox><div  id = stim2></div></div>","32","32","750","","test","go","33","adv","","",""
"","278","32","1354","0","test_block","poldrack-single-stim","48","88758","0.0-5.0-34.0","go-nogo","true","0","","true","<div class = centerbox><div  id = stim2></div></div>","32","32","750","","test","go","34","adv","","",""
"","289","32","1095","0","test_block","poldrack-single-stim","49","89871","0.0-5.0-35.0","go-nogo","true","0","","true","<div class = centerbox><div  id = stim2></div></div>","32","32","750","","test","go","35","adv","","",""
"","344","32","1223","0","test_block","poldrack-single-stim","50","91111","0.0-5.0-36.0","go-nogo","true","0","","true","<div class = centerbox><div  id = stim2></div></div>","32","32","750","","test","go","36","adv","","",""
"","312","32","1031","0","test_block","poldrack-single-stim","51","92159","0.0-5.0-37.0","go-nogo","true","0","","true","<div class = centerbox><div  id = stim2></div></div>","32","32","750","","test","go","37","adv","","",""
"","304","32","1423","0","test_block","poldrack-single-stim","52","93601","0.0-5.0-38.0","go-nogo","true","0","","true","<div class = centerbox><div  id = stim2></div></div>","32","32","750","","test","go","38","adv","","",""
"","286","32","1194","0","test_block","poldrack-single-stim","53","94813","0.0-5.0-39.0","go-nogo","true","0","","true","<div class = centerbox><div  id = stim2></div></div>","32","32","750","","test","go","39","adv","","",""
"","290","32","1034","0","test_block","poldrack-single-stim","54","95865","0.0-5.0-40.0","go-nogo","true","0","","true","<div class = centerbox><div  id = stim2></div></div>","32","32","750","","test","go","40","adv","","",""
"","360","32","1154","0","test_block","poldrack-single-stim","55","97034","0.0-5.0-41.0","go-nogo","true","0","","true","<div class = centerbox><div  id = stim2></div></div>","32","32","750","","test","go","41","adv","","",""
"","287","32","1119","0","test_block","poldrack-single-stim","56","98176","0.0-5.0-42.0","go-nogo","true","0","","true","<div class = centerbox><div  id = stim2></div></div>","32","32","750","","test","go","42","adv","","",""
"","313","32","1190","0","test_block","poldrack-single-stim","57","99382","0.0-5.0-43.0","go-nogo","true","0","","true","<div class = centerbox><div  id = stim2></div></div>","32","32","750","","test","go","43","adv","","",""
"","283","32","1474","0","test_block","poldrack-single-stim","58","100871","0.0-5.0-44.0","go-nogo","true","1","","true","<div class = centerbox><div  id = stim2></div></div>","32","32","750","","test","go","44","adv","","",""
"","325","32","1349","0","test_block","poldrack-single-stim","59","102240","0.0-5.0-45.0","go-nogo","true","0","","true","<div class = centerbox><div  id = stim2></div></div>","32","32","750","","test","go","45","adv","","",""
"","289","32","1261","0","test_block","poldrack-single-stim","60","103516","0.0-5.0-46.0","go-nogo","true","0","","true","<div class = centerbox><div  id = stim2></div></div>","32","32","750","","test","go","46","adv","","",""
"","212","32","1381","0","test_block","poldrack-single-stim","61","104913","0.0-5.0-47.0","go-nogo","true","0","","true","<div class = centerbox><div  id = stim2></div></div>","32","32","750","","test","go","47","adv","","",""
"","282","32","1438","0","test_block","poldrack-single-stim","62","106371","0.0-5.0-48.0","go-nogo","true","0","","true","<div class = centerbox><div  id = stim2></div></div>","32","32","750","","test","go","48","adv","","",""
"","161","32","1245","0","test_block","poldrack-single-stim","63","107726","0.0-5.0-49.0","go-nogo","true","0","","true","<div class = centerbox><div  id = stim2></div></div>","32","32","750","","test","go","49","adv","","",""
"","311","32","1258","0","test_block","poldrack-single-stim","64","109014","0.0-5.0-50.0","go-nogo","true","0","","true","<div class = centerbox><div  id = stim2></div></div>","32","32","750","","test","go","50","adv","","",""
"","286","32","1192","0","test_block","poldrack-single-stim","65","110221","0.0-5.0-51.0","go-nogo","true","0","","true","<div class = centerbox><div  id = stim2></div></div>","32","32","750","","test","go","51","adv","","",""
"","367","32","1212","0","test_block","poldrack-single-stim","66","111447","0.0-5.0-52.0","go-nogo","true","0","","true","<div class = centerbox><div  id = stim2></div></div>","32","32","750","","test","go","52","adv","","",""
"","316","32","1369","0","test_block","poldrack-single-stim","67","112832","0.0-5.0-53.0","go-nogo","true","0","","true","<div class = centerbox><div  id = stim2></div></div>","32","32","750","","test","go","53","adv","","",""
"","291","32","1271","0","test_block","poldrack-single-stim","68","114119","0.0-5.0-54.0","go-nogo","true","0","","true","<div class = centerbox><div  id = stim2></div></div>","32","32","750","","test","go","54","adv","","",""
"","242","32","1206","0","test_block","poldrack-single-stim","69","115343","0.0-5.0-55.0","go-nogo","true","0","","true","<div class = centerbox><div  id = stim2></div></div>","32","32","750","","test","go","55","adv","","",""
"","296","32","1129","0","test_block","poldrack-single-stim","70","116492","0.0-5.0-56.0","go-nogo","true","0","","true","<div class = centerbox><div  id = stim2></div></div>","32","32","750","","test","go","56","adv","","",""
"","294","32","1261","0","test_block","poldrack-single-stim","71","117771","0.0-5.0-57.0","go-nogo","true","0","","true","<div class = centerbox><div  id = stim2></div></div>","32","32","750","","test","go","57","adv","","",""
"","257","32","1239","0","test_block","poldrack-single-stim","72","119031","0.0-5.0-58.0","go-nogo","true","0","","true","<div class = centerbox><div  id = stim2></div></div>","32","32","750","","test","go","58","adv","","",""
"","287","32","1192","0","test_block","poldrack-single-stim","73","120245","0.0-5.0-59.0","go-nogo","true","0","","true","<div class = centerbox><div  id = stim2></div></div>","32","32","750","","test","go","59","adv","","",""
"","266","32","1068","0","test_block","poldrack-single-stim","74","121333","0.0-5.0-60.0","go-nogo","true","0","","true","<div class = centerbox><div  id = stim2></div></div>","32","32","750","","test","go","60","adv","","",""
"","346","32","1407","0","test_block","poldrack-single-stim","75","122758","0.0-5.0-61.0","go-nogo","true","0","","true","<div class = centerbox><div  id = stim2></div></div>","32","32","750","","test","go","61","adv","","",""
"","300","32","1294","0","test_block","poldrack-single-stim","76","124067","0.0-5.0-62.0","go-nogo","true","0","","true","<div class = centerbox><div  id = stim2></div></div>","32","32","750","","test","go","62","adv","","",""
"","718","32","1463","0","test_block","poldrack-single-stim","77","125548","0.0-5.0-63.0","go-nogo","true","0","","true","<div class = centerbox><div  id = stim2></div></div>","32","32","750","","test","go","63","adv","","",""
"","283","32","1085","0","test_block","poldrack-single-stim","78","126652","0.0-5.0-64.0","go-nogo","true","0","","true","<div class = centerbox><div  id = stim2></div></div>","32","32","750","","test","go","64","adv","","",""
"","366","32","1261","0","test_block","poldrack-single-stim","79","127929","0.0-5.0-65.0","go-nogo","true","0","","true","<div class = centerbox><div  id = stim2></div></div>","32","32","750","","test","go","65","adv","","",""
"","291","32","1093","0","test_block","poldrack-single-stim","80","129044","0.0-5.0-66.0","go-nogo","true","0","","true","<div class = centerbox><div  id = stim2></div></div>","32","32","750","","test","go","66","adv","","",""
"","301","32","1232","0","test_block","poldrack-single-stim","81","130294","0.0-5.0-67.0","go-nogo","true","0","","true","<div class = centerbox><div  id = stim2></div></div>","32","32","750","","test","go","67","adv","","",""
"","284","32","1204","0","test_block","poldrack-single-stim","82","131530","0.0-5.0-68.0","go-nogo","true","0","","true","<div class = centerbox><div  id = stim2></div></div>","32","32","750","","test","go","68","adv","","",""
"","264","32","1087","0","test_block","poldrack-single-stim","83","132656","0.0-5.0-69.0","go-nogo","true","0","","true","<div class = centerbox><div  id = stim2></div></div>","32","32","750","","test","go","69","adv","","",""
"","296","32","1179","0","test_block","poldrack-single-stim","84","133853","0.0-5.0-70.0","go-nogo","true","0","","true","<div class = centerbox><div  id = stim2></div></div>","32","32","750","","test","go","70","adv","","",""
"","267","32","1325","0","test_block","poldrack-single-stim","85","135195","0.0-5.0-71.0","go-nogo","true","0","","true","<div class = centerbox><div  id = stim2></div></div>","32","32","750","","test","go","71","adv","","",""
"","257","32","1014","0","test_block","poldrack-single-stim","86","136231","0.0-5.0-72.0","go-nogo","true","1","","true","<div class = centerbox><div  id = stim2></div></div>","32","32","750","","test","go","72","adv","","",""
"","495","32","1141","0","test_block","poldrack-single-stim","87","137392","0.0-5.0-73.0","go-nogo","true","0","","true","<div class = centerbox><div  id = stim2></div></div>","32","32","750","","test","go","73","adv","","",""
"","309","32","1138","0","test_block","poldrack-single-stim","88","138551","0.0-5.0-74.0","go-nogo","true","0","","true","<div class = centerbox><div  id = stim2></div></div>","32","32","750","","test","go","74","adv","","",""
"","264","32","1106","0","test_block","poldrack-single-stim","89","139677","0.0-5.0-75.0","go-nogo","true","0","","true","<div class = centerbox><div  id = stim2></div></div>","32","32","750","","test","go","75","adv","","",""
"","268","32","1098","0","test_block","poldrack-single-stim","90","140792","0.0-5.0-76.0","go-nogo","true","0","","true","<div class = centerbox><div  id = stim2></div></div>","32","32","750","","test","go","76","adv","","",""
"","258","32","1388","0","test_block","poldrack-single-stim","91","142195","0.0-5.0-77.0","go-nogo","true","0","","true","<div class = centerbox><div  id = stim2></div></div>","32","32","750","","test","go","77","adv","","",""
"","37","32","1334","0","test_block","poldrack-single-stim","92","143546","0.0-5.0-78.0","go-nogo","true","0","","true","<div class = centerbox><div  id = stim2></div></div>","32","32","750","","test","go","78","adv","","",""
"","314","32","1072","0","test_block","poldrack-single-stim","93","144631","0.0-5.0-79.0","go-nogo","true","0","","true","<div class = centerbox><div  id = stim2></div></div>","32","32","750","","test","go","79","adv","","",""
"","313","32","1263","0","test_block","poldrack-single-stim","94","145910","0.0-5.0-80.0","go-nogo","true","0","","true","<div class = centerbox><div  id = stim2></div></div>","32","32","750","","test","go","80","adv","","",""
"","250","32","1188","0","test_block","poldrack-single-stim","95","147115","0.0-5.0-81.0","go-nogo","true","0","","true","<div class = centerbox><div  id = stim2></div></div>","32","32","750","","test","go","81","adv","","",""
"","229","32","1447","0","test_block","poldrack-single-stim","96","148579","0.0-5.0-82.0","go-nogo","true","0","","true","<div class = centerbox><div  id = stim2></div></div>","32","32","750","","test","go","82","adv","","",""
"","223","32","1482","0","test_block","poldrack-single-stim","97","150075","0.0-5.0-83.0","go-nogo","true","0","","true","<div class = centerbox><div  id = stim2></div></div>","32","32","750","","test","go","83","adv","","",""
"","303","32","1434","0","test_block","poldrack-single-stim","98","151524","0.0-5.0-84.0","go-nogo","true","0","","true","<div class = centerbox><div  id = stim2></div></div>","32","32","750","","test","go","84","adv","","",""
"","300","32","1004","0","test_block","poldrack-single-stim","99","152545","0.0-5.0-85.0","go-nogo","true","0","","true","<div class = centerbox><div  id = stim2></div></div>","32","32","750","","test","go","85","adv","","",""
"","375","32","1356","0","test_block","poldrack-single-stim","100","153917","0.0-5.0-86.0","go-nogo","true","0","","true","<div class = centerbox><div  id = stim2></div></div>","32","32","750","","test","go","86","adv","","",""
"","283","32","1064","0","test_block","poldrack-single-stim","101","154998","0.0-5.0-87.0","go-nogo","true","0","","true","<div class = centerbox><div  id = stim2></div></div>","32","32","750","","test","go","87","adv","","",""
"","360","32","1013","0","test_block","poldrack-single-stim","102","156029","0.0-5.0-88.0","go-nogo","true","0","","true","<div class = centerbox><div  id = stim2></div></div>","32","32","750","","test","go","88","adv","","",""
"","323","32","1100","0","test_block","poldrack-single-stim","103","157146","0.0-5.0-89.0","go-nogo","true","0","","true","<div class = centerbox><div  id = stim2></div></div>","32","32","750","","test","go","89","adv","","",""
"","318","32","1155","0","test_block","poldrack-single-stim","104","158326","0.0-5.0-90.0","go-nogo","true","0","","true","<div class = centerbox><div  id = stim2></div></div>","32","32","750","","test","go","90","adv","","",""
"","265","32","1440","0","test_block","poldrack-single-stim","105","159785","0.0-5.0-91.0","go-nogo","true","0","","true","<div class = centerbox><div  id = stim2></div></div>","32","32","750","","test","go","91","adv","","",""
"","41","32","1052","0","test_block","poldrack-single-stim","106","160852","0.0-5.0-92.0","go-nogo","true","0","","true","<div class = centerbox><div  id = stim2></div></div>","32","32","750","","test","go","92","adv","","",""
"","247","32","1478","0","test_block","poldrack-single-stim","107","162344","0.0-5.0-93.0","go-nogo","true","0","","true","<div class = centerbox><div  id = stim2></div></div>","32","32","750","","test","go","93","adv","","",""
"","257","32","1108","0","test_block","poldrack-single-stim","108","163468","0.0-5.0-94.0","go-nogo","true","0","","true","<div class = centerbox><div  id = stim2></div></div>","32","32","750","","test","go","94","adv","","",""
"","286","32","1181","0","test_block","poldrack-single-stim","109","164664","0.0-5.0-95.0","go-nogo","true","0","","true","<div class = centerbox><div  id = stim2></div></div>","32","32","750","","test","go","95","adv","","",""
"","260","32","1396","0","test_block","poldrack-single-stim","110","166072","0.0-5.0-96.0","go-nogo","true","0","","true","<div class = centerbox><div  id = stim2></div></div>","32","32","750","","test","go","96","adv","","",""
"","306","32","1338","0","test_block","poldrack-single-stim","111","167427","0.0-5.0-97.0","go-nogo","true","0","","true","<div class = centerbox><div  id = stim2></div></div>","32","32","750","","test","go","97","adv","","",""
"","246","32","1096","0","test_block","poldrack-single-stim","112","168540","0.0-5.0-98.0","go-nogo","true","0","","true","<div class = centerbox><div  id = stim2></div></div>","32","32","750","","test","go","98","adv","","",""
"","311","32","1066","0","test_block","poldrack-single-stim","113","169621","0.0-5.0-99.0","go-nogo","true","0","","true","<div class = centerbox><div  id = stim2></div></div>","32","32","750","","test","go","99","adv","","",""
"","307","32","1245","0","test_block","poldrack-single-stim","114","170884","0.0-5.0-100.0","go-nogo","true","0","","true","<div class = centerbox><div  id = stim2></div></div>","32","32","750","","test","go","100","adv","","",""
"","150","32","1075","0","test_block","poldrack-single-stim","115","171976","0.0-5.0-101.0","go-nogo","true","1","","true","<div class = centerbox><div  id = stim2></div></div>","32","32","750","","test","go","101","adv","","",""
"","897","32","1242","0","test_block","poldrack-single-stim","116","173259","0.0-5.0-102.0","go-nogo","true","0","","true","<div class = centerbox><div  id = stim2></div></div>","32","32","750","","test","go","102","adv","","",""
"","273","32","1487","0","test_block","poldrack-single-stim","117","174760","0.0-5.0-103.0","go-nogo","true","0","","true","<div class = centerbox><div  id = stim2></div></div>","32","32","750","","test","go","103","adv","","",""
"","359","32","1428","0","test_block","poldrack-single-stim","118","176207","0.0-5.0-104.0","go-nogo","true","0","","true","<div class = centerbox><div  id = stim2></div></div>","32","32","750","","test","go","104","adv","","",""
"","266","32","1040","0","test_block","poldrack-single-stim","119","177264","0.0-5.0-105.0","go-nogo","true","0","","true","<div class = centerbox><div  id = stim2></div></div>","32","32","750","","test","go","105","adv","","",""
"","336","32","1129","0","test_block","poldrack-single-stim","120","178411","0.0-5.0-106.0","go-nogo","true","0","","true","<div class = centerbox><div  id = stim2></div></div>","32","32","750","","test","go","106","adv","","",""
"","257","32","1461","0","test_block","poldrack-single-stim","121","179934","0.0-5.0-107.0","go-nogo","true","0","","true","<div class = centerbox><div  id = stim2></div></div>","32","32","750","","test","go","107","adv","","",""
"","254","32","1225","0","test_block","poldrack-single-stim","122","181173","0.0-5.0-108.0","go-nogo","true","0","","true","<div class = centerbox><div  id = stim2></div></div>","32","32","750","","test","go","108","adv","","",""
"","238","32","1473","0","test_block","poldrack-single-stim","123","182661","0.0-5.0-109.0","go-nogo","true","0","","true","<div class = centerbox><div  id = stim2></div></div>","32","32","750","","test","go","109","adv","","",""
"","91","32","1183","0","test_block","poldrack-single-stim","124","183862","0.0-5.0-110.0","go-nogo","true","0","","true","<div class = centerbox><div  id = stim2></div></div>","32","32","750","","test","go","110","adv","","",""
"","196","32","1484","0","test_block","poldrack-single-stim","125","185362","0.0-5.0-111.0","go-nogo","true","0","","true","<div class = centerbox><div  id = stim2></div></div>","32","32","750","","test","go","111","adv","","",""
"","0","32","1421","0","test_block","poldrack-single-stim","126","186800","0.0-5.0-112.0","go-nogo","true","0","","true","<div class = centerbox><div  id = stim2></div></div>","32","32","750","","test","go","112","adv","","",""
"","343","32","1060","0","test_block","poldrack-single-stim","127","187878","0.0-5.0-113.0","go-nogo","true","0","","true","<div class = centerbox><div  id = stim2></div></div>","32","32","750","","test","go","113","adv","","",""
"","290","32","1168","0","test_block","poldrack-single-stim","128","189064","0.0-5.0-114.0","go-nogo","true","0","","true","<div class = centerbox><div  id = stim2></div></div>","32","32","750","","test","go","114","adv","","",""
"","312","32","1094","0","test_block","poldrack-single-stim","129","190174","0.0-5.0-115.0","go-nogo","true","0","","true","<div class = centerbox><div  id = stim2></div></div>","32","32","750","","test","go","115","adv","","",""
"","293","32","1016","0","test_block","poldrack-single-stim","130","191212","0.0-5.0-116.0","go-nogo","true","0","","true","<div class = centerbox><div  id = stim2></div></div>","32","32","750","","test","go","116","adv","","",""
"","302","32","1239","0","test_block","poldrack-single-stim","131","192473","0.0-5.0-117.0","go-nogo","true","0","","true","<div class = centerbox><div  id = stim2></div></div>","32","32","750","","test","go","117","adv","","",""
"","276","32","1474","0","test_block","poldrack-single-stim","132","193966","0.0-5.0-118.0","go-nogo","true","0","","true","<div class = centerbox><div  id = stim2></div></div>","32","32","750","","test","go","118","adv","","",""
"","223","32","1034","0","test_block","poldrack-single-stim","133","195021","0.0-5.0-119.0","go-nogo","true","0","","true","<div class = centerbox><div  id = stim2></div></div>","32","32","750","","test","go","119","adv","","",""
"","345","32","1234","0","test_block","poldrack-single-stim","134","196300","0.0-5.0-120.0","go-nogo","true","0","","true","<div class = centerbox><div  id = stim2></div></div>","32","32","750","","test","go","120","adv","","",""
"","278","32","1261","0","test_block","poldrack-single-stim","135","197576","0.0-5.0-121.0","go-nogo","true","0","","true","<div class = centerbox><div  id = stim2></div></div>","32","32","750","","test","go","121","adv","","",""
"","259","32","1419","0","test_block","poldrack-single-stim","136","199009","0.0-5.0-122.0","go-nogo","true","0","","true","<div class = centerbox><div  id = stim2></div></div>","32","32","750","","test","go","122","adv","","",""
"","21","32","1036","0","test_block","poldrack-single-stim","137","200124","0.0-5.0-123.0","go-nogo","true","0","","true","<div class = centerbox><div  id = stim2></div></div>","32","32","750","","test","go","123","adv","","",""
"","284","32","1247","0","test_block","poldrack-single-stim","138","201396","0.0-5.0-124.0","go-nogo","true","0","","true","<div class = centerbox><div  id = stim2></div></div>","32","32","750","","test","go","124","adv","","",""
"","647","32","1027","0","test_block","poldrack-single-stim","139","202437","0.0-5.0-125.0","go-nogo","true","0","","true","<div class = centerbox><div  id = stim2></div></div>","32","32","750","","test","go","125","adv","","",""
"","365","32","1133","0","test_block","poldrack-single-stim","140","203585","0.0-5.0-126.0","go-nogo","true","0","","true","<div class = centerbox><div  id = stim2></div></div>","32","32","750","","test","go","126","adv","","",""
"","245","32","1473","0","test_block","poldrack-single-stim","141","205077","0.0-5.0-127.0","go-nogo","true","0","","true","<div class = centerbox><div  id = stim2></div></div>","32","32","750","","test","go","127","adv","","",""
"","13","32","1090","0","test_block","poldrack-single-stim","142","206182","0.0-5.0-128.0","go-nogo","true","0","","true","<div class = centerbox><div  id = stim2></div></div>","32","32","750","","test","go","128","adv","","",""
"","315","32","1397","0","test_block","poldrack-single-stim","143","207595","0.0-5.0-129.0","go-nogo","true","0","","true","<div class = centerbox><div  id = stim2></div></div>","32","32","750","","test","go","129","adv","","",""
"","181","32","1290","0","test_block","poldrack-single-stim","144","208901","0.0-5.0-130.0","go-nogo","true","0","","true","<div class = centerbox><div  id = stim2></div></div>","32","32","750","","test","go","130","adv","","",""
"","159","32","1119","0","test_block","poldrack-single-stim","145","210041","0.0-5.0-131.0","go-nogo","true","0","","false","<div class = centerbox><div  id = stim1></div></div>","-1","32","750","","test","nogo","131","adv","","",""
"","-1","-1","1349","0","test_block","poldrack-single-stim","146","211404","0.0-5.0-132.0","go-nogo","true","0","","true","<div class = centerbox><div  id = stim1></div></div>","-1","32","750","","test","nogo","132","adv","","",""
"","369","32","1482","0","test_block","poldrack-single-stim","147","212904","0.0-5.0-133.0","go-nogo","true","0","","true","<div class = centerbox><div  id = stim2></div></div>","32","32","750","","test","go","133","adv","","",""
"","326","32","1094","0","test_block","poldrack-single-stim","148","214016","0.0-5.0-134.0","go-nogo","true","0","","true","<div class = centerbox><div  id = stim2></div></div>","32","32","750","","test","go","134","adv","","",""
"","337","32","1341","0","test_block","poldrack-single-stim","149","215372","0.0-5.0-135.0","go-nogo","true","0","","true","<div class = centerbox><div  id = stim2></div></div>","32","32","750","","test","go","135","adv","","",""
"","285","32","1243","0","test_block","poldrack-single-stim","150","216631","0.0-5.0-136.0","go-nogo","true","0","","true","<div class = centerbox><div  id = stim2></div></div>","32","32","750","","test","go","136","adv","","",""
"","278","32","1343","0","test_block","poldrack-single-stim","151","217992","0.0-5.0-137.0","go-nogo","true","1","","false","<div class = centerbox><div  id = stim1></div></div>","-1","32","750","","test","nogo","137","adv","","",""
"","-1","-1","1157","0","test_block","poldrack-single-stim","152","219165","0.0-5.0-138.0","go-nogo","true","0","","true","<div class = centerbox><div  id = stim1></div></div>","-1","32","750","","test","nogo","138","adv","","",""
"","390","32","1365","0","test_block","poldrack-single-stim","153","220544","0.0-5.0-139.0","go-nogo","true","0","","true","<div class = centerbox><div  id = stim2></div></div>","32","32","750","","test","go","139","adv","","",""
"","412","32","1268","0","test_block","poldrack-single-stim","154","221840","0.0-5.0-140.0","go-nogo","true","0","","true","<div class = centerbox><div  id = stim2></div></div>","32","32","750","","test","go","140","adv","","",""
"","385","32","1492","0","test_block","poldrack-single-stim","155","223347","0.0-5.0-141.0","go-nogo","true","0","","true","<div class = centerbox><div  id = stim2></div></div>","32","32","750","","test","go","141","adv","","",""
"","309","32","1278","0","test_block","poldrack-single-stim","156","224642","0.0-5.0-142.0","go-nogo","true","0","","true","<div class = centerbox><div  id = stim2></div></div>","32","32","750","","test","go","142","adv","","",""
"","-1","-1","1437","0","test_block","poldrack-single-stim","157","226101","0.0-5.0-143.0","go-nogo","true","0","","true","<div class = centerbox><div  id = stim1></div></div>","-1","32","750","","test","nogo","143","adv","","",""
"","334","32","1159","0","test_block","poldrack-single-stim","158","227303","0.0-5.0-144.0","go-nogo","true","0","","true","<div class = centerbox><div  id = stim2></div></div>","32","32","750","","test","go","144","adv","","",""
"","355","32","1440","0","test_block","poldrack-single-stim","159","228760","0.0-5.0-145.0","go-nogo","true","0","","true","<div class = centerbox><div  id = stim2></div></div>","32","32","750","","test","go","145","adv","","",""
"","248","32","1194","0","test_block","poldrack-single-stim","160","229973","0.0-5.0-146.0","go-nogo","true","0","","true","<div class = centerbox><div  id = stim2></div></div>","32","32","750","","test","go","146","adv","","",""
"","293","32","1408","0","test_block","poldrack-single-stim","161","231398","0.0-5.0-147.0","go-nogo","true","0","","true","<div class = centerbox><div  id = stim2></div></div>","32","32","750","","test","go","147","adv","","",""
"","278","32","1117","0","test_block","poldrack-single-stim","162","232530","0.0-5.0-148.0","go-nogo","true","0","","false","<div class = centerbox><div  id = stim1></div></div>","-1","32","750","","test","nogo","148","adv","","",""
"","-1","-1","1352","0","test_block","poldrack-single-stim","163","233901","0.0-5.0-149.0","go-nogo","true","0","","true","<div class = centerbox><div  id = stim1></div></div>","-1","32","750","","test","nogo","149","adv","","",""
"","377","32","1391","0","test_block","poldrack-single-stim","164","235327","0.0-5.0-150.0","go-nogo","true","0","","true","<div class = centerbox><div  id = stim2></div></div>","32","32","750","","test","go","150","adv","","",""
"","313","32","1204","0","test_block","poldrack-single-stim","165","236550","0.0-5.0-151.0","go-nogo","true","0","","true","<div class = centerbox><div  id = stim2></div></div>","32","32","750","","test","go","151","adv","","",""
"","313","32","1159","0","test_block","poldrack-single-stim","166","237728","0.0-5.0-152.0","go-nogo","true","0","","true","<div class = centerbox><div  id = stim2></div></div>","32","32","750","","test","go","152","adv","","",""
"","287","32","1367","0","test_block","poldrack-single-stim","167","239115","0.0-5.0-153.0","go-nogo","true","0","","true","<div class = centerbox><div  id = stim2></div></div>","32","32","750","","test","go","153","adv","","",""
"","-1","-1","1136","0","test_block","poldrack-single-stim","168","240264","0.0-5.0-154.0","go-nogo","true","0","","true","<div class = centerbox><div  id = stim1></div></div>","-1","32","750","","test","nogo","154","adv","","",""
"","276","32","1319","0","test_block","poldrack-single-stim","169","241605","0.0-5.0-155.0","go-nogo","true","0","","true","<div class = centerbox><div  id = stim2></div></div>","32","32","750","","test","go","155","adv","","",""
"","324","32","1084","0","test_block","poldrack-single-stim","170","242706","0.0-5.0-156.0","go-nogo","true","0","","true","<div class = centerbox><div  id = stim2></div></div>","32","32","750","","test","go","156","adv","","",""
"","316","32","1205","0","test_block","poldrack-single-stim","171","243931","0.0-5.0-157.0","go-nogo","true","0","","true","<div class = centerbox><div  id = stim2></div></div>","32","32","750","","test","go","157","adv","","",""
"","308","32","1310","0","test_block","poldrack-single-stim","172","245260","0.0-5.0-158.0","go-nogo","true","0","","true","<div class = centerbox><div  id = stim2></div></div>","32","32","750","","test","go","158","adv","","",""
"","297","32","1251","0","test_block","poldrack-single-stim","173","246531","0.0-5.0-159.0","go-nogo","true","0","","true","<div class = centerbox><div  id = stim2></div></div>","32","32","750","","test","go","159","adv","","",""
"","310","32","1167","0","test_block","poldrack-single-stim","174","247715","0.0-5.0-160.0","go-nogo","true","0","","true","<div class = centerbox><div  id = stim2></div></div>","32","32","750","","test","go","160","adv","","",""
"","-1","-1","1075","0","test_block","poldrack-single-stim","175","248809","0.0-5.0-161.0","go-nogo","true","0","","true","<div class = centerbox><div  id = stim1></div></div>","-1","32","750","","test","nogo","161","adv","","",""
"","327","32","1005","0","test_block","poldrack-single-stim","176","249832","0.0-5.0-162.0","go-nogo","true","0","","true","<div class = centerbox><div  id = stim2></div></div>","32","32","750","","test","go","162","adv","","",""
"","305","32","1014","0","test_block","poldrack-single-stim","177","250863","0.0-5.0-163.0","go-nogo","true","0","","true","<div class = centerbox><div  id = stim2></div></div>","32","32","750","","test","go","163","adv","","",""
"","302","32","1079","0","test_block","poldrack-single-stim","178","251955","0.0-5.0-164.0","go-nogo","true","0","","true","<div class = centerbox><div  id = stim2></div></div>","32","32","750","","test","go","164","adv","","",""
"","281","32","1333","0","test_block","poldrack-single-stim","179","253302","0.0-5.0-165.0","go-nogo","true","0","","true","<div class = centerbox><div  id = stim2></div></div>","32","32","750","","test","go","165","adv","","",""
"","297","32","1157","0","test_block","poldrack-single-stim","180","254478","0.0-5.0-166.0","go-nogo","true","0","","true","<div class = centerbox><div  id = stim2></div></div>","32","32","750","","test","go","166","adv","","",""
"","257","32","1156","0","test_block","poldrack-single-stim","181","255652","0.0-5.0-167.0","go-nogo","true","0","","true","<div class = centerbox><div  id = stim2></div></div>","32","32","750","","test","go","167","adv","","",""
"","261","32","1113","0","test_block","poldrack-single-stim","182","256782","0.0-5.0-168.0","go-nogo","true","0","","true","<div class = centerbox><div  id = stim2></div></div>","32","32","750","","test","go","168","adv","","",""
"","265","32","1487","0","test_block","poldrack-single-stim","183","258287","0.0-5.0-169.0","go-nogo","true","0","","true","<div class = centerbox><div  id = stim2></div></div>","32","32","750","","test","go","169","adv","","",""
"","186","32","1100","0","test_block","poldrack-single-stim","184","259403","0.0-5.0-170.0","go-nogo","true","1","","true","<div class = centerbox><div  id = stim2></div></div>","32","32","750","","test","go","170","adv","","",""
"","416","32","1307","0","test_block","poldrack-single-stim","185","260724","0.0-5.0-171.0","go-nogo","true","0","","false","<div class = centerbox><div  id = stim1></div></div>","-1","32","750","","test","nogo","171","adv","","",""
"","-1","-1","1350","0","test_block","poldrack-single-stim","186","262093","0.0-5.0-172.0","go-nogo","true","0","","true","<div class = centerbox><div  id = stim1></div></div>","-1","32","750","","test","nogo","172","adv","","",""
"","355","32","1194","0","test_block","poldrack-single-stim","187","263304","0.0-5.0-173.0","go-nogo","true","0","","true","<div class = centerbox><div  id = stim2></div></div>","32","32","750","","test","go","173","adv","","",""
"","298","32","1467","0","test_block","poldrack-single-stim","188","264786","0.0-5.0-174.0","go-nogo","true","0","","true","<div class = centerbox><div  id = stim2></div></div>","32","32","750","","test","go","174","adv","","",""
"","279","32","1201","0","test_block","poldrack-single-stim","189","266017","0.0-5.0-175.0","go-nogo","true","0","","true","<div class = centerbox><div  id = stim2></div></div>","32","32","750","","test","go","175","adv","","",""
"","336","32","1112","0","test_block","poldrack-single-stim","190","267153","0.0-5.0-176.0","go-nogo","true","0","","true","<div class = centerbox><div  id = stim2></div></div>","32","32","750","","test","go","176","adv","","",""
"","-1","-1","1153","0","test_block","poldrack-single-stim","191","268319","0.0-5.0-177.0","go-nogo","true","0","","true","<div class = centerbox><div  id = stim1></div></div>","-1","32","750","","test","nogo","177","adv","","",""
"","328","32","1226","0","test_block","poldrack-single-stim","192","269563","0.0-5.0-178.0","go-nogo","true","0","","true","<div class = centerbox><div  id = stim2></div></div>","32","32","750","","test","go","178","adv","","",""
"","327","32","1432","0","test_block","poldrack-single-stim","193","271010","0.0-5.0-179.0","go-nogo","true","0","","true","<div class = centerbox><div  id = stim2></div></div>","32","32","750","","test","go","179","adv","","",""
"","346","32","1041","0","test_block","poldrack-single-stim","194","272080","0.0-5.0-180.0","go-nogo","true","0","","true","<div class = centerbox><div  id = stim2></div></div>","32","32","750","","test","go","180","adv","","",""
"","409","32","1061","0","test_block","poldrack-single-stim","195","273157","0.0-5.0-181.0","go-nogo","true","0","","true","<div class = centerbox><div  id = stim2></div></div>","32","32","750","","test","go","181","adv","","",""
"","355","32","1400","0","test_block","poldrack-single-stim","196","274582","0.0-5.0-182.0","go-nogo","true","0","","true","<div class = centerbox><div  id = stim2></div></div>","32","32","750","","test","go","182","adv","","",""
"","299","32","1040","0","test_block","poldrack-single-stim","197","275638","0.0-5.0-183.0","go-nogo","true","0","","true","<div class = centerbox><div  id = stim2></div></div>","32","32","750","","test","go","183","adv","","",""
"","326","32","1461","0","test_block","poldrack-single-stim","198","277120","0.0-5.0-184.0","go-nogo","true","0","","true","<div class = centerbox><div  id = stim2></div></div>","32","32","750","","test","go","184","adv","","",""
"","-1","-1","1408","0","test_block","poldrack-single-stim","199","278546","0.0-5.0-185.0","go-nogo","true","0","","true","<div class = centerbox><div  id = stim1></div></div>","-1","32","750","","test","nogo","185","adv","","",""
"","279","32","1032","0","test_block","poldrack-single-stim","200","279612","0.0-5.0-186.0","go-nogo","true","0","","true","<div class = centerbox><div  id = stim2></div></div>","32","32","750","","test","go","186","adv","","",""
"","351","32","1221","0","test_block","poldrack-single-stim","201","280926","0.0-5.0-187.0","go-nogo","true","0","","true","<div class = centerbox><div  id = stim2></div></div>","32","32","750","","test","go","187","adv","","",""
"","306","32","1200","0","test_block","poldrack-single-stim","202","282143","0.0-5.0-188.0","go-nogo","true","0","","true","<div class = centerbox><div  id = stim2></div></div>","32","32","750","","test","go","188","adv","","",""
"","299","32","1182","0","test_block","poldrack-single-stim","203","283347","0.0-5.0-189.0","go-nogo","true","0","","true","<div class = centerbox><div  id = stim2></div></div>","32","32","750","","test","go","189","adv","","",""
"","294","32","1208","0","test_block","poldrack-single-stim","204","284571","0.0-5.0-190.0","go-nogo","true","0","","true","<div class = centerbox><div  id = stim2></div></div>","32","32","750","","test","go","190","adv","","",""
"","279","32","1295","0","test_block","poldrack-single-stim","205","285888","0.0-5.0-191.0","go-nogo","true","0","","true","<div class = centerbox><div  id = stim2></div></div>","32","32","750","","test","go","191","adv","","",""
"","300","32","1017","0","test_block","poldrack-single-stim","206","286928","0.0-5.0-192.0","go-nogo","true","0","","true","<div class = centerbox><div  id = stim2></div></div>","32","32","750","","test","go","192","adv","","",""
"","352","32","1039","0","test_block","poldrack-single-stim","207","287986","0.0-5.0-193.0","go-nogo","true","0","","true","<div class = centerbox><div  id = stim2></div></div>","32","32","750","","test","go","193","adv","","",""
"","415","32","1142","0","test_block","poldrack-single-stim","208","289146","0.0-5.0-194.0","go-nogo","true","0","","true","<div class = centerbox><div  id = stim2></div></div>","32","32","750","","test","go","194","adv","","",""
"","311","32","1309","0","test_block","poldrack-single-stim","209","290473","0.0-5.0-195.0","go-nogo","true","0","","true","<div class = centerbox><div  id = stim2></div></div>","32","32","750","","test","go","195","adv","","",""
"","-1","-1","1230","0","test_block","poldrack-single-stim","210","291726","0.0-5.0-196.0","go-nogo","true","0","","true","<div class = centerbox><div  id = stim1></div></div>","-1","32","750","","test","nogo","196","adv","","",""
"","215","32","1059","0","test_block","poldrack-single-stim","211","292839","0.0-5.0-197.0","go-nogo","true","0","","true","<div class = centerbox><div  id = stim2></div></div>","32","32","750","","test","go","197","adv","","",""
"","354","32","1339","0","test_block","poldrack-single-stim","212","294197","0.0-5.0-198.0","go-nogo","true","0","","true","<div class = centerbox><div  id = stim2></div></div>","32","32","750","","test","go","198","adv","","",""
"","283","32","1477","0","test_block","poldrack-single-stim","213","295693","0.0-5.0-199.0","go-nogo","true","0","","true","<div class = centerbox><div  id = stim2></div></div>","32","32","750","","test","go","199","adv","","",""
"","285","32","1441","0","test_block","poldrack-single-stim","214","297151","0.0-5.0-200.0","go-nogo","true","0","","true","<div class = centerbox><div  id = stim2></div></div>","32","32","750","","test","go","200","adv","","",""
"","282","32","1274","0","test_block","poldrack-single-stim","215","298441","0.0-5.0-201.0","go-nogo","true","0","","true","<div class = centerbox><div  id = stim2></div></div>","32","32","750","","test","go","201","adv","","",""
"","296","32","1057","0","test_block","poldrack-single-stim","216","299515","0.0-5.0-202.0","go-nogo","true","0","","true","<div class = centerbox><div  id = stim2></div></div>","32","32","750","","test","go","202","adv","","",""
"","327","32","1009","0","test_block","poldrack-single-stim","217","300540","0.0-5.0-203.0","go-nogo","true","0","","true","<div class = centerbox><div  id = stim2></div></div>","32","32","750","","test","go","203","adv","","",""
"","339","32","1453","0","test_block","poldrack-single-stim","218","302011","0.0-5.0-204.0","go-nogo","true","1","","true","<div class = centerbox><div  id = stim2></div></div>","32","32","750","","test","go","204","adv","","",""
"","-1","-1","1242","0","test_block","poldrack-single-stim","219","303275","0.0-5.0-205.0","go-nogo","true","0","","false","<div class = centerbox><div  id = stim2></div></div>","32","32","750","","test","go","205","adv","","",""
"","265","32","1494","0","test_block","poldrack-single-stim","220","304790","0.0-5.0-206.0","go-nogo","true","0","","true","<div class = centerbox><div  id = stim2></div></div>","32","32","750","","test","go","206","adv","","",""
"","285","32","1400","0","test_block","poldrack-single-stim","221","306205","0.0-5.0-207.0","go-nogo","true","0","","false","<div class = centerbox><div  id = stim1></div></div>","-1","32","750","","test","nogo","207","adv","","",""
"","260","32","1113","0","test_block","poldrack-single-stim","222","307335","0.0-5.0-208.0","go-nogo","true","0","","false","<div class = centerbox><div  id = stim1></div></div>","-1","32","750","","test","nogo","208","adv","","",""
"","-1","-1","1365","0","test_block","poldrack-single-stim","223","308724","0.0-5.0-209.0","go-nogo","true","0","","true","<div class = centerbox><div  id = stim1></div></div>","-1","32","750","","test","nogo","209","adv","","",""
"","321","32","1079","0","test_block","poldrack-single-stim","224","309840","0.0-5.0-210.0","go-nogo","true","0","","true","<div class = centerbox><div  id = stim2></div></div>","32","32","750","","test","go","210","adv","","",""
"","329","32","1415","0","test_block","poldrack-single-stim","225","311272","0.0-5.0-211.0","go-nogo","true","0","","true","<div class = centerbox><div  id = stim2></div></div>","32","32","750","","test","go","211","adv","","",""
"","352","32","1045","0","test_block","poldrack-single-stim","226","312335","0.0-5.0-212.0","go-nogo","true","0","","true","<div class = centerbox><div  id = stim2></div></div>","32","32","750","","test","go","212","adv","","",""
"","320","32","1264","0","test_block","poldrack-single-stim","227","313618","0.0-5.0-213.0","go-nogo","true","0","","true","<div class = centerbox><div  id = stim2></div></div>","32","32","750","","test","go","213","adv","","",""
"","311","32","1339","0","test_block","poldrack-single-stim","228","314973","0.0-5.0-214.0","go-nogo","true","0","","true","<div class = centerbox><div  id = stim2></div></div>","32","32","750","","test","go","214","adv","","",""
"","302","32","1483","0","test_block","poldrack-single-stim","229","316471","0.0-5.0-215.0","go-nogo","true","0","","true","<div class = centerbox><div  id = stim2></div></div>","32","32","750","","test","go","215","adv","","",""
"","290","32","1358","0","test_block","poldrack-single-stim","230","317845","0.0-5.0-216.0","go-nogo","true","0","","true","<div class = centerbox><div  id = stim2></div></div>","32","32","750","","test","go","216","adv","","",""
"","315","32","1169","0","test_block","poldrack-single-stim","231","319031","0.0-5.0-217.0","go-nogo","true","0","","true","<div class = centerbox><div  id = stim2></div></div>","32","32","750","","test","go","217","adv","","",""
"","270","32","1385","0","test_block","poldrack-single-stim","232","320438","0.0-5.0-218.0","go-nogo","true","0","","true","<div class = centerbox><div  id = stim2></div></div>","32","32","750","","test","go","218","adv","","",""
"","290","32","1021","0","test_block","poldrack-single-stim","233","321476","0.0-5.0-219.0","go-nogo","true","0","","true","<div class = centerbox><div  id = stim2></div></div>","32","32","750","","test","go","219","adv","","",""
"","350","32","1486","0","test_block","poldrack-single-stim","234","322984","0.0-5.0-220.0","go-nogo","true","0","","true","<div class = centerbox><div  id = stim2></div></div>","32","32","750","","test","go","220","adv","","",""
"","303","32","1271","0","test_block","poldrack-single-stim","235","324274","0.0-5.0-221.0","go-nogo","true","0","","true","<div class = centerbox><div  id = stim2></div></div>","32","32","750","","test","go","221","adv","","",""
"","316","32","1219","0","test_block","poldrack-single-stim","236","325511","0.0-5.0-222.0","go-nogo","true","0","","true","<div class = centerbox><div  id = stim2></div></div>","32","32","750","","test","go","222","adv","","",""
"","311","32","1157","0","test_block","poldrack-single-stim","237","326694","0.0-5.0-223.0","go-nogo","true","0","","true","<div class = centerbox><div  id = stim2></div></div>","32","32","750","","test","go","223","adv","","",""
"","294","32","1318","0","test_block","poldrack-single-stim","238","328033","0.0-5.0-224.0","go-nogo","true","0","","true","<div class = centerbox><div  id = stim2></div></div>","32","32","750","","test","go","224","adv","","",""
"","286","32","1233","0","test_block","poldrack-single-stim","239","329284","0.0-5.0-225.0","go-nogo","true","0","","true","<div class = centerbox><div  id = stim2></div></div>","32","32","750","","test","go","225","adv","","",""
"","319","32","1109","0","test_block","poldrack-single-stim","240","330422","0.0-5.0-226.0","go-nogo","true","0","","true","<div class = centerbox><div  id = stim2></div></div>","32","32","750","","test","go","226","adv","","",""
"","267","32","1297","0","test_block","poldrack-single-stim","241","331782","0.0-5.0-227.0","go-nogo","true","0","","true","<div class = centerbox><div  id = stim2></div></div>","32","32","750","","test","go","227","adv","","",""
"","259","32","1375","0","test_block","poldrack-single-stim","242","333173","0.0-5.0-228.0","go-nogo","true","0","","true","<div class = centerbox><div  id = stim2></div></div>","32","32","750","","test","go","228","adv","","",""
"","287","32","1128","0","test_block","poldrack-single-stim","243","334322","0.0-5.0-229.0","go-nogo","true","0","","true","<div class = centerbox><div  id = stim2></div></div>","32","32","750","","test","go","229","adv","","",""
"","309","32","1381","0","test_block","poldrack-single-stim","244","335745","0.0-5.0-230.0","go-nogo","true","0","","false","<div class = centerbox><div  id = stim1></div></div>","-1","32","750","","test","nogo","230","adv","","",""
"","264","32","1338","0","test_block","poldrack-single-stim","245","337099","0.0-5.0-231.0","go-nogo","true","0","","false","<div class = centerbox><div  id = stim1></div></div>","-1","32","750","","test","nogo","231","adv","","",""
"","-1","-1","1465","0","test_block","poldrack-single-stim","246","338586","0.0-5.0-232.0","go-nogo","true","0","","true","<div class = centerbox><div  id = stim1></div></div>","-1","32","750","","test","nogo","232","adv","","",""
"","352","32","1101","0","test_block","poldrack-single-stim","247","339725","0.0-5.0-233.0","go-nogo","true","0","","true","<div class = centerbox><div  id = stim2></div></div>","32","32","750","","test","go","233","adv","","",""
"","378","32","1143","0","test_block","poldrack-single-stim","248","340886","0.0-5.0-234.0","go-nogo","true","0","","true","<div class = centerbox><div  id = stim2></div></div>","32","32","750","","test","go","234","adv","","",""
"","346","32","1366","0","test_block","poldrack-single-stim","249","342267","0.0-5.0-235.0","go-nogo","true","0","","true","<div class = centerbox><div  id = stim2></div></div>","32","32","750","","test","go","235","adv","","",""
"","299","32","1228","0","test_block","poldrack-single-stim","250","343513","0.0-5.0-236.0","go-nogo","true","0","","true","<div class = centerbox><div  id = stim2></div></div>","32","32","750","","test","go","236","adv","","",""
"","309","32","1247","0","test_block","poldrack-single-stim","251","344779","0.0-5.0-237.0","go-nogo","true","0","","true","<div class = centerbox><div  id = stim2></div></div>","32","32","750","","test","go","237","adv","","",""
"","-1","-1","1373","0","test_block","poldrack-single-stim","252","346176","0.0-5.0-238.0","go-nogo","true","1","","true","<div class = centerbox><div  id = stim1></div></div>","-1","32","750","","test","nogo","238","adv","","",""
"","493","32","1139","0","test_block","poldrack-single-stim","253","347349","0.0-5.0-239.0","go-nogo","true","0","","true","<div class = centerbox><div  id = stim2></div></div>","32","32","750","","test","go","239","adv","","",""
"","336","32","1220","0","test_block","poldrack-single-stim","254","348591","0.0-5.0-240.0","go-nogo","true","0","","true","<div class = centerbox><div  id = stim2></div></div>","32","32","750","","test","go","240","adv","","",""
"","311","32","1304","0","test_block","poldrack-single-stim","255","349915","0.0-5.0-241.0","go-nogo","true","0","","true","<div class = centerbox><div  id = stim2></div></div>","32","32","750","","test","go","241","adv","","",""
"","318","32","1443","0","test_block","poldrack-single-stim","256","351391","0.0-5.0-242.0","go-nogo","true","0","","true","<div class = centerbox><div  id = stim2></div></div>","32","32","750","","test","go","242","adv","","",""
"","301","32","1037","0","test_block","poldrack-single-stim","257","352450","0.0-5.0-243.0","go-nogo","true","0","","true","<div class = centerbox><div  id = stim2></div></div>","32","32","750","","test","go","243","adv","","",""
"","388","32","1064","0","test_block","poldrack-single-stim","258","353535","0.0-5.0-244.0","go-nogo","true","0","","true","<div class = centerbox><div  id = stim2></div></div>","32","32","750","","test","go","244","adv","","",""
"","360","32","1159","0","test_block","poldrack-single-stim","259","354713","0.0-5.0-245.0","go-nogo","true","0","","true","<div class = centerbox><div  id = stim2></div></div>","32","32","750","","test","go","245","adv","","",""
"","320","32","1110","0","test_block","poldrack-single-stim","260","355840","0.0-5.0-246.0","go-nogo","true","0","","true","<div class = centerbox><div  id = stim2></div></div>","32","32","750","","test","go","246","adv","","",""
"","344","32","1235","0","test_block","poldrack-single-stim","261","357180","0.0-5.0-247.0","go-nogo","true","0","","true","<div class = centerbox><div  id = stim2></div></div>","32","32","750","","test","go","247","adv","","",""
"","261","32","1091","0","test_block","poldrack-single-stim","262","358298","0.0-5.0-248.0","go-nogo","true","0","","true","<div class = centerbox><div  id = stim2></div></div>","32","32","750","","test","go","248","adv","","",""
"","-1","-1","1329","0","test_block","poldrack-single-stim","263","359644","0.0-5.0-249.0","go-nogo","true","0","","true","<div class = centerbox><div  id = stim1></div></div>","-1","32","750","","test","nogo","249","adv","","",""
"","288","32","1373","0","test_block","poldrack-single-stim","264","361047","0.0-5.0-250.0","go-nogo","true","0","","true","<div class = centerbox><div  id = stim2></div></div>","32","32","750","","test","go","250","adv","","",""
"","319","32","1202","0","test_block","poldrack-single-stim","265","362268","0.0-5.0-251.0","go-nogo","true","0","","true","<div class = centerbox><div  id = stim2></div></div>","32","32","750","","test","go","251","adv","","",""
"","310","32","1486","0","test_block","poldrack-single-stim","266","363769","0.0-5.0-252.0","go-nogo","true","0","","true","<div class = centerbox><div  id = stim2></div></div>","32","32","750","","test","go","252","adv","","",""
"","307","32","1400","0","test_block","poldrack-single-stim","267","365183","0.0-5.0-253.0","go-nogo","true","0","","true","<div class = centerbox><div  id = stim2></div></div>","32","32","750","","test","go","253","adv","","",""
"","290","32","1020","0","test_block","poldrack-single-stim","268","366219","0.0-5.0-254.0","go-nogo","true","0","","true","<div class = centerbox><div  id = stim2></div></div>","32","32","750","","test","go","254","adv","","",""
"","364","32","1032","0","test_block","poldrack-single-stim","269","367269","0.0-5.0-255.0","go-nogo","true","0","","true","<div class = centerbox><div  id = stim2></div></div>","32","32","750","","test","go","255","adv","","",""
"","339","32","1090","0","test_block","poldrack-single-stim","270","368377","0.0-5.0-256.0","go-nogo","true","0","","true","<div class = centerbox><div  id = stim2></div></div>","32","32","750","","test","go","256","adv","","",""
"","282","32","1238","0","test_block","poldrack-single-stim","271","369637","0.0-5.0-257.0","go-nogo","true","0","","true","<div class = centerbox><div  id = stim2></div></div>","32","32","750","","test","go","257","adv","","",""
"","313","32","1183","0","test_block","poldrack-single-stim","272","370840","0.0-5.0-258.0","go-nogo","true","0","","true","<div class = centerbox><div  id = stim2></div></div>","32","32","750","","test","go","258","adv","","",""
"","334","32","1248","0","test_block","poldrack-single-stim","273","372108","0.0-5.0-259.0","go-nogo","true","0","","true","<div class = centerbox><div  id = stim2></div></div>","32","32","750","","test","go","259","adv","","",""
"","334","32","1185","0","test_block","poldrack-single-stim","274","373317","0.0-5.0-260.0","go-nogo","true","0","","false","<div class = centerbox><div  id = stim1></div></div>","-1","32","750","","test","nogo","260","adv","","",""
"","300","32","1106","0","test_block","poldrack-single-stim","275","374440","0.0-5.0-261.0","go-nogo","true","0","","true","<div class = centerbox><div  id = stim2></div></div>","32","32","750","","test","go","261","adv","","",""
"","341","32","1073","0","test_block","poldrack-single-stim","276","375534","0.0-5.0-262.0","go-nogo","true","0","","true","<div class = centerbox><div  id = stim2></div></div>","32","32","750","","test","go","262","adv","","",""
"","295","32","1193","0","test_block","poldrack-single-stim","277","376748","0.0-5.0-263.0","go-nogo","true","0","","false","<div class = centerbox><div  id = stim1></div></div>","-1","32","750","","test","nogo","263","adv","","",""
"","-1","-1","1198","0","test_block","poldrack-single-stim","278","377963","0.0-5.0-264.0","go-nogo","true","0","","true","<div class = centerbox><div  id = stim1></div></div>","-1","32","750","","test","nogo","264","adv","","",""
"","356","32","1160","0","test_block","poldrack-single-stim","279","379140","0.0-5.0-265.0","go-nogo","true","0","","true","<div class = centerbox><div  id = stim2></div></div>","32","32","750","","test","go","265","adv","","",""
"","320","32","1043","0","test_block","poldrack-single-stim","280","380204","0.0-5.0-266.0","go-nogo","true","0","","true","<div class = centerbox><div  id = stim2></div></div>","32","32","750","","test","go","266","adv","","",""
"","320","32","1379","0","test_block","poldrack-single-stim","281","381604","0.0-5.0-267.0","go-nogo","true","0","","true","<div class = centerbox><div  id = stim2></div></div>","32","32","750","","test","go","267","adv","","",""
"","-1","-1","1380","0","test_block","poldrack-single-stim","282","383003","0.0-5.0-268.0","go-nogo","true","0","","true","<div class = centerbox><div  id = stim1></div></div>","-1","32","750","","test","nogo","268","adv","","",""
"","285","32","1102","0","test_block","poldrack-single-stim","283","384121","0.0-5.0-269.0","go-nogo","true","0","","true","<div class = centerbox><div  id = stim2></div></div>","32","32","750","","test","go","269","adv","","",""
"","352","32","1374","0","test_block","poldrack-single-stim","284","385511","0.0-5.0-270.0","go-nogo","true","0","","true","<div class = centerbox><div  id = stim2></div></div>","32","32","750","","test","go","270","adv","","",""
"","383","32","1292","0","test_block","poldrack-single-stim","285","386821","0.0-5.0-271.0","go-nogo","true","0","","false","<div class = centerbox><div  id = stim1></div></div>","-1","32","750","","test","nogo","271","adv","","",""
"","-1","-1","1139","0","test_block","poldrack-single-stim","286","388003","0.0-5.0-272.0","go-nogo","true","0","","true","<div class = centerbox><div  id = stim1></div></div>","-1","32","750","","test","nogo","272","adv","","",""
"","382","32","1093","0","test_block","poldrack-single-stim","287","389119","0.0-5.0-273.0","go-nogo","true","0","","true","<div class = centerbox><div  id = stim2></div></div>","32","32","750","","test","go","273","adv","","",""
"","353","32","1076","0","test_block","poldrack-single-stim","288","390212","0.0-5.0-274.0","go-nogo","true","0","","true","<div class = centerbox><div  id = stim2></div></div>","32","32","750","","test","go","274","adv","","",""
"","340","32","1106","0","test_block","poldrack-single-stim","289","391335","0.0-5.0-275.0","go-nogo","true","1","","true","<div class = centerbox><div  id = stim2></div></div>","32","32","750","","test","go","275","adv","","",""
"","-1","-1","1369","0","test_block","poldrack-single-stim","290","392723","0.0-5.0-276.0","go-nogo","true","0","","true","<div class = centerbox><div  id = stim1></div></div>","-1","32","750","","test","nogo","276","adv","","",""
"","334","32","1210","0","test_block","poldrack-single-stim","291","393949","0.0-5.0-277.0","go-nogo","true","0","","true","<div class = centerbox><div  id = stim2></div></div>","32","32","750","","test","go","277","adv","","",""
"","354","32","1173","0","test_block","poldrack-single-stim","292","395140","0.0-5.0-278.0","go-nogo","true","0","","true","<div class = centerbox><div  id = stim2></div></div>","32","32","750","","test","go","278","adv","","",""
"","354","32","1322","0","test_block","poldrack-single-stim","293","396481","0.0-5.0-279.0","go-nogo","true","0","","true","<div class = centerbox><div  id = stim2></div></div>","32","32","750","","test","go","279","adv","","",""
"","334","32","1393","0","test_block","poldrack-single-stim","294","397892","0.0-5.0-280.0","go-nogo","true","0","","false","<div class = centerbox><div  id = stim1></div></div>","-1","32","750","","test","nogo","280","adv","","",""
"","-1","-1","1311","0","test_block","poldrack-single-stim","295","399220","0.0-5.0-281.0","go-nogo","true","0","","true","<div class = centerbox><div  id = stim1></div></div>","-1","32","750","","test","nogo","281","adv","","",""
"","365","32","1358","0","test_block","poldrack-single-stim","296","400593","0.0-5.0-282.0","go-nogo","true","0","","true","<div class = centerbox><div  id = stim2></div></div>","32","32","750","","test","go","282","adv","","",""
"","318","32","1475","0","test_block","poldrack-single-stim","297","402095","0.0-5.0-283.0","go-nogo","true","0","","true","<div class = centerbox><div  id = stim2></div></div>","32","32","750","","test","go","283","adv","","",""
"","343","32","1117","0","test_block","poldrack-single-stim","298","403230","0.0-5.0-284.0","go-nogo","true","0","","true","<div class = centerbox><div  id = stim2></div></div>","32","32","750","","test","go","284","adv","","",""
"","-1","-1","1447","0","test_block","poldrack-single-stim","299","404694","0.0-5.0-285.0","go-nogo","true","0","","true","<div class = centerbox><div  id = stim1></div></div>","-1","32","750","","test","nogo","285","adv","","",""
"","287","32","1343","0","test_block","poldrack-single-stim","300","406055","0.0-5.0-286.0","go-nogo","true","0","","true","<div class = centerbox><div  id = stim2></div></div>","32","32","750","","test","go","286","adv","","",""
"","308","32","1428","0","test_block","poldrack-single-stim","301","407506","0.0-5.0-287.0","go-nogo","true","0","","true","<div class = centerbox><div  id = stim2></div></div>","32","32","750","","test","go","287","adv","","",""
"","293","32","1004","0","test_block","poldrack-single-stim","302","408531","0.0-5.0-288.0","go-nogo","true","0","","true","<div class = centerbox><div  id = stim2></div></div>","32","32","750","","test","go","288","adv","","",""
"","397","32","1382","0","test_block","poldrack-single-stim","303","409932","0.0-5.0-289.0","go-nogo","true","0","","true","<div class = centerbox><div  id = stim2></div></div>","32","32","750","","test","go","289","adv","","",""
"","-1","-1","1219","0","test_block","poldrack-single-stim","304","411173","0.0-5.0-290.0","go-nogo","true","0","","true","<div class = centerbox><div  id = stim1></div></div>","-1","32","750","","test","nogo","290","adv","","",""
"","836","32","1223","0","test_block","poldrack-single-stim","305","412414","0.0-5.0-291.0","go-nogo","true","0","","true","<div class = centerbox><div  id = stim2></div></div>","32","32","750","","test","go","291","adv","","",""
"","347","32","1080","0","test_block","poldrack-single-stim","306","413519","0.0-5.0-292.0","go-nogo","true","0","","true","<div class = centerbox><div  id = stim2></div></div>","32","32","750","","test","go","292","adv","","",""
"","370","32","1468","0","test_block","poldrack-single-stim","307","415019","0.0-5.0-293.0","go-nogo","true","0","","true","<div class = centerbox><div  id = stim2></div></div>","32","32","750","","test","go","293","adv","","",""
"","302","32","1416","0","test_block","poldrack-single-stim","308","416460","0.0-5.0-294.0","go-nogo","true","0","","true","<div class = centerbox><div  id = stim2></div></div>","32","32","750","","test","go","294","adv","","",""
"","349","32","1056","0","test_block","poldrack-single-stim","309","417533","0.0-5.0-295.0","go-nogo","true","0","","true","<div class = centerbox><div  id = stim2></div></div>","32","32","750","","test","go","295","adv","","",""
"","358","32","1101","0","test_block","poldrack-single-stim","310","418649","0.0-5.0-296.0","go-nogo","true","0","","true","<div class = centerbox><div  id = stim2></div></div>","32","32","750","","test","go","296","adv","","",""
"","289","32","1369","0","test_block","poldrack-single-stim","311","420034","0.0-5.0-297.0","go-nogo","true","0","","true","<div class = centerbox><div  id = stim2></div></div>","32","32","750","","test","go","297","adv","","",""
"","272","32","1292","0","test_block","poldrack-single-stim","312","421342","0.0-5.0-298.0","go-nogo","true","0","","true","<div class = centerbox><div  id = stim2></div></div>","32","32","750","","test","go","298","adv","","",""
"","286","32","1026","0","test_block","poldrack-single-stim","313","422382","0.0-5.0-299.0","go-nogo","true","1","","true","<div class = centerbox><div  id = stim2></div></div>","32","32","750","","test","go","299","adv","","",""
"","413","32","1228","0","test_block","poldrack-single-stim","314","423625","0.0-5.0-300.0","go-nogo","true","0","","true","<div class = centerbox><div  id = stim2></div></div>","32","32","750","","test","go","300","adv","","",""
"","273","32","1092","0","test_block","poldrack-single-stim","315","424828","0.0-5.0-301.0","go-nogo","true","0","","true","<div class = centerbox><div  id = stim2></div></div>","32","32","750","","test","go","301","adv","","",""
"","303","32","1229","0","test_block","poldrack-single-stim","316","426082","0.0-5.0-302.0","go-nogo","true","0","","true","<div class = centerbox><div  id = stim2></div></div>","32","32","750","","test","go","302","adv","","",""
"","288","32","1476","0","test_block","poldrack-single-stim","317","427574","0.0-5.0-303.0","go-nogo","true","0","","true","<div class = centerbox><div  id = stim2></div></div>","32","32","750","","test","go","303","adv","","",""
"","269","32","1311","0","test_block","poldrack-single-stim","318","428900","0.0-5.0-304.0","go-nogo","true","0","","true","<div class = centerbox><div  id = stim2></div></div>","32","32","750","","test","go","304","adv","","",""
"","290","32","1407","0","test_block","poldrack-single-stim","319","430336","0.0-5.0-305.0","go-nogo","true","0","","true","<div class = centerbox><div  id = stim2></div></div>","32","32","750","","test","go","305","adv","","",""
"","330","32","1245","0","test_block","poldrack-single-stim","320","431597","0.0-5.0-306.0","go-nogo","true","0","","true","<div class = centerbox><div  id = stim2></div></div>","32","32","750","","test","go","306","adv","","",""
"","516","32","1431","0","test_block","poldrack-single-stim","321","433045","0.0-5.0-307.0","go-nogo","true","0","","true","<div class = centerbox><div  id = stim2></div></div>","32","32","750","","test","go","307","adv","","",""
"","258","32","1197","0","test_block","poldrack-single-stim","322","434261","0.0-5.0-308.0","go-nogo","true","0","","true","<div class = centerbox><div  id = stim2></div></div>","32","32","750","","test","go","308","adv","","",""
"","315","32","1006","0","test_block","poldrack-single-stim","323","435285","0.0-5.0-309.0","go-nogo","true","0","","true","<div class = centerbox><div  id = stim2></div></div>","32","32","750","","test","go","309","adv","","",""
"","355","32","1203","0","test_block","poldrack-single-stim","324","436506","0.0-5.0-310.0","go-nogo","true","0","","true","<div class = centerbox><div  id = stim2></div></div>","32","32","750","","test","go","310","adv","","",""
"","285","32","1359","0","test_block","poldrack-single-stim","325","437883","0.0-5.0-311.0","go-nogo","true","0","","true","<div class = centerbox><div  id = stim2></div></div>","32","32","750","","test","go","311","adv","","",""
"","253","32","1309","0","test_block","poldrack-single-stim","326","439210","0.0-5.0-312.0","go-nogo","true","0","","true","<div class = centerbox><div  id = stim2></div></div>","32","32","750","","test","go","312","adv","","",""
"","239","32","1081","0","test_block","poldrack-single-stim","327","440308","0.0-5.0-313.0","go-nogo","true","0","","true","<div class = centerbox><div  id = stim2></div></div>","32","32","750","","test","go","313","adv","","",""
"","307","32","1280","0","test_block","poldrack-single-stim","328","441607","0.0-5.0-314.0","go-nogo","true","0","","true","<div class = centerbox><div  id = stim2></div></div>","32","32","750","","test","go","314","adv","","",""
"","223","32","1212","0","test_block","poldrack-single-stim","329","442838","0.0-5.0-315.0","go-nogo","true","0","","true","<div class = centerbox><div  id = stim2></div></div>","32","32","750","","test","go","315","adv","","",""
"","242","32","1145","0","test_block","poldrack-single-stim","330","444000","0.0-5.0-316.0","go-nogo","true","0","","true","<div class = centerbox><div  id = stim2></div></div>","32","32","750","","test","go","316","adv","","",""
"","280","32","1238","0","test_block","poldrack-single-stim","331","445255","0.0-5.0-317.0","go-nogo","true","0","","true","<div class = centerbox><div  id = stim2></div></div>","32","32","750","","test","go","317","adv","","",""
"","299","32","1158","0","test_block","poldrack-single-stim","332","446428","0.0-5.0-318.0","go-nogo","true","0","","true","<div class = centerbox><div  id = stim2></div></div>","32","32","750","","test","go","318","adv","","",""
"","313","32","1122","0","test_block","poldrack-single-stim","333","447574","0.0-5.0-319.0","go-nogo","true","0","","true","<div class = centerbox><div  id = stim2></div></div>","32","32","750","","test","go","319","adv","","",""
"","325","32","1053","0","test_block","poldrack-single-stim","334","448649","0.0-5.0-320.0","go-nogo","true","0","","true","<div class = centerbox><div  id = stim2></div></div>","32","32","750","","test","go","320","adv","","",""
"","321","32","1099","0","test_block","poldrack-single-stim","335","449764","0.0-5.0-321.0","go-nogo","true","0","","true","<div class = centerbox><div  id = stim2></div></div>","32","32","750","","test","go","321","adv","","",""
"","309","32","1214","0","test_block","poldrack-single-stim","336","450994","0.0-5.0-322.0","go-nogo","true","0","","true","<div class = centerbox><div  id = stim2></div></div>","32","32","750","","test","go","322","adv","","",""
"","271","32","1150","0","test_block","poldrack-single-stim","337","452160","0.0-5.0-323.0","go-nogo","true","0","","true","<div class = centerbox><div  id = stim2></div></div>","32","32","750","","test","go","323","adv","","",""
"","246","32","1204","0","test_block","poldrack-single-stim","338","453383","0.0-5.0-324.0","go-nogo","true","1","","true","<div class = centerbox><div  id = stim2></div></div>","32","32","750","","test","go","324","adv","","",""
"","304","32","1188","0","test_block","poldrack-single-stim","339","454589","0.0-5.0-325.0","go-nogo","true","0","","true","<div class = centerbox><div  id = stim2></div></div>","32","32","750","","test","go","325","adv","","",""
"","274","32","1173","0","test_block","poldrack-single-stim","340","455780","0.0-5.0-326.0","go-nogo","true","0","","true","<div class = centerbox><div  id = stim2></div></div>","32","32","750","","test","go","326","adv","","",""
"","420","32","1431","0","test_block","poldrack-single-stim","341","457227","0.0-5.0-327.0","go-nogo","true","0","","true","<div class = centerbox><div  id = stim2></div></div>","32","32","750","","test","go","327","adv","","",""
"","235","32","1497","0","test_block","poldrack-single-stim","342","458742","0.0-5.0-328.0","go-nogo","true","0","","true","<div class = centerbox><div  id = stim2></div></div>","32","32","750","","test","go","328","adv","","",""
"","262","32","1367","0","test_block","poldrack-single-stim","343","460128","0.0-5.0-329.0","go-nogo","true","0","","true","<div class = centerbox><div  id = stim2></div></div>","32","32","750","","test","go","329","adv","","",""
"","301","32","1008","0","test_block","poldrack-single-stim","344","461155","0.0-5.0-330.0","go-nogo","true","0","","true","<div class = centerbox><div  id = stim2></div></div>","32","32","750","","test","go","330","adv","","",""
"","388","32","1110","0","test_block","poldrack-single-stim","345","462284","0.0-5.0-331.0","go-nogo","true","0","","true","<div class = centerbox><div  id = stim2></div></div>","32","32","750","","test","go","331","adv","","",""
"","326","32","1346","0","test_block","poldrack-single-stim","346","463653","0.0-5.0-332.0","go-nogo","true","0","","true","<div class = centerbox><div  id = stim2></div></div>","32","32","750","","test","go","332","adv","","",""
"","241","32","1470","0","test_block","poldrack-single-stim","347","465141","0.0-5.0-333.0","go-nogo","true","0","","true","<div class = centerbox><div  id = stim2></div></div>","32","32","750","","test","go","333","adv","","",""
"","282","32","1457","0","test_block","poldrack-single-stim","348","466615","0.0-5.0-334.0","go-nogo","true","0","","true","<div class = centerbox><div  id = stim2></div></div>","32","32","750","","test","go","334","adv","","",""
"","246","32","1232","0","test_block","poldrack-single-stim","349","467869","0.0-5.0-335.0","go-nogo","true","0","","true","<div class = centerbox><div  id = stim2></div></div>","32","32","750","","test","go","335","adv","","",""
"","281","32","1484","0","test_block","poldrack-single-stim","350","469374","0.0-5.0-336.0","go-nogo","true","0","","true","<div class = centerbox><div  id = stim2></div></div>","32","32","750","","test","go","336","adv","","",""
"","138","32","1180","0","test_block","poldrack-single-stim","351","470573","0.0-5.0-337.0","go-nogo","true","0","","true","<div class = centerbox><div  id = stim2></div></div>","32","32","750","","test","go","337","adv","","",""
"","291","32","1359","0","test_block","poldrack-single-stim","352","471952","0.0-5.0-338.0","go-nogo","true","0","","true","<div class = centerbox><div  id = stim2></div></div>","32","32","750","","test","go","338","adv","","",""
"","134","32","1420","0","test_block","poldrack-single-stim","353","473393","0.0-5.0-339.0","go-nogo","true","0","","true","<div class = centerbox><div  id = stim2></div></div>","32","32","750","","test","go","339","adv","","",""
"","205","32","1321","0","test_block","poldrack-single-stim","354","474734","0.0-5.0-340.0","go-nogo","true","0","","true","<div class = centerbox><div  id = stim2></div></div>","32","32","750","","test","go","340","adv","","",""
"","247","32","1154","0","test_block","poldrack-single-stim","355","475910","0.0-5.0-341.0","go-nogo","true","0","","true","<div class = centerbox><div  id = stim2></div></div>","32","32","750","","test","go","341","adv","","",""
"","273","32","1213","0","test_block","poldrack-single-stim","356","477142","0.0-5.0-342.0","go-nogo","true","0","","true","<div class = centerbox><div  id = stim2></div></div>","32","32","750","","test","go","342","adv","","",""
"","267","32","1242","0","test_block","poldrack-single-stim","357","478400","0.0-5.0-343.0","go-nogo","true","0","","true","<div class = centerbox><div  id = stim2></div></div>","32","32","750","","test","go","343","adv","","",""
"","193","32","1007","0","test_block","poldrack-single-stim","358","479424","0.0-5.0-344.0","go-nogo","true","0","","true","<div class = centerbox><div  id = stim2></div></div>","32","32","750","","test","go","344","adv","","",""
"","313","32","1188","0","test_block","poldrack-single-stim","359","480629","0.0-5.0-345.0","go-nogo","true","0","","true","<div class = centerbox><div  id = stim2></div></div>","32","32","750","","test","go","345","adv","","",""
"","282","32","1423","0","test_block","poldrack-single-stim","360","482072","0.0-5.0-346.0","go-nogo","true","0","","true","<div class = centerbox><div  id = stim2></div></div>","32","32","750","","test","go","346","adv","","",""
"","103","32","1064","0","test_block","poldrack-single-stim","361","483154","0.0-5.0-347.0","go-nogo","true","0","","true","<div class = centerbox><div  id = stim2></div></div>","32","32","750","","test","go","347","adv","","",""
"","302","32","1050","0","test_block","poldrack-single-stim","362","484222","0.0-5.0-348.0","go-nogo","true","1","","true","<div class = centerbox><div  id = stim2></div></div>","32","32","750","","test","go","348","adv","","",""
"","800","32","1064","0","test_block","poldrack-single-stim","363","485305","0.0-5.0-349.0","go-nogo","true","0","","true","<div class = centerbox><div  id = stim2></div></div>","32","32","750","","test","go","349","adv","","",""
"","31734","","","","post task questions","survey-text","364","517059","0.0-7.0","go-nogo","true","1","","","","","","","","","","","","{""Q0"":""hit spacebar on blue; don't do anything on orange"",""Q1"":""what are you studying?""}","",""
"<div class = centerbox><p class = center-block-text>Thanks for completing this task!</p><p class = center-block-text>Insert the following code to collect your payment at Amazon Mechanical Turk:</p><p class = center-block-text>690164317</p><p class = center-block-text>Press <strong>enter</strong> to continue.</p></div>","5995","13","5995","0","end","poldrack-text","365","524056","0.0-8.0","go-nogo","true","0","","","","","","","","","","","","","690164317","true"
