"text","rt","key_press","block_duration","timing_post_trial","trial_id","trial_type","trial_index","time_elapsed","internal_node_id","exp_id","full_screen","focus_shifts","view_history","correct","stimulus","correct_response","possible_responses","stim_duration","feedback_duration","exp_stage","condition","trial_num","mode","responses","payment_id","credit_var"
"<div class = centerbox><p class = center-block-text>Welcome to the experiment. This task will take around 10 minutes. Press <strong>enter</strong> to begin.</p></div>","7418","13","7418","0","instruction","poldrack-text","0","7419","0.0-0.0-0.0","go-nogo","true","0","","","","","","","","","","","","","",""
"","10570","","","","instruction","poldrack-instructions","1","17990","0.0-0.0-1.0","go-nogo","true","0","[{""page_index"":0,""viewing_time"":10569}]","","","","","","","","","","","","",""
"","-1","-1","1304","250","practice","poldrack-categorize","2","21307","0.0-1.0-0.0","go-nogo","true","0","","true","<div class = centerbox><div id = stim2></div></div>","-1","32","750","1000","practice","nogo","0","adv","","",""
"","494","32","1034","250","practice","poldrack-categorize","3","23622","0.0-1.0-1.0","go-nogo","true","0","","true","<div class = centerbox><div  id = stim1></div></div>","32","32","750","1000","practice","go","1","adv","","",""
"","-1","-1","1310","250","practice","poldrack-categorize","4","26183","0.0-1.0-2.0","go-nogo","true","0","","true","<div class = centerbox><div id = stim2></div></div>","-1","32","750","1000","practice","nogo","2","adv","","",""
"","325","32","1414","250","practice","poldrack-categorize","5","28860","0.0-1.0-3.0","go-nogo","true","0","","true","<div class = centerbox><div  id = stim1></div></div>","32","32","750","1000","practice","go","3","adv","","",""
"","-1","-1","1266","250","practice","poldrack-categorize","6","31418","0.0-1.0-4.0","go-nogo","true","0","","true","<div class = centerbox><div id = stim2></div></div>","-1","32","750","1000","practice","nogo","4","adv","","",""
"","568","32","1162","250","practice","poldrack-categorize","7","33868","0.0-1.0-5.0","go-nogo","true","0","","true","<div class = centerbox><div  id = stim1></div></div>","32","32","750","1000","practice","go","5","adv","","",""
"","-1","-1","1056","250","practice","poldrack-categorize","8","36176","0.0-1.0-6.0","go-nogo","true","0","","true","<div class = centerbox><div id = stim2></div></div>","-1","32","750","1000","practice","nogo","6","adv","","",""
"","312","32","1152","250","practice","poldrack-categorize","9","38578","0.0-1.0-7.0","go-nogo","true","0","","true","<div class = centerbox><div  id = stim1></div></div>","32","32","750","1000","practice","go","7","adv","","",""
"","413","32","1220","250","practice","poldrack-categorize","10","41059","0.0-1.0-8.0","go-nogo","true","0","","false","<div class = centerbox><div id = stim2></div></div>","-1","32","750","1000","practice","nogo","8","adv","","",""
"","387","32","1107","250","practice","poldrack-categorize","11","43428","0.0-1.0-9.0","go-nogo","true","0","","true","<div class = centerbox><div  id = stim1></div></div>","32","32","750","1000","practice","go","9","adv","","",""
"","","","","","reset_trial","call-function","12","43679","0.0-3.0","go-nogo","true","0","","","","","","","","","","","","","",""
"<div class = centerbox><p class = block-text>Practice is over, we will now begin the experiment. You will no longer get feedback about your responses.</p><p class = block-text>Remember, if you see the <font color=""orange"">orange</font> square you should <strong> respond by pressing the spacebar as quickly as possible</strong>. If you see the <font color=""blue"">blue</font> square you should <strong> not respond</strong>. Press <strong>enter</strong> to begin.</p></div>","8619","13","8619","1000","test_intro","poldrack-text","13","52299","0.0-4.0","go-nogo","true","0","","","","","","","","","","","","","",""
"","488","32","1467","0","test_block","poldrack-single-stim","14","54783","0.0-5.0-0.0","go-nogo","true","0","","true","<div class = centerbox><div  id = stim1></div></div>","32","32","750","","test","go","0","adv","","",""
"","294","32","1154","0","test_block","poldrack-single-stim","15","55952","0.0-5.0-1.0","go-nogo","true","0","","true","<div class = centerbox><div  id = stim1></div></div>","32","32","750","","test","go","1","adv","","",""
"","243","32","1003","0","test_block","poldrack-single-stim","16","56972","0.0-5.0-2.0","go-nogo","true","0","","true","<div class = centerbox><div  id = stim1></div></div>","32","32","750","","test","go","2","adv","","",""
"","257","32","1161","0","test_block","poldrack-single-stim","17","58147","0.0-5.0-3.0","go-nogo","true","0","","true","<div class = centerbox><div  id = stim1></div></div>","32","32","750","","test","go","3","adv","","",""
"","250","32","1131","0","test_block","poldrack-single-stim","18","59314","0.0-5.0-4.0","go-nogo","true","0","","true","<div class = centerbox><div  id = stim1></div></div>","32","32","750","","test","go","4","adv","","",""
"","243","32","1394","0","test_block","poldrack-single-stim","19","60761","0.0-5.0-5.0","go-nogo","true","0","","true","<div class = centerbox><div  id = stim1></div></div>","32","32","750","","test","go","5","adv","","",""
"","461","32","1103","0","test_block","poldrack-single-stim","20","61884","0.0-5.0-6.0","go-nogo","true","0","","true","<div class = centerbox><div  id = stim1></div></div>","32","32","750","","test","go","6","adv","","",""
"","286","32","1265","0","test_block","poldrack-single-stim","21","63165","0.0-5.0-7.0","go-nogo","true","0","","true","<div class = centerbox><div  id = stim1></div></div>","32","32","750","","test","go","7","adv","","",""
"","224","32","1319","0","test_block","poldrack-single-stim","22","64497","0.0-5.0-8.0","go-nogo","true","0","","true","<div class = centerbox><div  id = stim1></div></div>","32","32","750","","test","go","8","adv","","",""
"","231","32","1228","0","test_block","poldrack-single-stim","23","65741","0.0-5.0-9.0","go-nogo","true","0","","true","<div class = centerbox><div  id = stim1></div></div>","32","32","750","","test","go","9","adv","","",""
"","148","32","1243","0","test_block","poldrack-single-stim","24","66997","0.0-5.0-10.0","go-nogo","true","0","","true","<div class = centerbox><div  id = stim1></div></div>","32","32","750","","test","go","10","adv","","",""
"","68","32","1177","0","test_block","poldrack-single-stim","25","68200","0.0-5.0-11.0","go-nogo","true","0","","true","<div class = centerbox><div  id = stim1></div></div>","32","32","750","","test","go","11","adv","","",""
"","10","32","1072","0","test_block","poldrack-single-stim","26","69281","0.0-5.0-12.0","go-nogo","true","0","","true","<div class = centerbox><div  id = stim1></div></div>","32","32","750","","test","go","12","adv","","",""
"","24","32","1357","0","test_block","poldrack-single-stim","27","70649","0.0-5.0-13.0","go-nogo","true","0","","true","<div class = centerbox><div  id = stim1></div></div>","32","32","750","","test","go","13","adv","","",""
"","263","32","1338","0","test_block","poldrack-single-stim","28","71999","0.0-5.0-14.0","go-nogo","true","0","","true","<div class = centerbox><div  id = stim1></div></div>","32","32","750","","test","go","14","adv","","",""
"","250","32","1291","0","test_block","poldrack-single-stim","29","73304","0.0-5.0-15.0","go-nogo","true","0","","true","<div class = centerbox><div  id = stim1></div></div>","32","32","750","","test","go","15","adv","","",""
"","229","32","1048","0","test_block","poldrack-single-stim","30","74365","0.0-5.0-16.0","go-nogo","true","0","","true","<div class = centerbox><div  id = stim1></div></div>","32","32","750","","test","go","16","adv","","",""
"","275","32","1335","0","test_block","poldrack-single-stim","31","75711","0.0-5.0-17.0","go-nogo","true","0","","true","<div class = centerbox><div  id = stim1></div></div>","32","32","750","","test","go","17","adv","","",""
"","18","32","1074","0","test_block","poldrack-single-stim","32","76802","0.0-5.0-18.0","go-nogo","true","0","","true","<div class = centerbox><div  id = stim1></div></div>","32","32","750","","test","go","18","adv","","",""
"","174","32","1287","0","test_block","poldrack-single-stim","33","78096","0.0-5.0-19.0","go-nogo","true","0","","true","<div class = centerbox><div  id = stim1></div></div>","32","32","750","","test","go","19","adv","","",""
"","459","32","1059","0","test_block","poldrack-single-stim","34","79166","0.0-5.0-20.0","go-nogo","true","0","","true","<div class = centerbox><div  id = stim1></div></div>","32","32","750","","test","go","20","adv","","",""
"","324","32","1399","0","test_block","poldrack-single-stim","35","80575","0.0-5.0-21.0","go-nogo","true","0","","true","<div class = centerbox><div  id = stim1></div></div>","32","32","750","","test","go","21","adv","","",""
"","204","32","1326","0","test_block","poldrack-single-stim","36","81910","0.0-5.0-22.0","go-nogo","true","0","","true","<div class = centerbox><div  id = stim1></div></div>","32","32","750","","test","go","22","adv","","",""
"","93","32","1201","0","test_block","poldrack-single-stim","37","83131","0.0-5.0-23.0","go-nogo","true","0","","true","<div class = centerbox><div  id = stim1></div></div>","32","32","750","","test","go","23","adv","","",""
"","112","32","1392","0","test_block","poldrack-single-stim","38","84531","0.0-5.0-24.0","go-nogo","true","0","","true","<div class = centerbox><div  id = stim1></div></div>","32","32","750","","test","go","24","adv","","",""
"","384","32","1398","0","test_block","poldrack-single-stim","39","85938","0.0-5.0-25.0","go-nogo","true","0","","true","<div class = centerbox><div  id = stim1></div></div>","32","32","750","","test","go","25","adv","","",""
"","189","32","1053","0","test_block","poldrack-single-stim","40","87005","0.0-5.0-26.0","go-nogo","true","0","","true","<div class = centerbox><div  id = stim1></div></div>","32","32","750","","test","go","26","adv","","",""
"","143","32","1384","0","test_block","poldrack-single-stim","41","88398","0.0-5.0-27.0","go-nogo","true","0","","true","<div class = centerbox><div  id = stim1></div></div>","32","32","750","","test","go","27","adv","","",""
"","653","32","1205","0","test_block","poldrack-single-stim","42","89615","0.0-5.0-28.0","go-nogo","true","0","","true","<div class = centerbox><div  id = stim1></div></div>","32","32","750","","test","go","28","adv","","",""
"","357","32","1241","0","test_block","poldrack-single-stim","43","90878","0.0-5.0-29.0","go-nogo","true","0","","true","<div class = centerbox><div  id = stim1></div></div>","32","32","750","","test","go","29","adv","","",""
"","250","32","1004","0","test_block","poldrack-single-stim","44","91893","0.0-5.0-30.0","go-nogo","true","0","","true","<div class = centerbox><div  id = stim1></div></div>","32","32","750","","test","go","30","adv","","",""
"","287","32","1106","0","test_block","poldrack-single-stim","45","93007","0.0-5.0-31.0","go-nogo","true","0","","true","<div class = centerbox><div  id = stim1></div></div>","32","32","750","","test","go","31","adv","","",""
"","148","32","1163","0","test_block","poldrack-single-stim","46","94178","0.0-5.0-32.0","go-nogo","true","0","","true","<div class = centerbox><div  id = stim1></div></div>","32","32","750","","test","go","32","adv","","",""
"","-1","-1","1416","0","test_block","poldrack-single-stim","47","95602","0.0-5.0-33.0","go-nogo","true","0","","false","<div class = centerbox><div  id = stim1></div></div>","32","32","750","","test","go","33","adv","","",""
"","87","32","1310","0","test_block","poldrack-single-stim","48","96928","0.0-5.0-34.0","go-nogo","true","0","","true","<div class = centerbox><div  id = stim1></div></div>","32","32","750","","test","go","34","adv","","",""
"","84","32","1465","0","test_block","poldrack-single-stim","49","98402","0.0-5.0-35.0","go-nogo","true","0","","false","<div class = centerbox><div  id = stim2></div></div>","-1","32","750","","test","nogo","35","adv","","",""
"","630","32","1075","0","test_block","poldrack-single-stim","50","99488","0.0-5.0-36.0","go-nogo","true","0","","false","<div class = centerbox><div  id = stim2></div></div>","-1","32","750","","test","nogo","36","adv","","",""
"","324","32","1293","0","test_block","poldrack-single-stim","51","100790","0.0-5.0-37.0","go-nogo","true","0","","false","<div class = centerbox><div  id = stim2></div></div>","-1","32","750","","test","nogo","37","adv","","",""
"","332","32","1270","0","test_block","poldrack-single-stim","52","102092","0.0-5.0-38.0","go-nogo","true","0","","true","<div class = centerbox><div  id = stim1></div></div>","32","32","750","","test","go","38","adv","","",""
"","383","32","1119","0","test_block","poldrack-single-stim","53","103219","0.0-5.0-39.0","go-nogo","true","0","","true","<div class = centerbox><div  id = stim1></div></div>","32","32","750","","test","go","39","adv","","",""
"","318","32","1058","0","test_block","poldrack-single-stim","54","104285","0.0-5.0-40.0","go-nogo","true","0","","true","<div class = centerbox><div  id = stim1></div></div>","32","32","750","","test","go","40","adv","","",""
"","348","32","1406","0","test_block","poldrack-single-stim","55","105728","0.0-5.0-41.0","go-nogo","true","0","","true","<div class = centerbox><div  id = stim1></div></div>","32","32","750","","test","go","41","adv","","",""
"","266","32","1058","0","test_block","poldrack-single-stim","56","106796","0.0-5.0-42.0","go-nogo","true","0","","true","<div class = centerbox><div  id = stim1></div></div>","32","32","750","","test","go","42","adv","","",""
"","393","32","1101","0","test_block","poldrack-single-stim","57","107918","0.0-5.0-43.0","go-nogo","true","0","","true","<div class = centerbox><div  id = stim1></div></div>","32","32","750","","test","go","43","adv","","",""
"","378","32","1480","0","test_block","poldrack-single-stim","58","109408","0.0-5.0-44.0","go-nogo","true","0","","true","<div class = centerbox><div  id = stim1></div></div>","32","32","750","","test","go","44","adv","","",""
"","226","32","1053","0","test_block","poldrack-single-stim","59","110468","0.0-5.0-45.0","go-nogo","true","0","","true","<div class = centerbox><div  id = stim1></div></div>","32","32","750","","test","go","45","adv","","",""
"","248","32","1216","0","test_block","poldrack-single-stim","60","111691","0.0-5.0-46.0","go-nogo","true","0","","true","<div class = centerbox><div  id = stim1></div></div>","32","32","750","","test","go","46","adv","","",""
"","272","32","1144","0","test_block","poldrack-single-stim","61","112844","0.0-5.0-47.0","go-nogo","true","0","","true","<div class = centerbox><div  id = stim1></div></div>","32","32","750","","test","go","47","adv","","",""
"","282","32","1031","0","test_block","poldrack-single-stim","62","113886","0.0-5.0-48.0","go-nogo","true","0","","true","<div class = centerbox><div  id = stim1></div></div>","32","32","750","","test","go","48","adv","","",""
"","270","32","1421","0","test_block","poldrack-single-stim","63","115312","0.0-5.0-49.0","go-nogo","true","0","","true","<div class = centerbox><div  id = stim1></div></div>","32","32","750","","test","go","49","adv","","",""
"","393","32","1341","0","test_block","poldrack-single-stim","64","116661","0.0-5.0-50.0","go-nogo","true","0","","true","<div class = centerbox><div  id = stim1></div></div>","32","32","750","","test","go","50","adv","","",""
"","267","32","1068","0","test_block","poldrack-single-stim","65","117739","0.0-5.0-51.0","go-nogo","true","0","","true","<div class = centerbox><div  id = stim1></div></div>","32","32","750","","test","go","51","adv","","",""
"","425","32","1237","0","test_block","poldrack-single-stim","66","118994","0.0-5.0-52.0","go-nogo","true","0","","true","<div class = centerbox><div  id = stim1></div></div>","32","32","750","","test","go","52","adv","","",""
"","283","32","1405","0","test_block","poldrack-single-stim","67","120404","0.0-5.0-53.0","go-nogo","true","0","","true","<div class = centerbox><div  id = stim1></div></div>","32","32","750","","test","go","53","adv","","",""
"","0","32","1043","0","test_block","poldrack-single-stim","68","121454","0.0-5.0-54.0","go-nogo","true","0","","true","<div class = centerbox><div  id = stim1></div></div>","32","32","750","","test","go","54","adv","","",""
"","238","32","1382","0","test_block","poldrack-single-stim","69","122842","0.0-5.0-55.0","go-nogo","true","0","","true","<div class = centerbox><div  id = stim1></div></div>","32","32","750","","test","go","55","adv","","",""
"","547","32","1273","0","test_block","poldrack-single-stim","70","124120","0.0-5.0-56.0","go-nogo","true","0","","true","<div class = centerbox><div  id = stim1></div></div>","32","32","750","","test","go","56","adv","","",""
"","373","32","1265","0","test_block","poldrack-single-stim","71","125414","0.0-5.0-57.0","go-nogo","true","0","","true","<div class = centerbox><div  id = stim1></div></div>","32","32","750","","test","go","57","adv","","",""
"","183","32","1443","0","test_block","poldrack-single-stim","72","126864","0.0-5.0-58.0","go-nogo","true","0","","true","<div class = centerbox><div  id = stim1></div></div>","32","32","750","","test","go","58","adv","","",""
"","392","32","1105","0","test_block","poldrack-single-stim","73","127979","0.0-5.0-59.0","go-nogo","true","0","","true","<div class = centerbox><div  id = stim1></div></div>","32","32","750","","test","go","59","adv","","",""
"","264","32","1294","0","test_block","poldrack-single-stim","74","129301","0.0-5.0-60.0","go-nogo","true","0","","true","<div class = centerbox><div  id = stim1></div></div>","32","32","750","","test","go","60","adv","","",""
"","222","32","1013","0","test_block","poldrack-single-stim","75","130320","0.0-5.0-61.0","go-nogo","true","0","","true","<div class = centerbox><div  id = stim1></div></div>","32","32","750","","test","go","61","adv","","",""
"","416","32","1146","0","test_block","poldrack-single-stim","76","131489","0.0-5.0-62.0","go-nogo","true","0","","true","<div class = centerbox><div  id = stim1></div></div>","32","32","750","","test","go","62","adv","","",""
"","224","32","1022","0","test_block","poldrack-single-stim","77","132519","0.0-5.0-63.0","go-nogo","true","0","","true","<div class = centerbox><div  id = stim1></div></div>","32","32","750","","test","go","63","adv","","",""
"","17","32","1014","0","test_block","poldrack-single-stim","78","133543","0.0-5.0-64.0","go-nogo","true","0","","true","<div class = centerbox><div  id = stim1></div></div>","32","32","750","","test","go","64","adv","","",""
"","5","32","1461","0","test_block","poldrack-single-stim","79","135011","0.0-5.0-65.0","go-nogo","true","0","","true","<div class = centerbox><div  id = stim1></div></div>","32","32","750","","test","go","65","adv","","",""
"","311","32","1448","0","test_block","poldrack-single-stim","80","136466","0.0-5.0-66.0","go-nogo","true","0","","true","<div class = centerbox><div  id = stim1></div></div>","32","32","750","","test","go","66","adv","","",""
"","74","32","1159","0","test_block","poldrack-single-stim","81","137630","0.0-5.0-67.0","go-nogo","true","0","","true","<div class = centerbox><div  id = stim1></div></div>","32","32","750","","test","go","67","adv","","",""
"","784","32","1122","0","test_block","poldrack-single-stim","82","138757","0.0-5.0-68.0","go-nogo","true","0","","true","<div class = centerbox><div  id = stim1></div></div>","32","32","750","","test","go","68","adv","","",""
"","264","32","1063","0","test_block","poldrack-single-stim","83","139825","0.0-5.0-69.0","go-nogo","true","0","","true","<div class = centerbox><div  id = stim1></div></div>","32","32","750","","test","go","69","adv","","",""
"","275","32","1188","0","test_block","poldrack-single-stim","84","141019","0.0-5.0-70.0","go-nogo","true","0","","true","<div class = centerbox><div  id = stim1></div></div>","32","32","750","","test","go","70","adv","","",""
"","34","32","1124","0","test_block","poldrack-single-stim","85","142148","0.0-5.0-71.0","go-nogo","true","0","","true","<div class = centerbox><div  id = stim1></div></div>","32","32","750","","test","go","71","adv","","",""
"","651","32","1367","0","test_block","poldrack-single-stim","86","143531","0.0-5.0-72.0","go-nogo","true","0","","true","<div class = centerbox><div  id = stim1></div></div>","32","32","750","","test","go","72","adv","","",""
"","250","32","1360","0","test_block","poldrack-single-stim","87","144921","0.0-5.0-73.0","go-nogo","true","0","","true","<div class = centerbox><div  id = stim1></div></div>","32","32","750","","test","go","73","adv","","",""
"","11","32","1170","0","test_block","poldrack-single-stim","88","146097","0.0-5.0-74.0","go-nogo","true","0","","true","<div class = centerbox><div  id = stim1></div></div>","32","32","750","","test","go","74","adv","","",""
"","-1","-1","1056","0","test_block","poldrack-single-stim","89","147171","0.0-5.0-75.0","go-nogo","true","0","","false","<div class = centerbox><div  id = stim1></div></div>","32","32","750","","test","go","75","adv","","",""
"","264","32","1068","0","test_block","poldrack-single-stim","90","148245","0.0-5.0-76.0","go-nogo","true","0","","true","<div class = centerbox><div  id = stim1></div></div>","32","32","750","","test","go","76","adv","","",""
"","-1","-1","1254","0","test_block","poldrack-single-stim","91","149532","0.0-5.0-77.0","go-nogo","true","0","","true","<div class = centerbox><div  id = stim2></div></div>","-1","32","750","","test","nogo","77","adv","","",""
"","304","32","1186","0","test_block","poldrack-single-stim","92","150723","0.0-5.0-78.0","go-nogo","true","0","","true","<div class = centerbox><div  id = stim1></div></div>","32","32","750","","test","go","78","adv","","",""
"","-1","-1","1009","0","test_block","poldrack-single-stim","93","151739","0.0-5.0-79.0","go-nogo","true","0","","true","<div class = centerbox><div  id = stim2></div></div>","-1","32","750","","test","nogo","79","adv","","",""
"","320","32","1147","0","test_block","poldrack-single-stim","94","152912","0.0-5.0-80.0","go-nogo","true","0","","true","<div class = centerbox><div  id = stim1></div></div>","32","32","750","","test","go","80","adv","","",""
"","-1","-1","1338","0","test_block","poldrack-single-stim","95","154256","0.0-5.0-81.0","go-nogo","true","0","","true","<div class = centerbox><div  id = stim2></div></div>","-1","32","750","","test","nogo","81","adv","","",""
"","348","32","1167","0","test_block","poldrack-single-stim","96","155432","0.0-5.0-82.0","go-nogo","true","0","","true","<div class = centerbox><div  id = stim1></div></div>","32","32","750","","test","go","82","adv","","",""
"","-1","-1","1381","0","test_block","poldrack-single-stim","97","156824","0.0-5.0-83.0","go-nogo","true","0","","false","<div class = centerbox><div  id = stim1></div></div>","32","32","750","","test","go","83","adv","","",""
"","756","32","1131","0","test_block","poldrack-single-stim","98","157961","0.0-5.0-84.0","go-nogo","true","0","","true","<div class = centerbox><div  id = stim1></div></div>","32","32","750","","test","go","84","adv","","",""
"","349","32","1141","0","test_block","poldrack-single-stim","99","159109","0.0-5.0-85.0","go-nogo","true","0","","true","<div class = centerbox><div  id = stim1></div></div>","32","32","750","","test","go","85","adv","","",""
"","858","32","1212","0","test_block","poldrack-single-stim","100","160332","0.0-5.0-86.0","go-nogo","true","0","","true","<div class = centerbox><div  id = stim1></div></div>","32","32","750","","test","go","86","adv","","",""
"","273","32","1182","0","test_block","poldrack-single-stim","101","161523","0.0-5.0-87.0","go-nogo","true","0","","true","<div class = centerbox><div  id = stim1></div></div>","32","32","750","","test","go","87","adv","","",""
"","209","32","1079","0","test_block","poldrack-single-stim","102","162608","0.0-5.0-88.0","go-nogo","true","0","","true","<div class = centerbox><div  id = stim1></div></div>","32","32","750","","test","go","88","adv","","",""
"","269","32","1351","0","test_block","poldrack-single-stim","103","163964","0.0-5.0-89.0","go-nogo","true","0","","true","<div class = centerbox><div  id = stim1></div></div>","32","32","750","","test","go","89","adv","","",""
"","241","32","1379","0","test_block","poldrack-single-stim","104","165350","0.0-5.0-90.0","go-nogo","true","0","","true","<div class = centerbox><div  id = stim1></div></div>","32","32","750","","test","go","90","adv","","",""
"","378","32","1498","0","test_block","poldrack-single-stim","105","166879","0.0-5.0-91.0","go-nogo","true","0","","true","<div class = centerbox><div  id = stim1></div></div>","32","32","750","","test","go","91","adv","","",""
"","269","32","1312","0","test_block","poldrack-single-stim","106","168197","0.0-5.0-92.0","go-nogo","true","0","","true","<div class = centerbox><div  id = stim1></div></div>","32","32","750","","test","go","92","adv","","",""
"","861","32","1197","0","test_block","poldrack-single-stim","107","169416","0.0-5.0-93.0","go-nogo","true","0","","true","<div class = centerbox><div  id = stim1></div></div>","32","32","750","","test","go","93","adv","","",""
"","221","32","1462","0","test_block","poldrack-single-stim","108","170914","0.0-5.0-94.0","go-nogo","true","0","","true","<div class = centerbox><div  id = stim1></div></div>","32","32","750","","test","go","94","adv","","",""
"","249","32","1123","0","test_block","poldrack-single-stim","109","172044","0.0-5.0-95.0","go-nogo","true","0","","true","<div class = centerbox><div  id = stim1></div></div>","32","32","750","","test","go","95","adv","","",""
"","594","32","1173","0","test_block","poldrack-single-stim","110","173222","0.0-5.0-96.0","go-nogo","true","0","","true","<div class = centerbox><div  id = stim1></div></div>","32","32","750","","test","go","96","adv","","",""
"","343","32","1165","0","test_block","poldrack-single-stim","111","174393","0.0-5.0-97.0","go-nogo","true","0","","true","<div class = centerbox><div  id = stim1></div></div>","32","32","750","","test","go","97","adv","","",""
"","681","32","1450","0","test_block","poldrack-single-stim","112","175851","0.0-5.0-98.0","go-nogo","true","0","","true","<div class = centerbox><div  id = stim1></div></div>","32","32","750","","test","go","98","adv","","",""
"","242","32","1260","0","test_block","poldrack-single-stim","113","177116","0.0-5.0-99.0","go-nogo","true","0","","true","<div class = centerbox><div  id = stim1></div></div>","32","32","750","","test","go","99","adv","","",""
"","873","32","1062","0","test_block","poldrack-single-stim","114","178183","0.0-5.0-100.0","go-nogo","true","0","","true","<div class = centerbox><div  id = stim1></div></div>","32","32","750","","test","go","100","adv","","",""
"","262","32","1091","0","test_block","poldrack-single-stim","115","179291","0.0-5.0-101.0","go-nogo","true","0","","true","<div class = centerbox><div  id = stim1></div></div>","32","32","750","","test","go","101","adv","","",""
"","4","32","1168","0","test_block","poldrack-single-stim","116","180464","0.0-5.0-102.0","go-nogo","true","0","","true","<div class = centerbox><div  id = stim1></div></div>","32","32","750","","test","go","102","adv","","",""
"","51","32","1194","0","test_block","poldrack-single-stim","117","181664","0.0-5.0-103.0","go-nogo","true","0","","true","<div class = centerbox><div  id = stim1></div></div>","32","32","750","","test","go","103","adv","","",""
"","270","32","1493","0","test_block","poldrack-single-stim","118","183161","0.0-5.0-104.0","go-nogo","true","0","","true","<div class = centerbox><div  id = stim1></div></div>","32","32","750","","test","go","104","adv","","",""
"","187","32","1452","0","test_block","poldrack-single-stim","119","184620","0.0-5.0-105.0","go-nogo","true","0","","true","<div class = centerbox><div  id = stim1></div></div>","32","32","750","","test","go","105","adv","","",""
"","201","32","1137","0","test_block","poldrack-single-stim","120","185762","0.0-5.0-106.0","go-nogo","true","0","","true","<div class = centerbox><div  id = stim1></div></div>","32","32","750","","test","go","106","adv","","",""
"","249","32","1099","0","test_block","poldrack-single-stim","121","186884","0.0-5.0-107.0","go-nogo","true","0","","true","<div class = centerbox><div  id = stim1></div></div>","32","32","750","","test","go","107","adv","","",""
"","271","32","1255","0","test_block","poldrack-single-stim","122","188145","0.0-5.0-108.0","go-nogo","true","0","","true","<div class = centerbox><div  id = stim1></div></div>","32","32","750","","test","go","108","adv","","",""
"","243","32","1315","0","test_block","poldrack-single-stim","123","189480","0.0-5.0-109.0","go-nogo","true","0","","true","<div class = centerbox><div  id = stim1></div></div>","32","32","750","","test","go","109","adv","","",""
"","69","32","1162","0","test_block","poldrack-single-stim","124","190662","0.0-5.0-110.0","go-nogo","true","0","","true","<div class = centerbox><div  id = stim1></div></div>","32","32","750","","test","go","110","adv","","",""
"","461","32","1035","0","test_block","poldrack-single-stim","125","191746","0.0-5.0-111.0","go-nogo","true","0","","true","<div class = centerbox><div  id = stim1></div></div>","32","32","750","","test","go","111","adv","","",""
"","313","32","1346","0","test_block","poldrack-single-stim","126","193122","0.0-5.0-112.0","go-nogo","true","0","","true","<div class = centerbox><div  id = stim1></div></div>","32","32","750","","test","go","112","adv","","",""
"","243","32","1387","0","test_block","poldrack-single-stim","127","194514","0.0-5.0-113.0","go-nogo","true","0","","true","<div class = centerbox><div  id = stim1></div></div>","32","32","750","","test","go","113","adv","","",""
"","226","32","1491","0","test_block","poldrack-single-stim","128","196011","0.0-5.0-114.0","go-nogo","true","0","","true","<div class = centerbox><div  id = stim1></div></div>","32","32","750","","test","go","114","adv","","",""
"","154","32","1183","0","test_block","poldrack-single-stim","129","197224","0.0-5.0-115.0","go-nogo","true","0","","true","<div class = centerbox><div  id = stim1></div></div>","32","32","750","","test","go","115","adv","","",""
"","293","32","1147","0","test_block","poldrack-single-stim","130","198376","0.0-5.0-116.0","go-nogo","true","0","","true","<div class = centerbox><div  id = stim1></div></div>","32","32","750","","test","go","116","adv","","",""
"","565","32","1437","0","test_block","poldrack-single-stim","131","199818","0.0-5.0-117.0","go-nogo","true","0","","true","<div class = centerbox><div  id = stim1></div></div>","32","32","750","","test","go","117","adv","","",""
"","447","32","1022","0","test_block","poldrack-single-stim","132","200856","0.0-5.0-118.0","go-nogo","true","0","","true","<div class = centerbox><div  id = stim1></div></div>","32","32","750","","test","go","118","adv","","",""
"","428","32","1471","0","test_block","poldrack-single-stim","133","202333","0.0-5.0-119.0","go-nogo","true","0","","true","<div class = centerbox><div  id = stim1></div></div>","32","32","750","","test","go","119","adv","","",""
"","359","32","1252","0","test_block","poldrack-single-stim","134","203609","0.0-5.0-120.0","go-nogo","true","0","","true","<div class = centerbox><div  id = stim1></div></div>","32","32","750","","test","go","120","adv","","",""
"","83","32","1099","0","test_block","poldrack-single-stim","135","204714","0.0-5.0-121.0","go-nogo","true","0","","true","<div class = centerbox><div  id = stim1></div></div>","32","32","750","","test","go","121","adv","","",""
"","197","32","1375","0","test_block","poldrack-single-stim","136","206094","0.0-5.0-122.0","go-nogo","true","0","","true","<div class = centerbox><div  id = stim1></div></div>","32","32","750","","test","go","122","adv","","",""
"","1","32","1080","0","test_block","poldrack-single-stim","137","207180","0.0-5.0-123.0","go-nogo","true","0","","true","<div class = centerbox><div  id = stim1></div></div>","32","32","750","","test","go","123","adv","","",""
"","101","32","1313","0","test_block","poldrack-single-stim","138","208503","0.0-5.0-124.0","go-nogo","true","0","","true","<div class = centerbox><div  id = stim1></div></div>","32","32","750","","test","go","124","adv","","",""
"","263","32","1125","0","test_block","poldrack-single-stim","139","209633","0.0-5.0-125.0","go-nogo","true","0","","true","<div class = centerbox><div  id = stim1></div></div>","32","32","750","","test","go","125","adv","","",""
"","212","32","1460","0","test_block","poldrack-single-stim","140","211101","0.0-5.0-126.0","go-nogo","true","0","","true","<div class = centerbox><div  id = stim1></div></div>","32","32","750","","test","go","126","adv","","",""
"","169","32","1275","0","test_block","poldrack-single-stim","141","212388","0.0-5.0-127.0","go-nogo","true","0","","true","<div class = centerbox><div  id = stim1></div></div>","32","32","750","","test","go","127","adv","","",""
"","-1","-1","1128","0","test_block","poldrack-single-stim","142","213535","0.0-5.0-128.0","go-nogo","true","0","","false","<div class = centerbox><div  id = stim1></div></div>","32","32","750","","test","go","128","adv","","",""
"","247","32","1247","0","test_block","poldrack-single-stim","143","214791","0.0-5.0-129.0","go-nogo","true","0","","true","<div class = centerbox><div  id = stim1></div></div>","32","32","750","","test","go","129","adv","","",""
"","247","32","1125","0","test_block","poldrack-single-stim","144","215921","0.0-5.0-130.0","go-nogo","true","0","","true","<div class = centerbox><div  id = stim1></div></div>","32","32","750","","test","go","130","adv","","",""
"","203","32","1210","0","test_block","poldrack-single-stim","145","217167","0.0-5.0-131.0","go-nogo","true","0","","true","<div class = centerbox><div  id = stim1></div></div>","32","32","750","","test","go","131","adv","","",""
"","86","32","1441","0","test_block","poldrack-single-stim","146","218629","0.0-5.0-132.0","go-nogo","true","0","","true","<div class = centerbox><div  id = stim1></div></div>","32","32","750","","test","go","132","adv","","",""
"","255","32","1028","0","test_block","poldrack-single-stim","147","219662","0.0-5.0-133.0","go-nogo","true","0","","true","<div class = centerbox><div  id = stim1></div></div>","32","32","750","","test","go","133","adv","","",""
"","382","32","1181","0","test_block","poldrack-single-stim","148","220876","0.0-5.0-134.0","go-nogo","true","0","","true","<div class = centerbox><div  id = stim1></div></div>","32","32","750","","test","go","134","adv","","",""
"","217","32","1234","0","test_block","poldrack-single-stim","149","222140","0.0-5.0-135.0","go-nogo","true","0","","true","<div class = centerbox><div  id = stim1></div></div>","32","32","750","","test","go","135","adv","","",""
"","296","32","1472","0","test_block","poldrack-single-stim","150","223617","0.0-5.0-136.0","go-nogo","true","0","","true","<div class = centerbox><div  id = stim1></div></div>","32","32","750","","test","go","136","adv","","",""
"","251","32","1115","0","test_block","poldrack-single-stim","151","224738","0.0-5.0-137.0","go-nogo","true","0","","true","<div class = centerbox><div  id = stim1></div></div>","32","32","750","","test","go","137","adv","","",""
"","77","32","1329","0","test_block","poldrack-single-stim","152","226072","0.0-5.0-138.0","go-nogo","true","0","","true","<div class = centerbox><div  id = stim1></div></div>","32","32","750","","test","go","138","adv","","",""
"","319","32","1107","0","test_block","poldrack-single-stim","153","227183","0.0-5.0-139.0","go-nogo","true","0","","true","<div class = centerbox><div  id = stim1></div></div>","32","32","750","","test","go","139","adv","","",""
"","398","32","1234","0","test_block","poldrack-single-stim","154","228422","0.0-5.0-140.0","go-nogo","true","0","","true","<div class = centerbox><div  id = stim1></div></div>","32","32","750","","test","go","140","adv","","",""
"","39","32","1461","0","test_block","poldrack-single-stim","155","229888","0.0-5.0-141.0","go-nogo","true","0","","true","<div class = centerbox><div  id = stim1></div></div>","32","32","750","","test","go","141","adv","","",""
"","732","32","1283","0","test_block","poldrack-single-stim","156","231177","0.0-5.0-142.0","go-nogo","true","0","","true","<div class = centerbox><div  id = stim1></div></div>","32","32","750","","test","go","142","adv","","",""
"","157","32","1042","0","test_block","poldrack-single-stim","157","232224","0.0-5.0-143.0","go-nogo","true","0","","true","<div class = centerbox><div  id = stim1></div></div>","32","32","750","","test","go","143","adv","","",""
"","116","32","1468","0","test_block","poldrack-single-stim","158","233698","0.0-5.0-144.0","go-nogo","true","0","","true","<div class = centerbox><div  id = stim1></div></div>","32","32","750","","test","go","144","adv","","",""
"","275","32","1430","0","test_block","poldrack-single-stim","159","235137","0.0-5.0-145.0","go-nogo","true","0","","true","<div class = centerbox><div  id = stim1></div></div>","32","32","750","","test","go","145","adv","","",""
"","316","32","1339","0","test_block","poldrack-single-stim","160","236481","0.0-5.0-146.0","go-nogo","true","0","","true","<div class = centerbox><div  id = stim1></div></div>","32","32","750","","test","go","146","adv","","",""
"","27","32","1192","0","test_block","poldrack-single-stim","161","237679","0.0-5.0-147.0","go-nogo","true","0","","true","<div class = centerbox><div  id = stim1></div></div>","32","32","750","","test","go","147","adv","","",""
"","733","32","1048","0","test_block","poldrack-single-stim","162","238732","0.0-5.0-148.0","go-nogo","true","0","","true","<div class = centerbox><div  id = stim1></div></div>","32","32","750","","test","go","148","adv","","",""
"","370","32","1027","0","test_block","poldrack-single-stim","163","239764","0.0-5.0-149.0","go-nogo","true","0","","true","<div class = centerbox><div  id = stim1></div></div>","32","32","750","","test","go","149","adv","","",""
"","128","32","1357","0","test_block","poldrack-single-stim","164","241145","0.0-5.0-150.0","go-nogo","true","0","","true","<div class = centerbox><div  id = stim1></div></div>","32","32","750","","test","go","150","adv","","",""
"","130","32","1195","0","test_block","poldrack-single-stim","165","242347","0.0-5.0-151.0","go-nogo","true","0","","false","<div class = centerbox><div  id = stim2></div></div>","-1","32","750","","test","nogo","151","adv","","",""
"","-1","-1","1057","0","test_block","poldrack-single-stim","166","243438","0.0-5.0-152.0","go-nogo","true","0","","true","<div class = centerbox><div  id = stim2></div></div>","-1","32","750","","test","nogo","152","adv","","",""
"","400","32","1290","0","test_block","poldrack-single-stim","167","244764","0.0-5.0-153.0","go-nogo","true","0","","true","<div class = centerbox><div  id = stim1></div></div>","32","32","750","","test","go","153","adv","","",""
"","514","32","1401","0","test_block","poldrack-single-stim","168","246169","0.0-5.0-154.0","go-nogo","true","0","","true","<div class = centerbox><div  id = stim1></div></div>","32","32","750","","test","go","154","adv","","",""
"","484","32","1406","0","test_block","poldrack-single-stim","169","247580","0.0-5.0-155.0","go-nogo","true","0","","true","<div class = centerbox><div  id = stim1></div></div>","32","32","750","","test","go","155","adv","","",""
"","873","32","1270","0","test_block","poldrack-single-stim","170","248858","0.0-5.0-156.0","go-nogo","true","0","","true","<div class = centerbox><div  id = stim1></div></div>","32","32","750","","test","go","156","adv","","",""
"","420","32","1190","0","test_block","poldrack-single-stim","171","250053","0.0-5.0-157.0","go-nogo","true","0","","false","<div class = centerbox><div  id = stim2></div></div>","-1","32","750","","test","nogo","157","adv","","",""
"","1144","32","1218","0","test_block","poldrack-single-stim","172","251302","0.0-5.0-158.0","go-nogo","true","0","","false","<div class = centerbox><div  id = stim2></div></div>","-1","32","750","","test","nogo","158","adv","","",""
"","-1","-1","1168","0","test_block","poldrack-single-stim","173","252479","0.0-5.0-159.0","go-nogo","true","0","","true","<div class = centerbox><div  id = stim2></div></div>","-1","32","750","","test","nogo","159","adv","","",""
"","357","32","1113","0","test_block","poldrack-single-stim","174","253597","0.0-5.0-160.0","go-nogo","true","0","","true","<div class = centerbox><div  id = stim1></div></div>","32","32","750","","test","go","160","adv","","",""
"","300","32","1108","0","test_block","poldrack-single-stim","175","254714","0.0-5.0-161.0","go-nogo","true","0","","true","<div class = centerbox><div  id = stim1></div></div>","32","32","750","","test","go","161","adv","","",""
"","451","32","1300","0","test_block","poldrack-single-stim","176","256019","0.0-5.0-162.0","go-nogo","true","0","","true","<div class = centerbox><div  id = stim1></div></div>","32","32","750","","test","go","162","adv","","",""
"","521","32","1110","0","test_block","poldrack-single-stim","177","257149","0.0-5.0-163.0","go-nogo","true","0","","true","<div class = centerbox><div  id = stim1></div></div>","32","32","750","","test","go","163","adv","","",""
"","330","32","1095","0","test_block","poldrack-single-stim","178","258255","0.0-5.0-164.0","go-nogo","true","0","","true","<div class = centerbox><div  id = stim1></div></div>","32","32","750","","test","go","164","adv","","",""
"","277","32","1151","0","test_block","poldrack-single-stim","179","259439","0.0-5.0-165.0","go-nogo","true","0","","false","<div class = centerbox><div  id = stim2></div></div>","-1","32","750","","test","nogo","165","adv","","",""
"","253","32","1319","0","test_block","poldrack-single-stim","180","260766","0.0-5.0-166.0","go-nogo","true","0","","false","<div class = centerbox><div  id = stim2></div></div>","-1","32","750","","test","nogo","166","adv","","",""
"","-1","-1","1324","0","test_block","poldrack-single-stim","181","262101","0.0-5.0-167.0","go-nogo","true","0","","true","<div class = centerbox><div  id = stim2></div></div>","-1","32","750","","test","nogo","167","adv","","",""
"","343","32","1443","0","test_block","poldrack-single-stim","182","263550","0.0-5.0-168.0","go-nogo","true","0","","true","<div class = centerbox><div  id = stim1></div></div>","32","32","750","","test","go","168","adv","","",""
"","287","32","1229","0","test_block","poldrack-single-stim","183","264784","0.0-5.0-169.0","go-nogo","true","0","","true","<div class = centerbox><div  id = stim1></div></div>","32","32","750","","test","go","169","adv","","",""
"","321","32","1282","0","test_block","poldrack-single-stim","184","266075","0.0-5.0-170.0","go-nogo","true","0","","true","<div class = centerbox><div  id = stim1></div></div>","32","32","750","","test","go","170","adv","","",""
"","322","32","1486","0","test_block","poldrack-single-stim","185","267566","0.0-5.0-171.0","go-nogo","true","0","","true","<div class = centerbox><div  id = stim1></div></div>","32","32","750","","test","go","171","adv","","",""
"","295","32","1323","0","test_block","poldrack-single-stim","186","268908","0.0-5.0-172.0","go-nogo","true","0","","true","<div class = centerbox><div  id = stim1></div></div>","32","32","750","","test","go","172","adv","","",""
"","305","32","1329","0","test_block","poldrack-single-stim","187","270242","0.0-5.0-173.0","go-nogo","true","0","","true","<div class = centerbox><div  id = stim1></div></div>","32","32","750","","test","go","173","adv","","",""
"","307","32","1491","0","test_block","poldrack-single-stim","188","271756","0.0-5.0-174.0","go-nogo","true","0","","true","<div class = centerbox><div  id = stim1></div></div>","32","32","750","","test","go","174","adv","","",""
"","264","32","1193","0","test_block","poldrack-single-stim","189","272957","0.0-5.0-175.0","go-nogo","true","0","","true","<div class = centerbox><div  id = stim1></div></div>","32","32","750","","test","go","175","adv","","",""
"","253","32","1304","0","test_block","poldrack-single-stim","190","274276","0.0-5.0-176.0","go-nogo","true","0","","true","<div class = centerbox><div  id = stim1></div></div>","32","32","750","","test","go","176","adv","","",""
"","248","32","1113","0","test_block","poldrack-single-stim","191","275418","0.0-5.0-177.0","go-nogo","true","0","","true","<div class = centerbox><div  id = stim1></div></div>","32","32","750","","test","go","177","adv","","",""
"","242","32","1070","0","test_block","poldrack-single-stim","192","276493","0.0-5.0-178.0","go-nogo","true","0","","true","<div class = centerbox><div  id = stim1></div></div>","32","32","750","","test","go","178","adv","","",""
"","306","32","1466","0","test_block","poldrack-single-stim","193","277964","0.0-5.0-179.0","go-nogo","true","0","","false","<div class = centerbox><div  id = stim2></div></div>","-1","32","750","","test","nogo","179","adv","","",""
"","-1","-1","1471","0","test_block","poldrack-single-stim","194","279448","0.0-5.0-180.0","go-nogo","true","0","","true","<div class = centerbox><div  id = stim2></div></div>","-1","32","750","","test","nogo","180","adv","","",""
"","697","32","1311","0","test_block","poldrack-single-stim","195","280776","0.0-5.0-181.0","go-nogo","true","0","","true","<div class = centerbox><div  id = stim1></div></div>","32","32","750","","test","go","181","adv","","",""
"","922","32","1313","0","test_block","poldrack-single-stim","196","282105","0.0-5.0-182.0","go-nogo","true","0","","true","<div class = centerbox><div  id = stim1></div></div>","32","32","750","","test","go","182","adv","","",""
"","213","32","1018","0","test_block","poldrack-single-stim","197","283128","0.0-5.0-183.0","go-nogo","true","0","","true","<div class = centerbox><div  id = stim1></div></div>","32","32","750","","test","go","183","adv","","",""
"","347","32","1435","0","test_block","poldrack-single-stim","198","284590","0.0-5.0-184.0","go-nogo","true","0","","true","<div class = centerbox><div  id = stim1></div></div>","32","32","750","","test","go","184","adv","","",""
"","259","32","1141","0","test_block","poldrack-single-stim","199","285743","0.0-5.0-185.0","go-nogo","true","0","","false","<div class = centerbox><div  id = stim2></div></div>","-1","32","750","","test","nogo","185","adv","","",""
"","597","32","1096","0","test_block","poldrack-single-stim","200","286854","0.0-5.0-186.0","go-nogo","true","0","","false","<div class = centerbox><div  id = stim2></div></div>","-1","32","750","","test","nogo","186","adv","","",""
"","-1","-1","1153","0","test_block","poldrack-single-stim","201","288012","0.0-5.0-187.0","go-nogo","true","0","","true","<div class = centerbox><div  id = stim2></div></div>","-1","32","750","","test","nogo","187","adv","","",""
"","599","32","1194","0","test_block","poldrack-single-stim","202","289213","0.0-5.0-188.0","go-nogo","true","0","","true","<div class = centerbox><div  id = stim1></div></div>","32","32","750","","test","go","188","adv","","",""
"","367","32","1026","0","test_block","poldrack-single-stim","203","290244","0.0-5.0-189.0","go-nogo","true","0","","true","<div class = centerbox><div  id = stim1></div></div>","32","32","750","","test","go","189","adv","","",""
"","602","32","1197","0","test_block","poldrack-single-stim","204","291476","0.0-5.0-190.0","go-nogo","true","0","","true","<div class = centerbox><div  id = stim1></div></div>","32","32","750","","test","go","190","adv","","",""
"","294","32","1437","0","test_block","poldrack-single-stim","205","292927","0.0-5.0-191.0","go-nogo","true","0","","true","<div class = centerbox><div  id = stim1></div></div>","32","32","750","","test","go","191","adv","","",""
"","278","32","1026","0","test_block","poldrack-single-stim","206","293958","0.0-5.0-192.0","go-nogo","true","0","","true","<div class = centerbox><div  id = stim1></div></div>","32","32","750","","test","go","192","adv","","",""
"","279","32","1160","0","test_block","poldrack-single-stim","207","295126","0.0-5.0-193.0","go-nogo","true","0","","true","<div class = centerbox><div  id = stim1></div></div>","32","32","750","","test","go","193","adv","","",""
"","240","32","1143","0","test_block","poldrack-single-stim","208","296274","0.0-5.0-194.0","go-nogo","true","0","","true","<div class = centerbox><div  id = stim1></div></div>","32","32","750","","test","go","194","adv","","",""
"","107","32","1148","0","test_block","poldrack-single-stim","209","297446","0.0-5.0-195.0","go-nogo","true","0","","true","<div class = centerbox><div  id = stim1></div></div>","32","32","750","","test","go","195","adv","","",""
"","128","32","1377","0","test_block","poldrack-single-stim","210","298847","0.0-5.0-196.0","go-nogo","true","0","","true","<div class = centerbox><div  id = stim1></div></div>","32","32","750","","test","go","196","adv","","",""
"","278","32","1355","0","test_block","poldrack-single-stim","211","300207","0.0-5.0-197.0","go-nogo","true","0","","true","<div class = centerbox><div  id = stim1></div></div>","32","32","750","","test","go","197","adv","","",""
"","214","32","1377","0","test_block","poldrack-single-stim","212","301589","0.0-5.0-198.0","go-nogo","true","0","","true","<div class = centerbox><div  id = stim1></div></div>","32","32","750","","test","go","198","adv","","",""
"","71","32","1097","0","test_block","poldrack-single-stim","213","302692","0.0-5.0-199.0","go-nogo","true","0","","true","<div class = centerbox><div  id = stim1></div></div>","32","32","750","","test","go","199","adv","","",""
"","281","32","1439","0","test_block","poldrack-single-stim","214","304136","0.0-5.0-200.0","go-nogo","true","0","","true","<div class = centerbox><div  id = stim1></div></div>","32","32","750","","test","go","200","adv","","",""
"","1045","32","1230","0","test_block","poldrack-single-stim","215","305371","0.0-5.0-201.0","go-nogo","true","0","","false","<div class = centerbox><div  id = stim2></div></div>","-1","32","750","","test","nogo","201","adv","","",""
"","306","32","1012","0","test_block","poldrack-single-stim","216","306387","0.0-5.0-202.0","go-nogo","true","0","","false","<div class = centerbox><div  id = stim2></div></div>","-1","32","750","","test","nogo","202","adv","","",""
"","-1","-1","1491","0","test_block","poldrack-single-stim","217","307885","0.0-5.0-203.0","go-nogo","true","0","","true","<div class = centerbox><div  id = stim2></div></div>","-1","32","750","","test","nogo","203","adv","","",""
"","343","32","1262","0","test_block","poldrack-single-stim","218","309152","0.0-5.0-204.0","go-nogo","true","0","","true","<div class = centerbox><div  id = stim1></div></div>","32","32","750","","test","go","204","adv","","",""
"","294","32","1158","0","test_block","poldrack-single-stim","219","310314","0.0-5.0-205.0","go-nogo","true","0","","true","<div class = centerbox><div  id = stim1></div></div>","32","32","750","","test","go","205","adv","","",""
"","282","32","1200","0","test_block","poldrack-single-stim","220","311532","0.0-5.0-206.0","go-nogo","true","0","","true","<div class = centerbox><div  id = stim1></div></div>","32","32","750","","test","go","206","adv","","",""
"","280","32","1125","0","test_block","poldrack-single-stim","221","312678","0.0-5.0-207.0","go-nogo","true","0","","true","<div class = centerbox><div  id = stim1></div></div>","32","32","750","","test","go","207","adv","","",""
"","325","32","1460","0","test_block","poldrack-single-stim","222","314142","0.0-5.0-208.0","go-nogo","true","0","","true","<div class = centerbox><div  id = stim1></div></div>","32","32","750","","test","go","208","adv","","",""
"","255","32","1249","0","test_block","poldrack-single-stim","223","315420","0.0-5.0-209.0","go-nogo","true","0","","true","<div class = centerbox><div  id = stim1></div></div>","32","32","750","","test","go","209","adv","","",""
"","666","32","1119","0","test_block","poldrack-single-stim","224","316544","0.0-5.0-210.0","go-nogo","true","0","","true","<div class = centerbox><div  id = stim1></div></div>","32","32","750","","test","go","210","adv","","",""
"","365","32","1051","0","test_block","poldrack-single-stim","225","317600","0.0-5.0-211.0","go-nogo","true","0","","true","<div class = centerbox><div  id = stim1></div></div>","32","32","750","","test","go","211","adv","","",""
"","270","32","1482","0","test_block","poldrack-single-stim","226","319087","0.0-5.0-212.0","go-nogo","true","0","","true","<div class = centerbox><div  id = stim1></div></div>","32","32","750","","test","go","212","adv","","",""
"","326","32","1467","0","test_block","poldrack-single-stim","227","320559","0.0-5.0-213.0","go-nogo","true","0","","true","<div class = centerbox><div  id = stim1></div></div>","32","32","750","","test","go","213","adv","","",""
"","286","32","1050","0","test_block","poldrack-single-stim","228","321614","0.0-5.0-214.0","go-nogo","true","0","","true","<div class = centerbox><div  id = stim1></div></div>","32","32","750","","test","go","214","adv","","",""
"","407","32","1300","0","test_block","poldrack-single-stim","229","322951","0.0-5.0-215.0","go-nogo","true","0","","true","<div class = centerbox><div  id = stim1></div></div>","32","32","750","","test","go","215","adv","","",""
"","342","32","1193","0","test_block","poldrack-single-stim","230","324149","0.0-5.0-216.0","go-nogo","true","0","","false","<div class = centerbox><div  id = stim2></div></div>","-1","32","750","","test","nogo","216","adv","","",""
"","-1","-1","1108","0","test_block","poldrack-single-stim","231","325280","0.0-5.0-217.0","go-nogo","true","0","","true","<div class = centerbox><div  id = stim2></div></div>","-1","32","750","","test","nogo","217","adv","","",""
"","378","32","1286","0","test_block","poldrack-single-stim","232","326571","0.0-5.0-218.0","go-nogo","true","0","","true","<div class = centerbox><div  id = stim1></div></div>","32","32","750","","test","go","218","adv","","",""
"","784","32","1322","0","test_block","poldrack-single-stim","233","327900","0.0-5.0-219.0","go-nogo","true","0","","true","<div class = centerbox><div  id = stim1></div></div>","32","32","750","","test","go","219","adv","","",""
"","340","32","1014","0","test_block","poldrack-single-stim","234","328929","0.0-5.0-220.0","go-nogo","true","0","","true","<div class = centerbox><div  id = stim1></div></div>","32","32","750","","test","go","220","adv","","",""
"","338","32","1221","0","test_block","poldrack-single-stim","235","330156","0.0-5.0-221.0","go-nogo","true","0","","true","<div class = centerbox><div  id = stim1></div></div>","32","32","750","","test","go","221","adv","","",""
"","-1","-1","1386","0","test_block","poldrack-single-stim","236","331566","0.0-5.0-222.0","go-nogo","true","0","","true","<div class = centerbox><div  id = stim2></div></div>","-1","32","750","","test","nogo","222","adv","","",""
"","271","32","1317","0","test_block","poldrack-single-stim","237","332912","0.0-5.0-223.0","go-nogo","true","0","","true","<div class = centerbox><div  id = stim1></div></div>","32","32","750","","test","go","223","adv","","",""
"","118","32","1196","0","test_block","poldrack-single-stim","238","334113","0.0-5.0-224.0","go-nogo","true","0","","true","<div class = centerbox><div  id = stim1></div></div>","32","32","750","","test","go","224","adv","","",""
"","258","32","1186","0","test_block","poldrack-single-stim","239","335324","0.0-5.0-225.0","go-nogo","true","0","","true","<div class = centerbox><div  id = stim1></div></div>","32","32","750","","test","go","225","adv","","",""
"","289","32","1040","0","test_block","poldrack-single-stim","240","336369","0.0-5.0-226.0","go-nogo","true","0","","true","<div class = centerbox><div  id = stim1></div></div>","32","32","750","","test","go","226","adv","","",""
"","817","32","1379","0","test_block","poldrack-single-stim","241","337756","0.0-5.0-227.0","go-nogo","true","0","","true","<div class = centerbox><div  id = stim1></div></div>","32","32","750","","test","go","227","adv","","",""
"","265","32","1459","0","test_block","poldrack-single-stim","242","339220","0.0-5.0-228.0","go-nogo","true","0","","true","<div class = centerbox><div  id = stim1></div></div>","32","32","750","","test","go","228","adv","","",""
"","297","32","1261","0","test_block","poldrack-single-stim","243","340486","0.0-5.0-229.0","go-nogo","true","0","","true","<div class = centerbox><div  id = stim1></div></div>","32","32","750","","test","go","229","adv","","",""
"","184","32","1095","0","test_block","poldrack-single-stim","244","341586","0.0-5.0-230.0","go-nogo","true","0","","true","<div class = centerbox><div  id = stim1></div></div>","32","32","750","","test","go","230","adv","","",""
"","242","32","1284","0","test_block","poldrack-single-stim","245","342875","0.0-5.0-231.0","go-nogo","true","0","","true","<div class = centerbox><div  id = stim1></div></div>","32","32","750","","test","go","231","adv","","",""
"","217","32","1337","0","test_block","poldrack-single-stim","246","344218","0.0-5.0-232.0","go-nogo","true","0","","false","<div class = centerbox><div  id = stim2></div></div>","-1","32","750","","test","nogo","232","adv","","",""
"","-1","-1","1005","0","test_block","poldrack-single-stim","247","345245","0.0-5.0-233.0","go-nogo","true","0","","true","<div class = centerbox><div  id = stim2></div></div>","-1","32","750","","test","nogo","233","adv","","",""
"","481","32","1401","0","test_block","poldrack-single-stim","248","346651","0.0-5.0-234.0","go-nogo","true","0","","true","<div class = centerbox><div  id = stim1></div></div>","32","32","750","","test","go","234","adv","","",""
"","230","32","1350","0","test_block","poldrack-single-stim","249","348007","0.0-5.0-235.0","go-nogo","true","0","","true","<div class = centerbox><div  id = stim1></div></div>","32","32","750","","test","go","235","adv","","",""
"","260","32","1385","0","test_block","poldrack-single-stim","250","349409","0.0-5.0-236.0","go-nogo","true","0","","true","<div class = centerbox><div  id = stim1></div></div>","32","32","750","","test","go","236","adv","","",""
"","380","32","1247","0","test_block","poldrack-single-stim","251","350662","0.0-5.0-237.0","go-nogo","true","0","","true","<div class = centerbox><div  id = stim1></div></div>","32","32","750","","test","go","237","adv","","",""
"","-1","-1","1136","0","test_block","poldrack-single-stim","252","351809","0.0-5.0-238.0","go-nogo","true","0","","true","<div class = centerbox><div  id = stim2></div></div>","-1","32","750","","test","nogo","238","adv","","",""
"","403","32","1425","0","test_block","poldrack-single-stim","253","353256","0.0-5.0-239.0","go-nogo","true","0","","true","<div class = centerbox><div  id = stim1></div></div>","32","32","750","","test","go","239","adv","","",""
"","750","32","1280","0","test_block","poldrack-single-stim","254","354541","0.0-5.0-240.0","go-nogo","true","0","","true","<div class = centerbox><div  id = stim1></div></div>","32","32","750","","test","go","240","adv","","",""
"","193","32","1428","0","test_block","poldrack-single-stim","255","355974","0.0-5.0-241.0","go-nogo","true","0","","true","<div class = centerbox><div  id = stim1></div></div>","32","32","750","","test","go","241","adv","","",""
"","136","32","1038","0","test_block","poldrack-single-stim","256","357019","0.0-5.0-242.0","go-nogo","true","0","","true","<div class = centerbox><div  id = stim1></div></div>","32","32","750","","test","go","242","adv","","",""
"","1114","32","1171","0","test_block","poldrack-single-stim","257","358195","0.0-5.0-243.0","go-nogo","true","0","","true","<div class = centerbox><div  id = stim1></div></div>","32","32","750","","test","go","243","adv","","",""
"","872","32","1074","0","test_block","poldrack-single-stim","258","359284","0.0-5.0-244.0","go-nogo","true","0","","true","<div class = centerbox><div  id = stim1></div></div>","32","32","750","","test","go","244","adv","","",""
"","18","32","1268","0","test_block","poldrack-single-stim","259","360556","0.0-5.0-245.0","go-nogo","true","0","","true","<div class = centerbox><div  id = stim1></div></div>","32","32","750","","test","go","245","adv","","",""
"","744","32","1311","0","test_block","poldrack-single-stim","260","361873","0.0-5.0-246.0","go-nogo","true","0","","false","<div class = centerbox><div  id = stim2></div></div>","-1","32","750","","test","nogo","246","adv","","",""
"","-1","-1","1482","0","test_block","poldrack-single-stim","261","363361","0.0-5.0-247.0","go-nogo","true","0","","true","<div class = centerbox><div  id = stim2></div></div>","-1","32","750","","test","nogo","247","adv","","",""
"","565","32","1218","0","test_block","poldrack-single-stim","262","364603","0.0-5.0-248.0","go-nogo","true","0","","true","<div class = centerbox><div  id = stim1></div></div>","32","32","750","","test","go","248","adv","","",""
"","341","32","1260","0","test_block","poldrack-single-stim","263","365867","0.0-5.0-249.0","go-nogo","true","0","","true","<div class = centerbox><div  id = stim1></div></div>","32","32","750","","test","go","249","adv","","",""
"","771","32","1482","0","test_block","poldrack-single-stim","264","367364","0.0-5.0-250.0","go-nogo","true","0","","true","<div class = centerbox><div  id = stim1></div></div>","32","32","750","","test","go","250","adv","","",""
"","-1","-1","1293","0","test_block","poldrack-single-stim","265","368661","0.0-5.0-251.0","go-nogo","true","0","","false","<div class = centerbox><div  id = stim1></div></div>","32","32","750","","test","go","251","adv","","",""
"","526","32","1458","0","test_block","poldrack-single-stim","266","370127","0.0-5.0-252.0","go-nogo","true","0","","true","<div class = centerbox><div  id = stim1></div></div>","32","32","750","","test","go","252","adv","","",""
"","1072","32","1450","0","test_block","poldrack-single-stim","267","371586","0.0-5.0-253.0","go-nogo","true","0","","false","<div class = centerbox><div  id = stim2></div></div>","-1","32","750","","test","nogo","253","adv","","",""
"","1201","32","1440","0","test_block","poldrack-single-stim","268","373049","0.0-5.0-254.0","go-nogo","true","0","","false","<div class = centerbox><div  id = stim2></div></div>","-1","32","750","","test","nogo","254","adv","","",""
"","-1","-1","1067","0","test_block","poldrack-single-stim","269","374121","0.0-5.0-255.0","go-nogo","true","0","","true","<div class = centerbox><div  id = stim2></div></div>","-1","32","750","","test","nogo","255","adv","","",""
"","436","32","1407","0","test_block","poldrack-single-stim","270","375533","0.0-5.0-256.0","go-nogo","true","0","","true","<div class = centerbox><div  id = stim1></div></div>","32","32","750","","test","go","256","adv","","",""
"","-1","-1","1352","0","test_block","poldrack-single-stim","271","376903","0.0-5.0-257.0","go-nogo","true","0","","false","<div class = centerbox><div  id = stim1></div></div>","32","32","750","","test","go","257","adv","","",""
"","-1","-1","1265","0","test_block","poldrack-single-stim","272","378178","0.0-5.0-258.0","go-nogo","true","0","","false","<div class = centerbox><div  id = stim1></div></div>","32","32","750","","test","go","258","adv","","",""
"","435","32","1129","0","test_block","poldrack-single-stim","273","379336","0.0-5.0-259.0","go-nogo","true","0","","true","<div class = centerbox><div  id = stim1></div></div>","32","32","750","","test","go","259","adv","","",""
"","-1","-1","1185","0","test_block","poldrack-single-stim","274","380526","0.0-5.0-260.0","go-nogo","true","0","","true","<div class = centerbox><div  id = stim2></div></div>","-1","32","750","","test","nogo","260","adv","","",""
"","887","32","1260","0","test_block","poldrack-single-stim","275","381791","0.0-5.0-261.0","go-nogo","true","0","","true","<div class = centerbox><div  id = stim1></div></div>","32","32","750","","test","go","261","adv","","",""
"","7","32","1353","0","test_block","poldrack-single-stim","276","383158","0.0-5.0-262.0","go-nogo","true","0","","false","<div class = centerbox><div  id = stim2></div></div>","-1","32","750","","test","nogo","262","adv","","",""
"","-1","-1","1434","0","test_block","poldrack-single-stim","277","384600","0.0-5.0-263.0","go-nogo","true","0","","false","<div class = centerbox><div  id = stim1></div></div>","32","32","750","","test","go","263","adv","","",""
"","-1","-1","1176","0","test_block","poldrack-single-stim","278","385781","0.0-5.0-264.0","go-nogo","true","0","","false","<div class = centerbox><div  id = stim1></div></div>","32","32","750","","test","go","264","adv","","",""
"","-1","-1","1291","0","test_block","poldrack-single-stim","279","387077","0.0-5.0-265.0","go-nogo","true","0","","false","<div class = centerbox><div  id = stim1></div></div>","32","32","750","","test","go","265","adv","","",""
"","256","32","1341","0","test_block","poldrack-single-stim","280","388424","0.0-5.0-266.0","go-nogo","true","0","","true","<div class = centerbox><div  id = stim1></div></div>","32","32","750","","test","go","266","adv","","",""
"","199","32","1448","0","test_block","poldrack-single-stim","281","389877","0.0-5.0-267.0","go-nogo","true","0","","true","<div class = centerbox><div  id = stim1></div></div>","32","32","750","","test","go","267","adv","","",""
"","851","32","1030","0","test_block","poldrack-single-stim","282","390917","0.0-5.0-268.0","go-nogo","true","0","","true","<div class = centerbox><div  id = stim1></div></div>","32","32","750","","test","go","268","adv","","",""
"","-1","-1","1041","0","test_block","poldrack-single-stim","283","391962","0.0-5.0-269.0","go-nogo","true","0","","false","<div class = centerbox><div  id = stim1></div></div>","32","32","750","","test","go","269","adv","","",""
"","-1","-1","1439","0","test_block","poldrack-single-stim","284","393407","0.0-5.0-270.0","go-nogo","true","0","","false","<div class = centerbox><div  id = stim1></div></div>","32","32","750","","test","go","270","adv","","",""
"","-1","-1","1314","0","test_block","poldrack-single-stim","285","394726","0.0-5.0-271.0","go-nogo","true","0","","false","<div class = centerbox><div  id = stim1></div></div>","32","32","750","","test","go","271","adv","","",""
"","-1","-1","1241","0","test_block","poldrack-single-stim","286","395972","0.0-5.0-272.0","go-nogo","true","0","","false","<div class = centerbox><div  id = stim1></div></div>","32","32","750","","test","go","272","adv","","",""
"","344","32","1167","0","test_block","poldrack-single-stim","287","397152","0.0-5.0-273.0","go-nogo","true","0","","true","<div class = centerbox><div  id = stim1></div></div>","32","32","750","","test","go","273","adv","","",""
"","-1","-1","1489","0","test_block","poldrack-single-stim","288","398659","0.0-5.0-274.0","go-nogo","true","0","","false","<div class = centerbox><div  id = stim1></div></div>","32","32","750","","test","go","274","adv","","",""
"","-1","-1","1079","0","test_block","poldrack-single-stim","289","399744","0.0-5.0-275.0","go-nogo","true","0","","false","<div class = centerbox><div  id = stim1></div></div>","32","32","750","","test","go","275","adv","","",""
"","-1","-1","1237","0","test_block","poldrack-single-stim","290","400998","0.0-5.0-276.0","go-nogo","true","0","","false","<div class = centerbox><div  id = stim1></div></div>","32","32","750","","test","go","276","adv","","",""
"","-1","-1","1493","0","test_block","poldrack-single-stim","291","402498","0.0-5.0-277.0","go-nogo","true","0","","false","<div class = centerbox><div  id = stim1></div></div>","32","32","750","","test","go","277","adv","","",""
"","-1","-1","1168","0","test_block","poldrack-single-stim","292","403671","0.0-5.0-278.0","go-nogo","true","0","","false","<div class = centerbox><div  id = stim1></div></div>","32","32","750","","test","go","278","adv","","",""
"","-1","-1","1060","0","test_block","poldrack-single-stim","293","404739","0.0-5.0-279.0","go-nogo","true","0","","false","<div class = centerbox><div  id = stim1></div></div>","32","32","750","","test","go","279","adv","","",""
"","-1","-1","1046","0","test_block","poldrack-single-stim","294","405790","0.0-5.0-280.0","go-nogo","true","0","","false","<div class = centerbox><div  id = stim1></div></div>","32","32","750","","test","go","280","adv","","",""
"","-1","-1","1211","0","test_block","poldrack-single-stim","295","407006","0.0-5.0-281.0","go-nogo","true","0","","false","<div class = centerbox><div  id = stim1></div></div>","32","32","750","","test","go","281","adv","","",""
"","329","32","1486","0","test_block","poldrack-single-stim","296","408503","0.0-5.0-282.0","go-nogo","true","0","","true","<div class = centerbox><div  id = stim1></div></div>","32","32","750","","test","go","282","adv","","",""
"","302","32","1394","0","test_block","poldrack-single-stim","297","409902","0.0-5.0-283.0","go-nogo","true","0","","true","<div class = centerbox><div  id = stim1></div></div>","32","32","750","","test","go","283","adv","","",""
"","-1","-1","1206","0","test_block","poldrack-single-stim","298","411115","0.0-5.0-284.0","go-nogo","true","0","","false","<div class = centerbox><div  id = stim1></div></div>","32","32","750","","test","go","284","adv","","",""
"","-1","-1","1174","0","test_block","poldrack-single-stim","299","412293","0.0-5.0-285.0","go-nogo","true","0","","false","<div class = centerbox><div  id = stim1></div></div>","32","32","750","","test","go","285","adv","","",""
"","-1","-1","1343","0","test_block","poldrack-single-stim","300","413641","0.0-5.0-286.0","go-nogo","true","0","","false","<div class = centerbox><div  id = stim1></div></div>","32","32","750","","test","go","286","adv","","",""
"","-1","-1","1137","0","test_block","poldrack-single-stim","301","414804","0.0-5.0-287.0","go-nogo","true","0","","false","<div class = centerbox><div  id = stim1></div></div>","32","32","750","","test","go","287","adv","","",""
"","-1","-1","1030","0","test_block","poldrack-single-stim","302","415866","0.0-5.0-288.0","go-nogo","true","0","","false","<div class = centerbox><div  id = stim1></div></div>","32","32","750","","test","go","288","adv","","",""
"","-1","-1","1497","0","test_block","poldrack-single-stim","303","417382","0.0-5.0-289.0","go-nogo","true","0","","false","<div class = centerbox><div  id = stim1></div></div>","32","32","750","","test","go","289","adv","","",""
"","-1","-1","1433","0","test_block","poldrack-single-stim","304","418846","0.0-5.0-290.0","go-nogo","true","0","","false","<div class = centerbox><div  id = stim1></div></div>","32","32","750","","test","go","290","adv","","",""
"","-1","-1","1428","0","test_block","poldrack-single-stim","305","420278","0.0-5.0-291.0","go-nogo","true","0","","false","<div class = centerbox><div  id = stim1></div></div>","32","32","750","","test","go","291","adv","","",""
"","-1","-1","1499","0","test_block","poldrack-single-stim","306","421783","0.0-5.0-292.0","go-nogo","true","0","","false","<div class = centerbox><div  id = stim1></div></div>","32","32","750","","test","go","292","adv","","",""
"","-1","-1","1361","0","test_block","poldrack-single-stim","307","423169","0.0-5.0-293.0","go-nogo","true","0","","false","<div class = centerbox><div  id = stim1></div></div>","32","32","750","","test","go","293","adv","","",""
"","-1","-1","1211","0","test_block","poldrack-single-stim","308","424385","0.0-5.0-294.0","go-nogo","true","0","","false","<div class = centerbox><div  id = stim1></div></div>","32","32","750","","test","go","294","adv","","",""
"","-1","-1","1221","0","test_block","poldrack-single-stim","309","425636","0.0-5.0-295.0","go-nogo","true","0","","false","<div class = centerbox><div  id = stim1></div></div>","32","32","750","","test","go","295","adv","","",""
"","-1","-1","1006","0","test_block","poldrack-single-stim","310","426647","0.0-5.0-296.0","go-nogo","true","0","","false","<div class = centerbox><div  id = stim1></div></div>","32","32","750","","test","go","296","adv","","",""
"","-1","-1","1466","0","test_block","poldrack-single-stim","311","428119","0.0-5.0-297.0","go-nogo","true","0","","false","<div class = centerbox><div  id = stim1></div></div>","32","32","750","","test","go","297","adv","","",""
"","806","32","1493","0","test_block","poldrack-single-stim","312","429617","0.0-5.0-298.0","go-nogo","true","0","","true","<div class = centerbox><div  id = stim1></div></div>","32","32","750","","test","go","298","adv","","",""
"","299","32","1101","0","test_block","poldrack-single-stim","313","430723","0.0-5.0-299.0","go-nogo","true","0","","true","<div class = centerbox><div  id = stim1></div></div>","32","32","750","","test","go","299","adv","","",""
"","226","32","1433","0","test_block","poldrack-single-stim","314","432176","0.0-5.0-300.0","go-nogo","true","0","","true","<div class = centerbox><div  id = stim1></div></div>","32","32","750","","test","go","300","adv","","",""
"","492","32","1107","0","test_block","poldrack-single-stim","315","433289","0.0-5.0-301.0","go-nogo","true","0","","true","<div class = centerbox><div  id = stim1></div></div>","32","32","750","","test","go","301","adv","","",""
"","228","32","1118","0","test_block","poldrack-single-stim","316","434411","0.0-5.0-302.0","go-nogo","true","0","","true","<div class = centerbox><div  id = stim1></div></div>","32","32","750","","test","go","302","adv","","",""
"","-1","-1","1485","0","test_block","poldrack-single-stim","317","435901","0.0-5.0-303.0","go-nogo","true","0","","false","<div class = centerbox><div  id = stim1></div></div>","32","32","750","","test","go","303","adv","","",""
"","616","32","1060","0","test_block","poldrack-single-stim","318","436966","0.0-5.0-304.0","go-nogo","true","0","","true","<div class = centerbox><div  id = stim1></div></div>","32","32","750","","test","go","304","adv","","",""
"","141","32","1196","0","test_block","poldrack-single-stim","319","438169","0.0-5.0-305.0","go-nogo","true","0","","true","<div class = centerbox><div  id = stim1></div></div>","32","32","750","","test","go","305","adv","","",""
"","-1","-1","1371","0","test_block","poldrack-single-stim","320","439547","0.0-5.0-306.0","go-nogo","true","0","","false","<div class = centerbox><div  id = stim1></div></div>","32","32","750","","test","go","306","adv","","",""
"","-1","-1","1176","0","test_block","poldrack-single-stim","321","440727","0.0-5.0-307.0","go-nogo","true","0","","false","<div class = centerbox><div  id = stim1></div></div>","32","32","750","","test","go","307","adv","","",""
"","-1","-1","1028","0","test_block","poldrack-single-stim","322","441760","0.0-5.0-308.0","go-nogo","true","0","","false","<div class = centerbox><div  id = stim1></div></div>","32","32","750","","test","go","308","adv","","",""
"","-1","-1","1026","0","test_block","poldrack-single-stim","323","442793","0.0-5.0-309.0","go-nogo","true","0","","false","<div class = centerbox><div  id = stim1></div></div>","32","32","750","","test","go","309","adv","","",""
"","-1","-1","1459","0","test_block","poldrack-single-stim","324","444258","0.0-5.0-310.0","go-nogo","true","0","","false","<div class = centerbox><div  id = stim1></div></div>","32","32","750","","test","go","310","adv","","",""
"","-1","-1","1185","0","test_block","poldrack-single-stim","325","445479","0.0-5.0-311.0","go-nogo","true","0","","false","<div class = centerbox><div  id = stim1></div></div>","32","32","750","","test","go","311","adv","","",""
"","-1","-1","1235","0","test_block","poldrack-single-stim","326","446719","0.0-5.0-312.0","go-nogo","true","0","","false","<div class = centerbox><div  id = stim1></div></div>","32","32","750","","test","go","312","adv","","",""
"","-1","-1","1173","0","test_block","poldrack-single-stim","327","447898","0.0-5.0-313.0","go-nogo","true","0","","false","<div class = centerbox><div  id = stim1></div></div>","32","32","750","","test","go","313","adv","","",""
"","378","32","1065","0","test_block","poldrack-single-stim","328","448969","0.0-5.0-314.0","go-nogo","true","0","","true","<div class = centerbox><div  id = stim1></div></div>","32","32","750","","test","go","314","adv","","",""
"","-1","-1","1497","0","test_block","poldrack-single-stim","329","450472","0.0-5.0-315.0","go-nogo","true","0","","false","<div class = centerbox><div  id = stim1></div></div>","32","32","750","","test","go","315","adv","","",""
"","-1","-1","1210","0","test_block","poldrack-single-stim","330","451687","0.0-5.0-316.0","go-nogo","true","0","","false","<div class = centerbox><div  id = stim1></div></div>","32","32","750","","test","go","316","adv","","",""
"","-1","-1","1025","0","test_block","poldrack-single-stim","331","452718","0.0-5.0-317.0","go-nogo","true","0","","false","<div class = centerbox><div  id = stim1></div></div>","32","32","750","","test","go","317","adv","","",""
"","247","32","1393","0","test_block","poldrack-single-stim","332","454116","0.0-5.0-318.0","go-nogo","true","0","","true","<div class = centerbox><div  id = stim1></div></div>","32","32","750","","test","go","318","adv","","",""
"","392","32","1297","0","test_block","poldrack-single-stim","333","455442","0.0-5.0-319.0","go-nogo","true","0","","true","<div class = centerbox><div  id = stim1></div></div>","32","32","750","","test","go","319","adv","","",""
"","-1","-1","1456","0","test_block","poldrack-single-stim","334","456931","0.0-5.0-320.0","go-nogo","true","0","","false","<div class = centerbox><div  id = stim1></div></div>","32","32","750","","test","go","320","adv","","",""
"","787","32","1028","0","test_block","poldrack-single-stim","335","457963","0.0-5.0-321.0","go-nogo","true","0","","true","<div class = centerbox><div  id = stim1></div></div>","32","32","750","","test","go","321","adv","","",""
"","-1","-1","1246","0","test_block","poldrack-single-stim","336","459238","0.0-5.0-322.0","go-nogo","true","0","","false","<div class = centerbox><div  id = stim1></div></div>","32","32","750","","test","go","322","adv","","",""
"","-1","-1","1206","0","test_block","poldrack-single-stim","337","460451","0.0-5.0-323.0","go-nogo","true","0","","false","<div class = centerbox><div  id = stim1></div></div>","32","32","750","","test","go","323","adv","","",""
"","-1","-1","1464","0","test_block","poldrack-single-stim","338","461920","0.0-5.0-324.0","go-nogo","true","0","","false","<div class = centerbox><div  id = stim1></div></div>","32","32","750","","test","go","324","adv","","",""
"","-1","-1","1338","0","test_block","poldrack-single-stim","339","463288","0.0-5.0-325.0","go-nogo","true","0","","false","<div class = centerbox><div  id = stim1></div></div>","32","32","750","","test","go","325","adv","","",""
"","-1","-1","1181","0","test_block","poldrack-single-stim","340","464473","0.0-5.0-326.0","go-nogo","true","0","","false","<div class = centerbox><div  id = stim1></div></div>","32","32","750","","test","go","326","adv","","",""
"","-1","-1","1348","0","test_block","poldrack-single-stim","341","465828","0.0-5.0-327.0","go-nogo","true","0","","false","<div class = centerbox><div  id = stim1></div></div>","32","32","750","","test","go","327","adv","","",""
"","-1","-1","1264","0","test_block","poldrack-single-stim","342","467100","0.0-5.0-328.0","go-nogo","true","0","","false","<div class = centerbox><div  id = stim1></div></div>","32","32","750","","test","go","328","adv","","",""
"","957","32","1396","0","test_block","poldrack-single-stim","343","468505","0.0-5.0-329.0","go-nogo","true","0","","true","<div class = centerbox><div  id = stim1></div></div>","32","32","750","","test","go","329","adv","","",""
"","163","32","1047","0","test_block","poldrack-single-stim","344","469558","0.0-5.0-330.0","go-nogo","true","0","","true","<div class = centerbox><div  id = stim1></div></div>","32","32","750","","test","go","330","adv","","",""
"","89","32","1394","0","test_block","poldrack-single-stim","345","470965","0.0-5.0-331.0","go-nogo","true","0","","true","<div class = centerbox><div  id = stim1></div></div>","32","32","750","","test","go","331","adv","","",""
"","405","32","1373","0","test_block","poldrack-single-stim","346","472348","0.0-5.0-332.0","go-nogo","true","0","","true","<div class = centerbox><div  id = stim1></div></div>","32","32","750","","test","go","332","adv","","",""
"","276","32","1481","0","test_block","poldrack-single-stim","347","473834","0.0-5.0-333.0","go-nogo","true","0","","true","<div class = centerbox><div  id = stim1></div></div>","32","32","750","","test","go","333","adv","","",""
"","164","32","1022","0","test_block","poldrack-single-stim","348","474862","0.0-5.0-334.0","go-nogo","true","0","","true","<div class = centerbox><div  id = stim1></div></div>","32","32","750","","test","go","334","adv","","",""
"","138","32","1408","0","test_block","poldrack-single-stim","349","476274","0.0-5.0-335.0","go-nogo","true","0","","true","<div class = centerbox><div  id = stim1></div></div>","32","32","750","","test","go","335","adv","","",""
"","332","32","1096","0","test_block","poldrack-single-stim","350","477407","0.0-5.0-336.0","go-nogo","true","0","","true","<div class = centerbox><div  id = stim1></div></div>","32","32","750","","test","go","336","adv","","",""
"","839","32","1277","0","test_block","poldrack-single-stim","351","478690","0.0-5.0-337.0","go-nogo","true","0","","true","<div class = centerbox><div  id = stim1></div></div>","32","32","750","","test","go","337","adv","","",""
"","-1","-1","1481","0","test_block","poldrack-single-stim","352","480179","0.0-5.0-338.0","go-nogo","true","0","","false","<div class = centerbox><div  id = stim1></div></div>","32","32","750","","test","go","338","adv","","",""
"","339","32","1050","0","test_block","poldrack-single-stim","353","481244","0.0-5.0-339.0","go-nogo","true","0","","true","<div class = centerbox><div  id = stim1></div></div>","32","32","750","","test","go","339","adv","","",""
"","-1","-1","1251","0","test_block","poldrack-single-stim","354","482499","0.0-5.0-340.0","go-nogo","true","0","","false","<div class = centerbox><div  id = stim1></div></div>","32","32","750","","test","go","340","adv","","",""
"","712","32","1492","0","test_block","poldrack-single-stim","355","483999","0.0-5.0-341.0","go-nogo","true","0","","true","<div class = centerbox><div  id = stim1></div></div>","32","32","750","","test","go","341","adv","","",""
"","-1","-1","1296","0","test_block","poldrack-single-stim","356","485310","0.0-5.0-342.0","go-nogo","true","0","","false","<div class = centerbox><div  id = stim1></div></div>","32","32","750","","test","go","342","adv","","",""
"","-1","-1","1071","0","test_block","poldrack-single-stim","357","486385","0.0-5.0-343.0","go-nogo","true","0","","false","<div class = centerbox><div  id = stim1></div></div>","32","32","750","","test","go","343","adv","","",""
"","-1","-1","1329","0","test_block","poldrack-single-stim","358","487719","0.0-5.0-344.0","go-nogo","true","0","","false","<div class = centerbox><div  id = stim1></div></div>","32","32","750","","test","go","344","adv","","",""
"","-1","-1","1212","0","test_block","poldrack-single-stim","359","488961","0.0-5.0-345.0","go-nogo","true","0","","false","<div class = centerbox><div  id = stim1></div></div>","32","32","750","","test","go","345","adv","","",""
"","-1","-1","1109","0","test_block","poldrack-single-stim","360","490074","0.0-5.0-346.0","go-nogo","true","0","","false","<div class = centerbox><div  id = stim1></div></div>","32","32","750","","test","go","346","adv","","",""
"","-1","-1","1363","0","test_block","poldrack-single-stim","361","491457","0.0-5.0-347.0","go-nogo","true","0","","false","<div class = centerbox><div  id = stim1></div></div>","32","32","750","","test","go","347","adv","","",""
"","-1","-1","1364","0","test_block","poldrack-single-stim","362","492831","0.0-5.0-348.0","go-nogo","true","0","","false","<div class = centerbox><div  id = stim1></div></div>","32","32","750","","test","go","348","adv","","",""
"","-1","-1","1430","0","test_block","poldrack-single-stim","363","494266","0.0-5.0-349.0","go-nogo","true","0","","false","<div class = centerbox><div  id = stim1></div></div>","32","32","750","","test","go","349","adv","","",""
"","60835","","","","post task questions","survey-text","364","555114","0.0-7.0","go-nogo","true","0","","","","","","","","","","","","{""Q0"":""HAD TO PRESS SPACEBAR WHEN ORANGE SQUARE PICTURE COME OUT OR ELSE NOT TO PRESS ANYTHING "",""Q1"":""GOOD ONE ""}","",""
"<div class = centerbox><p class = center-block-text>Thanks for completing this task!</p><p class = center-block-text>Insert the following code to collect your payment at Amazon Mechanical Turk:</p><p class = center-block-text>773645317</p><p class = center-block-text>Press <strong>enter</strong> to continue.</p></div>","2472","13","2472","0","end","poldrack-text","365","558587","0.0-8.0","go-nogo","true","0","","","","","","","","","","","","","773645317","true"
