"text","rt","key_press","block_duration","timing_post_trial","trial_id","trial_type","trial_index","time_elapsed","internal_node_id","exp_id","full_screen","focus_shifts","view_history","correct","stimulus","correct_response","possible_responses","stim_duration","feedback_duration","exp_stage","condition","trial_num","mode","responses","payment_id","credit_var"
"<div class = centerbox><p class = center-block-text>Welcome to the experiment. This task will take around 10 minutes. Press <strong>enter</strong> to begin.</p></div>","5926","13","5926","0","instruction","poldrack-text","0","5928","0.0-0.0-0.0","go-nogo","true","0","","","","","","","","","","","","","",""
"","21806","","","","instruction","poldrack-instructions","1","27736","0.0-0.0-1.0","go-nogo","true","0","[{""page_index"":0,""viewing_time"":21806}]","","","","","","","","","","","","",""
"","-1","-1","1018","250","practice","poldrack-categorize","2","30767","0.0-1.0-0.0","go-nogo","true","0","","true","<div class = centerbox><div id = stim1></div></div>","-1","32","750","1000","practice","nogo","0","adv","","",""
"","398","32","1404","250","practice","poldrack-categorize","3","33429","0.0-1.0-1.0","go-nogo","true","0","","true","<div class = centerbox><div  id = stim2></div></div>","32","32","750","1000","practice","go","1","adv","","",""
"","316","32","1425","250","practice","poldrack-categorize","4","36117","0.0-1.0-2.0","go-nogo","true","0","","true","<div class = centerbox><div  id = stim2></div></div>","32","32","750","1000","practice","go","2","adv","","",""
"","-1","-1","1321","250","practice","poldrack-categorize","5","38697","0.0-1.0-3.0","go-nogo","true","0","","true","<div class = centerbox><div id = stim1></div></div>","-1","32","750","1000","practice","nogo","3","adv","","",""
"","304","32","1036","250","practice","poldrack-categorize","6","40993","0.0-1.0-4.0","go-nogo","true","0","","true","<div class = centerbox><div  id = stim2></div></div>","32","32","750","1000","practice","go","4","adv","","",""
"","331","32","1224","250","practice","poldrack-categorize","7","43480","0.0-1.0-5.0","go-nogo","true","0","","true","<div class = centerbox><div  id = stim2></div></div>","32","32","750","1000","practice","go","5","adv","","",""
"","-1","-1","1180","250","practice","poldrack-categorize","8","45919","0.0-1.0-6.0","go-nogo","true","0","","true","<div class = centerbox><div id = stim1></div></div>","-1","32","750","1000","practice","nogo","6","adv","","",""
"","-1","-1","1110","250","practice","poldrack-categorize","9","48289","0.0-1.0-7.0","go-nogo","true","0","","true","<div class = centerbox><div id = stim1></div></div>","-1","32","750","1000","practice","nogo","7","adv","","",""
"","-1","-1","1239","250","practice","poldrack-categorize","10","50797","0.0-1.0-8.0","go-nogo","true","0","","true","<div class = centerbox><div id = stim1></div></div>","-1","32","750","1000","practice","nogo","8","adv","","",""
"","292","32","1253","250","practice","poldrack-categorize","11","53308","0.0-1.0-9.0","go-nogo","true","0","","true","<div class = centerbox><div  id = stim2></div></div>","32","32","750","1000","practice","go","9","adv","","",""
"","","","","","reset_trial","call-function","12","53561","0.0-3.0","go-nogo","true","0","","","","","","","","","","","","","",""
"<div class = centerbox><p class = block-text>Practice is over, we will now begin the experiment. You will no longer get feedback about your responses.</p><p class = block-text>Remember, if you see the <font color=""blue"">blue</font> square you should <strong> respond by pressing the spacebar as quickly as possible</strong>. If you see the <font color=""orange"">orange</font> square you should <strong> not respond</strong>. Press <strong>enter</strong> to begin.</p></div>","7830","13","7830","1000","test_intro","poldrack-text","13","61391","0.0-4.0","go-nogo","true","0","","","","","","","","","","","","","",""
"","393","32","1417","0","test_block","poldrack-single-stim","14","63814","0.0-5.0-0.0","go-nogo","true","0","","true","<div class = centerbox><div  id = stim2></div></div>","32","32","750","","test","go","0","adv","","",""
"","453","32","1078","0","test_block","poldrack-single-stim","15","64999","0.0-5.0-1.0","go-nogo","true","0","","true","<div class = centerbox><div  id = stim2></div></div>","32","32","750","","test","go","1","adv","","",""
"","366","32","1135","0","test_block","poldrack-single-stim","16","66190","0.0-5.0-2.0","go-nogo","true","0","","true","<div class = centerbox><div  id = stim2></div></div>","32","32","750","","test","go","2","adv","","",""
"","290","32","1136","0","test_block","poldrack-single-stim","17","67379","0.0-5.0-3.0","go-nogo","true","0","","true","<div class = centerbox><div  id = stim2></div></div>","32","32","750","","test","go","3","adv","","",""
"","257","32","1214","0","test_block","poldrack-single-stim","18","68648","0.0-5.0-4.0","go-nogo","true","0","","true","<div class = centerbox><div  id = stim2></div></div>","32","32","750","","test","go","4","adv","","",""
"","337","32","1458","0","test_block","poldrack-single-stim","19","70168","0.0-5.0-5.0","go-nogo","true","0","","true","<div class = centerbox><div  id = stim2></div></div>","32","32","750","","test","go","5","adv","","",""
"","327","32","1015","0","test_block","poldrack-single-stim","20","71235","0.0-5.0-6.0","go-nogo","true","0","","true","<div class = centerbox><div  id = stim2></div></div>","32","32","750","","test","go","6","adv","","",""
"","294","32","1485","0","test_block","poldrack-single-stim","21","72776","0.0-5.0-7.0","go-nogo","true","0","","true","<div class = centerbox><div  id = stim2></div></div>","32","32","750","","test","go","7","adv","","",""
"","320","32","1071","0","test_block","poldrack-single-stim","22","73893","0.0-5.0-8.0","go-nogo","true","0","","true","<div class = centerbox><div  id = stim2></div></div>","32","32","750","","test","go","8","adv","","",""
"","343","32","1337","0","test_block","poldrack-single-stim","23","75272","0.0-5.0-9.0","go-nogo","true","0","","true","<div class = centerbox><div  id = stim2></div></div>","32","32","750","","test","go","9","adv","","",""
"","295","32","1049","0","test_block","poldrack-single-stim","24","76371","0.0-5.0-10.0","go-nogo","true","0","","true","<div class = centerbox><div  id = stim2></div></div>","32","32","750","","test","go","10","adv","","",""
"","294","32","1341","0","test_block","poldrack-single-stim","25","77757","0.0-5.0-11.0","go-nogo","true","0","","true","<div class = centerbox><div  id = stim2></div></div>","32","32","750","","test","go","11","adv","","",""
"","335","32","1444","0","test_block","poldrack-single-stim","26","79246","0.0-5.0-12.0","go-nogo","true","0","","true","<div class = centerbox><div  id = stim2></div></div>","32","32","750","","test","go","12","adv","","",""
"","288","32","1423","0","test_block","poldrack-single-stim","27","80711","0.0-5.0-13.0","go-nogo","true","0","","true","<div class = centerbox><div  id = stim2></div></div>","32","32","750","","test","go","13","adv","","",""
"","280","32","1351","0","test_block","poldrack-single-stim","28","82108","0.0-5.0-14.0","go-nogo","true","0","","true","<div class = centerbox><div  id = stim2></div></div>","32","32","750","","test","go","14","adv","","",""
"","324","32","1445","0","test_block","poldrack-single-stim","29","83598","0.0-5.0-15.0","go-nogo","true","0","","true","<div class = centerbox><div  id = stim2></div></div>","32","32","750","","test","go","15","adv","","",""
"","280","32","1141","0","test_block","poldrack-single-stim","30","84780","0.0-5.0-16.0","go-nogo","true","0","","true","<div class = centerbox><div  id = stim2></div></div>","32","32","750","","test","go","16","adv","","",""
"","315","32","1347","0","test_block","poldrack-single-stim","31","86166","0.0-5.0-17.0","go-nogo","true","0","","true","<div class = centerbox><div  id = stim2></div></div>","32","32","750","","test","go","17","adv","","",""
"","244","32","1037","0","test_block","poldrack-single-stim","32","87242","0.0-5.0-18.0","go-nogo","true","0","","true","<div class = centerbox><div  id = stim2></div></div>","32","32","750","","test","go","18","adv","","",""
"","310","32","1162","0","test_block","poldrack-single-stim","33","88455","0.0-5.0-19.0","go-nogo","true","0","","true","<div class = centerbox><div  id = stim2></div></div>","32","32","750","","test","go","19","adv","","",""
"","236","32","1233","0","test_block","poldrack-single-stim","34","89726","0.0-5.0-20.0","go-nogo","true","0","","true","<div class = centerbox><div  id = stim2></div></div>","32","32","750","","test","go","20","adv","","",""
"","267","32","1318","0","test_block","poldrack-single-stim","35","91087","0.0-5.0-21.0","go-nogo","true","0","","true","<div class = centerbox><div  id = stim2></div></div>","32","32","750","","test","go","21","adv","","",""
"","261","32","1398","0","test_block","poldrack-single-stim","36","92529","0.0-5.0-22.0","go-nogo","true","0","","true","<div class = centerbox><div  id = stim2></div></div>","32","32","750","","test","go","22","adv","","",""
"","290","32","1335","0","test_block","poldrack-single-stim","37","93908","0.0-5.0-23.0","go-nogo","true","0","","true","<div class = centerbox><div  id = stim2></div></div>","32","32","750","","test","go","23","adv","","",""
"","245","32","1474","0","test_block","poldrack-single-stim","38","95422","0.0-5.0-24.0","go-nogo","true","0","","true","<div class = centerbox><div  id = stim2></div></div>","32","32","750","","test","go","24","adv","","",""
"","229","32","1371","0","test_block","poldrack-single-stim","39","96840","0.0-5.0-25.0","go-nogo","true","0","","true","<div class = centerbox><div  id = stim2></div></div>","32","32","750","","test","go","25","adv","","",""
"","233","32","1303","0","test_block","poldrack-single-stim","40","98187","0.0-5.0-26.0","go-nogo","true","0","","true","<div class = centerbox><div  id = stim2></div></div>","32","32","750","","test","go","26","adv","","",""
"","436","32","1220","0","test_block","poldrack-single-stim","41","99447","0.0-5.0-27.0","go-nogo","true","0","","true","<div class = centerbox><div  id = stim2></div></div>","32","32","750","","test","go","27","adv","","",""
"","288","32","1240","0","test_block","poldrack-single-stim","42","100730","0.0-5.0-28.0","go-nogo","true","0","","true","<div class = centerbox><div  id = stim2></div></div>","32","32","750","","test","go","28","adv","","",""
"","287","32","1046","0","test_block","poldrack-single-stim","43","101812","0.0-5.0-29.0","go-nogo","true","0","","true","<div class = centerbox><div  id = stim2></div></div>","32","32","750","","test","go","29","adv","","",""
"","-1","-1","1480","0","test_block","poldrack-single-stim","44","103330","0.0-5.0-30.0","go-nogo","true","0","","false","<div class = centerbox><div  id = stim2></div></div>","32","32","750","","test","go","30","adv","","",""
"","205","32","1439","0","test_block","poldrack-single-stim","45","104806","0.0-5.0-31.0","go-nogo","true","0","","true","<div class = centerbox><div  id = stim2></div></div>","32","32","750","","test","go","31","adv","","",""
"","223","32","1421","0","test_block","poldrack-single-stim","46","106268","0.0-5.0-32.0","go-nogo","true","0","","false","<div class = centerbox><div  id = stim1></div></div>","-1","32","750","","test","nogo","32","adv","","",""
"","-1","-1","1013","0","test_block","poldrack-single-stim","47","107316","0.0-5.0-33.0","go-nogo","true","0","","true","<div class = centerbox><div  id = stim1></div></div>","-1","32","750","","test","nogo","33","adv","","",""
"","486","32","1029","0","test_block","poldrack-single-stim","48","108385","0.0-5.0-34.0","go-nogo","true","0","","true","<div class = centerbox><div  id = stim2></div></div>","32","32","750","","test","go","34","adv","","",""
"","431","32","1251","0","test_block","poldrack-single-stim","49","109673","0.0-5.0-35.0","go-nogo","true","0","","true","<div class = centerbox><div  id = stim2></div></div>","32","32","750","","test","go","35","adv","","",""
"","321","32","1282","0","test_block","poldrack-single-stim","50","110993","0.0-5.0-36.0","go-nogo","true","0","","true","<div class = centerbox><div  id = stim2></div></div>","32","32","750","","test","go","36","adv","","",""
"","288","32","1101","0","test_block","poldrack-single-stim","51","112131","0.0-5.0-37.0","go-nogo","true","0","","true","<div class = centerbox><div  id = stim2></div></div>","32","32","750","","test","go","37","adv","","",""
"","307","32","1350","0","test_block","poldrack-single-stim","52","113523","0.0-5.0-38.0","go-nogo","true","0","","true","<div class = centerbox><div  id = stim2></div></div>","32","32","750","","test","go","38","adv","","",""
"","271","32","1117","0","test_block","poldrack-single-stim","53","114674","0.0-5.0-39.0","go-nogo","true","0","","true","<div class = centerbox><div  id = stim2></div></div>","32","32","750","","test","go","39","adv","","",""
"","306","32","1155","0","test_block","poldrack-single-stim","54","115864","0.0-5.0-40.0","go-nogo","true","0","","true","<div class = centerbox><div  id = stim2></div></div>","32","32","750","","test","go","40","adv","","",""
"","263","32","1341","0","test_block","poldrack-single-stim","55","117241","0.0-5.0-41.0","go-nogo","true","0","","true","<div class = centerbox><div  id = stim2></div></div>","32","32","750","","test","go","41","adv","","",""
"","451","32","1410","0","test_block","poldrack-single-stim","56","118691","0.0-5.0-42.0","go-nogo","true","0","","true","<div class = centerbox><div  id = stim2></div></div>","32","32","750","","test","go","42","adv","","",""
"","413","32","1498","0","test_block","poldrack-single-stim","57","120231","0.0-5.0-43.0","go-nogo","true","0","","true","<div class = centerbox><div  id = stim2></div></div>","32","32","750","","test","go","43","adv","","",""
"","318","32","1428","0","test_block","poldrack-single-stim","58","121706","0.0-5.0-44.0","go-nogo","true","0","","true","<div class = centerbox><div  id = stim2></div></div>","32","32","750","","test","go","44","adv","","",""
"","500","32","1499","0","test_block","poldrack-single-stim","59","123247","0.0-5.0-45.0","go-nogo","true","0","","true","<div class = centerbox><div  id = stim2></div></div>","32","32","750","","test","go","45","adv","","",""
"","326","32","1406","0","test_block","poldrack-single-stim","60","124698","0.0-5.0-46.0","go-nogo","true","0","","true","<div class = centerbox><div  id = stim2></div></div>","32","32","750","","test","go","46","adv","","",""
"","373","32","1123","0","test_block","poldrack-single-stim","61","125857","0.0-5.0-47.0","go-nogo","true","0","","true","<div class = centerbox><div  id = stim2></div></div>","32","32","750","","test","go","47","adv","","",""
"","422","32","1020","0","test_block","poldrack-single-stim","62","126914","0.0-5.0-48.0","go-nogo","true","0","","true","<div class = centerbox><div  id = stim2></div></div>","32","32","750","","test","go","48","adv","","",""
"","515","32","1453","0","test_block","poldrack-single-stim","63","128408","0.0-5.0-49.0","go-nogo","true","0","","true","<div class = centerbox><div  id = stim2></div></div>","32","32","750","","test","go","49","adv","","",""
"","399","32","1167","0","test_block","poldrack-single-stim","64","129613","0.0-5.0-50.0","go-nogo","true","0","","true","<div class = centerbox><div  id = stim2></div></div>","32","32","750","","test","go","50","adv","","",""
"","319","32","1488","0","test_block","poldrack-single-stim","65","131137","0.0-5.0-51.0","go-nogo","true","0","","true","<div class = centerbox><div  id = stim2></div></div>","32","32","750","","test","go","51","adv","","",""
"","405","32","1353","0","test_block","poldrack-single-stim","66","132533","0.0-5.0-52.0","go-nogo","true","0","","true","<div class = centerbox><div  id = stim2></div></div>","32","32","750","","test","go","52","adv","","",""
"","317","32","1370","0","test_block","poldrack-single-stim","67","133938","0.0-5.0-53.0","go-nogo","true","0","","true","<div class = centerbox><div  id = stim2></div></div>","32","32","750","","test","go","53","adv","","",""
"","342","32","1061","0","test_block","poldrack-single-stim","68","135038","0.0-5.0-54.0","go-nogo","true","0","","true","<div class = centerbox><div  id = stim2></div></div>","32","32","750","","test","go","54","adv","","",""
"","499","32","1097","0","test_block","poldrack-single-stim","69","136176","0.0-5.0-55.0","go-nogo","true","0","","true","<div class = centerbox><div  id = stim2></div></div>","32","32","750","","test","go","55","adv","","",""
"","649","32","1054","0","test_block","poldrack-single-stim","70","137269","0.0-5.0-56.0","go-nogo","true","0","","true","<div class = centerbox><div  id = stim2></div></div>","32","32","750","","test","go","56","adv","","",""
"","639","32","1393","0","test_block","poldrack-single-stim","71","138700","0.0-5.0-57.0","go-nogo","true","0","","true","<div class = centerbox><div  id = stim2></div></div>","32","32","750","","test","go","57","adv","","",""
"","331","32","1172","0","test_block","poldrack-single-stim","72","139913","0.0-5.0-58.0","go-nogo","true","0","","true","<div class = centerbox><div  id = stim2></div></div>","32","32","750","","test","go","58","adv","","",""
"","376","32","1149","0","test_block","poldrack-single-stim","73","141093","0.0-5.0-59.0","go-nogo","true","0","","true","<div class = centerbox><div  id = stim2></div></div>","32","32","750","","test","go","59","adv","","",""
"","319","32","1227","0","test_block","poldrack-single-stim","74","142361","0.0-5.0-60.0","go-nogo","true","0","","true","<div class = centerbox><div  id = stim2></div></div>","32","32","750","","test","go","60","adv","","",""
"","214","32","1007","0","test_block","poldrack-single-stim","75","143405","0.0-5.0-61.0","go-nogo","true","0","","true","<div class = centerbox><div  id = stim2></div></div>","32","32","750","","test","go","61","adv","","",""
"","489","32","1178","0","test_block","poldrack-single-stim","76","144622","0.0-5.0-62.0","go-nogo","true","0","","true","<div class = centerbox><div  id = stim2></div></div>","32","32","750","","test","go","62","adv","","",""
"","287","32","1212","0","test_block","poldrack-single-stim","77","145870","0.0-5.0-63.0","go-nogo","true","0","","true","<div class = centerbox><div  id = stim2></div></div>","32","32","750","","test","go","63","adv","","",""
"","304","32","1091","0","test_block","poldrack-single-stim","78","147007","0.0-5.0-64.0","go-nogo","true","0","","true","<div class = centerbox><div  id = stim2></div></div>","32","32","750","","test","go","64","adv","","",""
"","380","32","1453","0","test_block","poldrack-single-stim","79","148499","0.0-5.0-65.0","go-nogo","true","0","","true","<div class = centerbox><div  id = stim2></div></div>","32","32","750","","test","go","65","adv","","",""
"","338","32","1069","0","test_block","poldrack-single-stim","80","149610","0.0-5.0-66.0","go-nogo","true","0","","true","<div class = centerbox><div  id = stim2></div></div>","32","32","750","","test","go","66","adv","","",""
"","339","32","1480","0","test_block","poldrack-single-stim","81","151135","0.0-5.0-67.0","go-nogo","true","0","","true","<div class = centerbox><div  id = stim2></div></div>","32","32","750","","test","go","67","adv","","",""
"","349","32","1269","0","test_block","poldrack-single-stim","82","152444","0.0-5.0-68.0","go-nogo","true","0","","true","<div class = centerbox><div  id = stim2></div></div>","32","32","750","","test","go","68","adv","","",""
"","550","32","1436","0","test_block","poldrack-single-stim","83","153914","0.0-5.0-69.0","go-nogo","true","0","","true","<div class = centerbox><div  id = stim2></div></div>","32","32","750","","test","go","69","adv","","",""
"","223","32","1232","0","test_block","poldrack-single-stim","84","155185","0.0-5.0-70.0","go-nogo","true","0","","true","<div class = centerbox><div  id = stim2></div></div>","32","32","750","","test","go","70","adv","","",""
"","274","32","1031","0","test_block","poldrack-single-stim","85","156251","0.0-5.0-71.0","go-nogo","true","0","","true","<div class = centerbox><div  id = stim2></div></div>","32","32","750","","test","go","71","adv","","",""
"","301","32","1269","0","test_block","poldrack-single-stim","86","157554","0.0-5.0-72.0","go-nogo","true","0","","true","<div class = centerbox><div  id = stim2></div></div>","32","32","750","","test","go","72","adv","","",""
"","262","32","1230","0","test_block","poldrack-single-stim","87","158817","0.0-5.0-73.0","go-nogo","true","0","","true","<div class = centerbox><div  id = stim2></div></div>","32","32","750","","test","go","73","adv","","",""
"","333","32","1370","0","test_block","poldrack-single-stim","88","160227","0.0-5.0-74.0","go-nogo","true","0","","true","<div class = centerbox><div  id = stim2></div></div>","32","32","750","","test","go","74","adv","","",""
"","336","32","1180","0","test_block","poldrack-single-stim","89","161442","0.0-5.0-75.0","go-nogo","true","0","","true","<div class = centerbox><div  id = stim2></div></div>","32","32","750","","test","go","75","adv","","",""
"","382","32","1176","0","test_block","poldrack-single-stim","90","162654","0.0-5.0-76.0","go-nogo","true","0","","true","<div class = centerbox><div  id = stim2></div></div>","32","32","750","","test","go","76","adv","","",""
"","672","32","1451","0","test_block","poldrack-single-stim","91","164138","0.0-5.0-77.0","go-nogo","true","0","","true","<div class = centerbox><div  id = stim2></div></div>","32","32","750","","test","go","77","adv","","",""
"","349","32","1380","0","test_block","poldrack-single-stim","92","165553","0.0-5.0-78.0","go-nogo","true","0","","true","<div class = centerbox><div  id = stim2></div></div>","32","32","750","","test","go","78","adv","","",""
"","294","32","1417","0","test_block","poldrack-single-stim","93","167004","0.0-5.0-79.0","go-nogo","true","0","","true","<div class = centerbox><div  id = stim2></div></div>","32","32","750","","test","go","79","adv","","",""
"","390","32","1427","0","test_block","poldrack-single-stim","94","168469","0.0-5.0-80.0","go-nogo","true","0","","true","<div class = centerbox><div  id = stim2></div></div>","32","32","750","","test","go","80","adv","","",""
"","613","32","1328","0","test_block","poldrack-single-stim","95","169835","0.0-5.0-81.0","go-nogo","true","0","","true","<div class = centerbox><div  id = stim2></div></div>","32","32","750","","test","go","81","adv","","",""
"","376","32","1262","0","test_block","poldrack-single-stim","96","171132","0.0-5.0-82.0","go-nogo","true","0","","true","<div class = centerbox><div  id = stim2></div></div>","32","32","750","","test","go","82","adv","","",""
"","266","32","1380","0","test_block","poldrack-single-stim","97","172545","0.0-5.0-83.0","go-nogo","true","0","","true","<div class = centerbox><div  id = stim2></div></div>","32","32","750","","test","go","83","adv","","",""
"","321","32","1378","0","test_block","poldrack-single-stim","98","173961","0.0-5.0-84.0","go-nogo","true","0","","true","<div class = centerbox><div  id = stim2></div></div>","32","32","750","","test","go","84","adv","","",""
"","364","32","1465","0","test_block","poldrack-single-stim","99","175463","0.0-5.0-85.0","go-nogo","true","0","","true","<div class = centerbox><div  id = stim2></div></div>","32","32","750","","test","go","85","adv","","",""
"","344","32","1413","0","test_block","poldrack-single-stim","100","176909","0.0-5.0-86.0","go-nogo","true","0","","true","<div class = centerbox><div  id = stim2></div></div>","32","32","750","","test","go","86","adv","","",""
"","259","32","1368","0","test_block","poldrack-single-stim","101","178317","0.0-5.0-87.0","go-nogo","true","0","","true","<div class = centerbox><div  id = stim2></div></div>","32","32","750","","test","go","87","adv","","",""
"","272","32","1244","0","test_block","poldrack-single-stim","102","179601","0.0-5.0-88.0","go-nogo","true","0","","true","<div class = centerbox><div  id = stim2></div></div>","32","32","750","","test","go","88","adv","","",""
"","299","32","1044","0","test_block","poldrack-single-stim","103","180682","0.0-5.0-89.0","go-nogo","true","0","","true","<div class = centerbox><div  id = stim2></div></div>","32","32","750","","test","go","89","adv","","",""
"","329","32","1085","0","test_block","poldrack-single-stim","104","181801","0.0-5.0-90.0","go-nogo","true","0","","true","<div class = centerbox><div  id = stim2></div></div>","32","32","750","","test","go","90","adv","","",""
"","399","32","1134","0","test_block","poldrack-single-stim","105","182973","0.0-5.0-91.0","go-nogo","true","0","","true","<div class = centerbox><div  id = stim2></div></div>","32","32","750","","test","go","91","adv","","",""
"","409","32","1063","0","test_block","poldrack-single-stim","106","184071","0.0-5.0-92.0","go-nogo","true","0","","true","<div class = centerbox><div  id = stim2></div></div>","32","32","750","","test","go","92","adv","","",""
"","805","32","1227","0","test_block","poldrack-single-stim","107","185328","0.0-5.0-93.0","go-nogo","true","0","","true","<div class = centerbox><div  id = stim2></div></div>","32","32","750","","test","go","93","adv","","",""
"","402","32","1354","0","test_block","poldrack-single-stim","108","186720","0.0-5.0-94.0","go-nogo","true","0","","true","<div class = centerbox><div  id = stim2></div></div>","32","32","750","","test","go","94","adv","","",""
"","222","32","1371","0","test_block","poldrack-single-stim","109","188128","0.0-5.0-95.0","go-nogo","true","0","","true","<div class = centerbox><div  id = stim2></div></div>","32","32","750","","test","go","95","adv","","",""
"","261","32","1294","0","test_block","poldrack-single-stim","110","189457","0.0-5.0-96.0","go-nogo","true","0","","true","<div class = centerbox><div  id = stim2></div></div>","32","32","750","","test","go","96","adv","","",""
"","241","32","1034","0","test_block","poldrack-single-stim","111","190528","0.0-5.0-97.0","go-nogo","true","0","","true","<div class = centerbox><div  id = stim2></div></div>","32","32","750","","test","go","97","adv","","",""
"","260","32","1180","0","test_block","poldrack-single-stim","112","191745","0.0-5.0-98.0","go-nogo","true","0","","true","<div class = centerbox><div  id = stim2></div></div>","32","32","750","","test","go","98","adv","","",""
"","249","32","1478","0","test_block","poldrack-single-stim","113","193257","0.0-5.0-99.0","go-nogo","true","0","","true","<div class = centerbox><div  id = stim2></div></div>","32","32","750","","test","go","99","adv","","",""
"","444","32","1243","0","test_block","poldrack-single-stim","114","194534","0.0-5.0-100.0","go-nogo","true","0","","true","<div class = centerbox><div  id = stim2></div></div>","32","32","750","","test","go","100","adv","","",""
"","381","32","1228","0","test_block","poldrack-single-stim","115","195795","0.0-5.0-101.0","go-nogo","true","0","","true","<div class = centerbox><div  id = stim2></div></div>","32","32","750","","test","go","101","adv","","",""
"","324","32","1131","0","test_block","poldrack-single-stim","116","196961","0.0-5.0-102.0","go-nogo","true","0","","true","<div class = centerbox><div  id = stim2></div></div>","32","32","750","","test","go","102","adv","","",""
"","305","32","1016","0","test_block","poldrack-single-stim","117","198013","0.0-5.0-103.0","go-nogo","true","0","","true","<div class = centerbox><div  id = stim2></div></div>","32","32","750","","test","go","103","adv","","",""
"","446","32","1184","0","test_block","poldrack-single-stim","118","199231","0.0-5.0-104.0","go-nogo","true","0","","true","<div class = centerbox><div  id = stim2></div></div>","32","32","750","","test","go","104","adv","","",""
"","289","32","1057","0","test_block","poldrack-single-stim","119","200325","0.0-5.0-105.0","go-nogo","true","0","","true","<div class = centerbox><div  id = stim2></div></div>","32","32","750","","test","go","105","adv","","",""
"","365","32","1406","0","test_block","poldrack-single-stim","120","201761","0.0-5.0-106.0","go-nogo","true","0","","true","<div class = centerbox><div  id = stim2></div></div>","32","32","750","","test","go","106","adv","","",""
"","262","32","1392","0","test_block","poldrack-single-stim","121","203186","0.0-5.0-107.0","go-nogo","true","0","","true","<div class = centerbox><div  id = stim2></div></div>","32","32","750","","test","go","107","adv","","",""
"","312","32","1234","0","test_block","poldrack-single-stim","122","204456","0.0-5.0-108.0","go-nogo","true","0","","true","<div class = centerbox><div  id = stim2></div></div>","32","32","750","","test","go","108","adv","","",""
"","307","32","1051","0","test_block","poldrack-single-stim","123","205538","0.0-5.0-109.0","go-nogo","true","0","","true","<div class = centerbox><div  id = stim2></div></div>","32","32","750","","test","go","109","adv","","",""
"","315","32","1092","0","test_block","poldrack-single-stim","124","206668","0.0-5.0-110.0","go-nogo","true","0","","true","<div class = centerbox><div  id = stim2></div></div>","32","32","750","","test","go","110","adv","","",""
"","277","32","1180","0","test_block","poldrack-single-stim","125","207888","0.0-5.0-111.0","go-nogo","true","0","","true","<div class = centerbox><div  id = stim2></div></div>","32","32","750","","test","go","111","adv","","",""
"","232","32","1245","0","test_block","poldrack-single-stim","126","209170","0.0-5.0-112.0","go-nogo","true","0","","true","<div class = centerbox><div  id = stim2></div></div>","32","32","750","","test","go","112","adv","","",""
"","246","32","1156","0","test_block","poldrack-single-stim","127","210360","0.0-5.0-113.0","go-nogo","true","0","","true","<div class = centerbox><div  id = stim2></div></div>","32","32","750","","test","go","113","adv","","",""
"","235","32","1136","0","test_block","poldrack-single-stim","128","211528","0.0-5.0-114.0","go-nogo","true","0","","true","<div class = centerbox><div  id = stim2></div></div>","32","32","750","","test","go","114","adv","","",""
"","267","32","1186","0","test_block","poldrack-single-stim","129","212751","0.0-5.0-115.0","go-nogo","true","0","","true","<div class = centerbox><div  id = stim2></div></div>","32","32","750","","test","go","115","adv","","",""
"","269","32","1346","0","test_block","poldrack-single-stim","130","214132","0.0-5.0-116.0","go-nogo","true","0","","true","<div class = centerbox><div  id = stim2></div></div>","32","32","750","","test","go","116","adv","","",""
"","668","32","1223","0","test_block","poldrack-single-stim","131","215387","0.0-5.0-117.0","go-nogo","true","0","","true","<div class = centerbox><div  id = stim2></div></div>","32","32","750","","test","go","117","adv","","",""
"","370","32","1295","0","test_block","poldrack-single-stim","132","216726","0.0-5.0-118.0","go-nogo","true","0","","true","<div class = centerbox><div  id = stim2></div></div>","32","32","750","","test","go","118","adv","","",""
"","231","32","1450","0","test_block","poldrack-single-stim","133","218214","0.0-5.0-119.0","go-nogo","true","0","","true","<div class = centerbox><div  id = stim2></div></div>","32","32","750","","test","go","119","adv","","",""
"","225","32","1493","0","test_block","poldrack-single-stim","134","219739","0.0-5.0-120.0","go-nogo","true","0","","true","<div class = centerbox><div  id = stim2></div></div>","32","32","750","","test","go","120","adv","","",""
"","235","32","1028","0","test_block","poldrack-single-stim","135","220800","0.0-5.0-121.0","go-nogo","true","0","","true","<div class = centerbox><div  id = stim2></div></div>","32","32","750","","test","go","121","adv","","",""
"","301","32","1278","0","test_block","poldrack-single-stim","136","222109","0.0-5.0-122.0","go-nogo","true","0","","true","<div class = centerbox><div  id = stim2></div></div>","32","32","750","","test","go","122","adv","","",""
"","213","32","1229","0","test_block","poldrack-single-stim","137","223372","0.0-5.0-123.0","go-nogo","true","0","","true","<div class = centerbox><div  id = stim2></div></div>","32","32","750","","test","go","123","adv","","",""
"","218","32","1082","0","test_block","poldrack-single-stim","138","224489","0.0-5.0-124.0","go-nogo","true","0","","true","<div class = centerbox><div  id = stim2></div></div>","32","32","750","","test","go","124","adv","","",""
"","232","32","1384","0","test_block","poldrack-single-stim","139","225909","0.0-5.0-125.0","go-nogo","true","0","","true","<div class = centerbox><div  id = stim2></div></div>","32","32","750","","test","go","125","adv","","",""
"","583","32","1232","0","test_block","poldrack-single-stim","140","227177","0.0-5.0-126.0","go-nogo","true","0","","true","<div class = centerbox><div  id = stim2></div></div>","32","32","750","","test","go","126","adv","","",""
"","468","32","1326","0","test_block","poldrack-single-stim","141","228537","0.0-5.0-127.0","go-nogo","true","0","","true","<div class = centerbox><div  id = stim2></div></div>","32","32","750","","test","go","127","adv","","",""
"","309","32","1066","0","test_block","poldrack-single-stim","142","229637","0.0-5.0-128.0","go-nogo","true","0","","true","<div class = centerbox><div  id = stim2></div></div>","32","32","750","","test","go","128","adv","","",""
"","746","32","1015","0","test_block","poldrack-single-stim","143","230687","0.0-5.0-129.0","go-nogo","true","0","","true","<div class = centerbox><div  id = stim2></div></div>","32","32","750","","test","go","129","adv","","",""
"","462","32","1339","0","test_block","poldrack-single-stim","144","232058","0.0-5.0-130.0","go-nogo","true","0","","true","<div class = centerbox><div  id = stim2></div></div>","32","32","750","","test","go","130","adv","","",""
"","252","32","1497","0","test_block","poldrack-single-stim","145","233593","0.0-5.0-131.0","go-nogo","true","0","","true","<div class = centerbox><div  id = stim2></div></div>","32","32","750","","test","go","131","adv","","",""
"","252","32","1479","0","test_block","poldrack-single-stim","146","235108","0.0-5.0-132.0","go-nogo","true","0","","true","<div class = centerbox><div  id = stim2></div></div>","32","32","750","","test","go","132","adv","","",""
"","271","32","1010","0","test_block","poldrack-single-stim","147","236151","0.0-5.0-133.0","go-nogo","true","0","","true","<div class = centerbox><div  id = stim2></div></div>","32","32","750","","test","go","133","adv","","",""
"","412","32","1137","0","test_block","poldrack-single-stim","148","237324","0.0-5.0-134.0","go-nogo","true","0","","true","<div class = centerbox><div  id = stim2></div></div>","32","32","750","","test","go","134","adv","","",""
"","378","32","1050","0","test_block","poldrack-single-stim","149","238408","0.0-5.0-135.0","go-nogo","true","0","","true","<div class = centerbox><div  id = stim2></div></div>","32","32","750","","test","go","135","adv","","",""
"","299","32","1336","0","test_block","poldrack-single-stim","150","239775","0.0-5.0-136.0","go-nogo","true","0","","true","<div class = centerbox><div  id = stim2></div></div>","32","32","750","","test","go","136","adv","","",""
"","-1","-1","1095","0","test_block","poldrack-single-stim","151","240910","0.0-5.0-137.0","go-nogo","true","0","","true","<div class = centerbox><div  id = stim1></div></div>","-1","32","750","","test","nogo","137","adv","","",""
"","393","32","1226","0","test_block","poldrack-single-stim","152","242170","0.0-5.0-138.0","go-nogo","true","0","","true","<div class = centerbox><div  id = stim2></div></div>","32","32","750","","test","go","138","adv","","",""
"","299","32","1083","0","test_block","poldrack-single-stim","153","243290","0.0-5.0-139.0","go-nogo","true","0","","true","<div class = centerbox><div  id = stim2></div></div>","32","32","750","","test","go","139","adv","","",""
"","310","32","1204","0","test_block","poldrack-single-stim","154","244532","0.0-5.0-140.0","go-nogo","true","0","","true","<div class = centerbox><div  id = stim2></div></div>","32","32","750","","test","go","140","adv","","",""
"","281","32","1105","0","test_block","poldrack-single-stim","155","245670","0.0-5.0-141.0","go-nogo","true","0","","true","<div class = centerbox><div  id = stim2></div></div>","32","32","750","","test","go","141","adv","","",""
"","293","32","1197","0","test_block","poldrack-single-stim","156","246902","0.0-5.0-142.0","go-nogo","true","0","","true","<div class = centerbox><div  id = stim2></div></div>","32","32","750","","test","go","142","adv","","",""
"","261","32","1070","0","test_block","poldrack-single-stim","157","248006","0.0-5.0-143.0","go-nogo","true","0","","true","<div class = centerbox><div  id = stim2></div></div>","32","32","750","","test","go","143","adv","","",""
"","300","32","1193","0","test_block","poldrack-single-stim","158","249234","0.0-5.0-144.0","go-nogo","true","0","","true","<div class = centerbox><div  id = stim2></div></div>","32","32","750","","test","go","144","adv","","",""
"","278","32","1282","0","test_block","poldrack-single-stim","159","250547","0.0-5.0-145.0","go-nogo","true","0","","true","<div class = centerbox><div  id = stim2></div></div>","32","32","750","","test","go","145","adv","","",""
"","-1","-1","1455","0","test_block","poldrack-single-stim","160","252039","0.0-5.0-146.0","go-nogo","true","0","","true","<div class = centerbox><div  id = stim1></div></div>","-1","32","750","","test","nogo","146","adv","","",""
"","314","32","1191","0","test_block","poldrack-single-stim","161","253263","0.0-5.0-147.0","go-nogo","true","0","","true","<div class = centerbox><div  id = stim2></div></div>","32","32","750","","test","go","147","adv","","",""
"","343","32","1126","0","test_block","poldrack-single-stim","162","254423","0.0-5.0-148.0","go-nogo","true","0","","true","<div class = centerbox><div  id = stim2></div></div>","32","32","750","","test","go","148","adv","","",""
"","295","32","1402","0","test_block","poldrack-single-stim","163","255860","0.0-5.0-149.0","go-nogo","true","0","","true","<div class = centerbox><div  id = stim2></div></div>","32","32","750","","test","go","149","adv","","",""
"","304","32","1342","0","test_block","poldrack-single-stim","164","257236","0.0-5.0-150.0","go-nogo","true","0","","true","<div class = centerbox><div  id = stim2></div></div>","32","32","750","","test","go","150","adv","","",""
"","274","32","1462","0","test_block","poldrack-single-stim","165","258733","0.0-5.0-151.0","go-nogo","true","0","","true","<div class = centerbox><div  id = stim2></div></div>","32","32","750","","test","go","151","adv","","",""
"","285","32","1094","0","test_block","poldrack-single-stim","166","259864","0.0-5.0-152.0","go-nogo","true","0","","true","<div class = centerbox><div  id = stim2></div></div>","32","32","750","","test","go","152","adv","","",""
"","318","32","1159","0","test_block","poldrack-single-stim","167","261065","0.0-5.0-153.0","go-nogo","true","0","","true","<div class = centerbox><div  id = stim2></div></div>","32","32","750","","test","go","153","adv","","",""
"","307","32","1415","0","test_block","poldrack-single-stim","168","262515","0.0-5.0-154.0","go-nogo","true","0","","true","<div class = centerbox><div  id = stim2></div></div>","32","32","750","","test","go","154","adv","","",""
"","305","32","1487","0","test_block","poldrack-single-stim","169","264037","0.0-5.0-155.0","go-nogo","true","0","","true","<div class = centerbox><div  id = stim2></div></div>","32","32","750","","test","go","155","adv","","",""
"","-1","-1","1497","0","test_block","poldrack-single-stim","170","265578","0.0-5.0-156.0","go-nogo","true","0","","true","<div class = centerbox><div  id = stim1></div></div>","-1","32","750","","test","nogo","156","adv","","",""
"","337","32","1214","0","test_block","poldrack-single-stim","171","266826","0.0-5.0-157.0","go-nogo","true","0","","true","<div class = centerbox><div  id = stim2></div></div>","32","32","750","","test","go","157","adv","","",""
"","298","32","1094","0","test_block","poldrack-single-stim","172","267957","0.0-5.0-158.0","go-nogo","true","0","","true","<div class = centerbox><div  id = stim2></div></div>","32","32","750","","test","go","158","adv","","",""
"","276","32","1075","0","test_block","poldrack-single-stim","173","269067","0.0-5.0-159.0","go-nogo","true","0","","true","<div class = centerbox><div  id = stim2></div></div>","32","32","750","","test","go","159","adv","","",""
"","439","32","1104","0","test_block","poldrack-single-stim","174","270209","0.0-5.0-160.0","go-nogo","true","0","","true","<div class = centerbox><div  id = stim2></div></div>","32","32","750","","test","go","160","adv","","",""
"","343","32","1379","0","test_block","poldrack-single-stim","175","271627","0.0-5.0-161.0","go-nogo","true","0","","true","<div class = centerbox><div  id = stim2></div></div>","32","32","750","","test","go","161","adv","","",""
"","336","32","1154","0","test_block","poldrack-single-stim","176","272817","0.0-5.0-162.0","go-nogo","true","0","","true","<div class = centerbox><div  id = stim2></div></div>","32","32","750","","test","go","162","adv","","",""
"","299","32","1233","0","test_block","poldrack-single-stim","177","274084","0.0-5.0-163.0","go-nogo","true","0","","true","<div class = centerbox><div  id = stim2></div></div>","32","32","750","","test","go","163","adv","","",""
"","277","32","1210","0","test_block","poldrack-single-stim","178","275329","0.0-5.0-164.0","go-nogo","true","0","","true","<div class = centerbox><div  id = stim2></div></div>","32","32","750","","test","go","164","adv","","",""
"","270","32","1370","0","test_block","poldrack-single-stim","179","276733","0.0-5.0-165.0","go-nogo","true","0","","true","<div class = centerbox><div  id = stim2></div></div>","32","32","750","","test","go","165","adv","","",""
"","-1","-1","1463","0","test_block","poldrack-single-stim","180","278233","0.0-5.0-166.0","go-nogo","true","0","","true","<div class = centerbox><div  id = stim1></div></div>","-1","32","750","","test","nogo","166","adv","","",""
"","324","32","1303","0","test_block","poldrack-single-stim","181","279570","0.0-5.0-167.0","go-nogo","true","0","","true","<div class = centerbox><div  id = stim2></div></div>","32","32","750","","test","go","167","adv","","",""
"","328","32","1487","0","test_block","poldrack-single-stim","182","281090","0.0-5.0-168.0","go-nogo","true","0","","true","<div class = centerbox><div  id = stim2></div></div>","32","32","750","","test","go","168","adv","","",""
"","276","32","1330","0","test_block","poldrack-single-stim","183","282455","0.0-5.0-169.0","go-nogo","true","0","","true","<div class = centerbox><div  id = stim2></div></div>","32","32","750","","test","go","169","adv","","",""
"","286","32","1060","0","test_block","poldrack-single-stim","184","283553","0.0-5.0-170.0","go-nogo","true","0","","true","<div class = centerbox><div  id = stim2></div></div>","32","32","750","","test","go","170","adv","","",""
"","294","32","1200","0","test_block","poldrack-single-stim","185","284787","0.0-5.0-171.0","go-nogo","true","0","","true","<div class = centerbox><div  id = stim2></div></div>","32","32","750","","test","go","171","adv","","",""
"","400","32","1088","0","test_block","poldrack-single-stim","186","285913","0.0-5.0-172.0","go-nogo","true","0","","true","<div class = centerbox><div  id = stim2></div></div>","32","32","750","","test","go","172","adv","","",""
"","280","32","1214","0","test_block","poldrack-single-stim","187","287163","0.0-5.0-173.0","go-nogo","true","0","","true","<div class = centerbox><div  id = stim2></div></div>","32","32","750","","test","go","173","adv","","",""
"","279","32","1417","0","test_block","poldrack-single-stim","188","288610","0.0-5.0-174.0","go-nogo","true","0","","true","<div class = centerbox><div  id = stim2></div></div>","32","32","750","","test","go","174","adv","","",""
"","265","32","1097","0","test_block","poldrack-single-stim","189","289741","0.0-5.0-175.0","go-nogo","true","0","","true","<div class = centerbox><div  id = stim2></div></div>","32","32","750","","test","go","175","adv","","",""
"","-1","-1","1107","0","test_block","poldrack-single-stim","190","290889","0.0-5.0-176.0","go-nogo","true","0","","true","<div class = centerbox><div  id = stim1></div></div>","-1","32","750","","test","nogo","176","adv","","",""
"","340","32","1174","0","test_block","poldrack-single-stim","191","292100","0.0-5.0-177.0","go-nogo","true","0","","true","<div class = centerbox><div  id = stim2></div></div>","32","32","750","","test","go","177","adv","","",""
"","313","32","1368","0","test_block","poldrack-single-stim","192","293503","0.0-5.0-178.0","go-nogo","true","0","","true","<div class = centerbox><div  id = stim2></div></div>","32","32","750","","test","go","178","adv","","",""
"","295","32","1071","0","test_block","poldrack-single-stim","193","294609","0.0-5.0-179.0","go-nogo","true","0","","true","<div class = centerbox><div  id = stim2></div></div>","32","32","750","","test","go","179","adv","","",""
"","296","32","1198","0","test_block","poldrack-single-stim","194","295841","0.0-5.0-180.0","go-nogo","true","0","","true","<div class = centerbox><div  id = stim2></div></div>","32","32","750","","test","go","180","adv","","",""
"","261","32","1065","0","test_block","poldrack-single-stim","195","296942","0.0-5.0-181.0","go-nogo","true","0","","true","<div class = centerbox><div  id = stim2></div></div>","32","32","750","","test","go","181","adv","","",""
"","244","32","1036","0","test_block","poldrack-single-stim","196","298011","0.0-5.0-182.0","go-nogo","true","0","","true","<div class = centerbox><div  id = stim2></div></div>","32","32","750","","test","go","182","adv","","",""
"","263","32","1498","0","test_block","poldrack-single-stim","197","299547","0.0-5.0-183.0","go-nogo","true","0","","true","<div class = centerbox><div  id = stim2></div></div>","32","32","750","","test","go","183","adv","","",""
"","256","32","1474","0","test_block","poldrack-single-stim","198","301052","0.0-5.0-184.0","go-nogo","true","0","","true","<div class = centerbox><div  id = stim2></div></div>","32","32","750","","test","go","184","adv","","",""
"","349","32","1457","0","test_block","poldrack-single-stim","199","302544","0.0-5.0-185.0","go-nogo","true","0","","true","<div class = centerbox><div  id = stim2></div></div>","32","32","750","","test","go","185","adv","","",""
"","263","32","1046","0","test_block","poldrack-single-stim","200","303624","0.0-5.0-186.0","go-nogo","true","0","","false","<div class = centerbox><div  id = stim1></div></div>","-1","32","750","","test","nogo","186","adv","","",""
"","462","32","1264","0","test_block","poldrack-single-stim","201","304921","0.0-5.0-187.0","go-nogo","true","0","","true","<div class = centerbox><div  id = stim2></div></div>","32","32","750","","test","go","187","adv","","",""
"","551","32","1226","0","test_block","poldrack-single-stim","202","306181","0.0-5.0-188.0","go-nogo","true","0","","true","<div class = centerbox><div  id = stim2></div></div>","32","32","750","","test","go","188","adv","","",""
"","-1","-1","1457","0","test_block","poldrack-single-stim","203","307675","0.0-5.0-189.0","go-nogo","true","0","","true","<div class = centerbox><div  id = stim1></div></div>","-1","32","750","","test","nogo","189","adv","","",""
"","316","32","1102","0","test_block","poldrack-single-stim","204","308808","0.0-5.0-190.0","go-nogo","true","0","","true","<div class = centerbox><div  id = stim2></div></div>","32","32","750","","test","go","190","adv","","",""
"","277","32","1428","0","test_block","poldrack-single-stim","205","310270","0.0-5.0-191.0","go-nogo","true","0","","true","<div class = centerbox><div  id = stim2></div></div>","32","32","750","","test","go","191","adv","","",""
"","251","32","1142","0","test_block","poldrack-single-stim","206","311446","0.0-5.0-192.0","go-nogo","true","0","","true","<div class = centerbox><div  id = stim2></div></div>","32","32","750","","test","go","192","adv","","",""
"","-1","-1","1258","0","test_block","poldrack-single-stim","207","312740","0.0-5.0-193.0","go-nogo","true","0","","true","<div class = centerbox><div  id = stim1></div></div>","-1","32","750","","test","nogo","193","adv","","",""
"","322","32","1011","0","test_block","poldrack-single-stim","208","313783","0.0-5.0-194.0","go-nogo","true","0","","true","<div class = centerbox><div  id = stim2></div></div>","32","32","750","","test","go","194","adv","","",""
"","292","32","1279","0","test_block","poldrack-single-stim","209","315099","0.0-5.0-195.0","go-nogo","true","0","","true","<div class = centerbox><div  id = stim2></div></div>","32","32","750","","test","go","195","adv","","",""
"","273","32","1434","0","test_block","poldrack-single-stim","210","316568","0.0-5.0-196.0","go-nogo","true","0","","true","<div class = centerbox><div  id = stim2></div></div>","32","32","750","","test","go","196","adv","","",""
"","332","32","1219","0","test_block","poldrack-single-stim","211","317821","0.0-5.0-197.0","go-nogo","true","0","","true","<div class = centerbox><div  id = stim2></div></div>","32","32","750","","test","go","197","adv","","",""
"","274","32","1095","0","test_block","poldrack-single-stim","212","318950","0.0-5.0-198.0","go-nogo","true","0","","true","<div class = centerbox><div  id = stim2></div></div>","32","32","750","","test","go","198","adv","","",""
"","310","32","1454","0","test_block","poldrack-single-stim","213","320436","0.0-5.0-199.0","go-nogo","true","0","","true","<div class = centerbox><div  id = stim2></div></div>","32","32","750","","test","go","199","adv","","",""
"","349","32","1472","0","test_block","poldrack-single-stim","214","321941","0.0-5.0-200.0","go-nogo","true","0","","true","<div class = centerbox><div  id = stim2></div></div>","32","32","750","","test","go","200","adv","","",""
"","337","32","1101","0","test_block","poldrack-single-stim","215","323078","0.0-5.0-201.0","go-nogo","true","0","","true","<div class = centerbox><div  id = stim2></div></div>","32","32","750","","test","go","201","adv","","",""
"","-1","-1","1122","0","test_block","poldrack-single-stim","216","324235","0.0-5.0-202.0","go-nogo","true","0","","true","<div class = centerbox><div  id = stim1></div></div>","-1","32","750","","test","nogo","202","adv","","",""
"","375","32","1211","0","test_block","poldrack-single-stim","217","325476","0.0-5.0-203.0","go-nogo","true","0","","true","<div class = centerbox><div  id = stim2></div></div>","32","32","750","","test","go","203","adv","","",""
"","254","32","1195","0","test_block","poldrack-single-stim","218","326703","0.0-5.0-204.0","go-nogo","true","0","","true","<div class = centerbox><div  id = stim2></div></div>","32","32","750","","test","go","204","adv","","",""
"","271","32","1100","0","test_block","poldrack-single-stim","219","327838","0.0-5.0-205.0","go-nogo","true","0","","true","<div class = centerbox><div  id = stim2></div></div>","32","32","750","","test","go","205","adv","","",""
"","253","32","1216","0","test_block","poldrack-single-stim","220","329092","0.0-5.0-206.0","go-nogo","true","0","","true","<div class = centerbox><div  id = stim2></div></div>","32","32","750","","test","go","206","adv","","",""
"","302","32","1170","0","test_block","poldrack-single-stim","221","330293","0.0-5.0-207.0","go-nogo","true","0","","true","<div class = centerbox><div  id = stim2></div></div>","32","32","750","","test","go","207","adv","","",""
"","318","32","1135","0","test_block","poldrack-single-stim","222","331462","0.0-5.0-208.0","go-nogo","true","0","","true","<div class = centerbox><div  id = stim2></div></div>","32","32","750","","test","go","208","adv","","",""
"","277","32","1028","0","test_block","poldrack-single-stim","223","332522","0.0-5.0-209.0","go-nogo","true","0","","true","<div class = centerbox><div  id = stim2></div></div>","32","32","750","","test","go","209","adv","","",""
"","404","32","1032","0","test_block","poldrack-single-stim","224","333584","0.0-5.0-210.0","go-nogo","true","0","","true","<div class = centerbox><div  id = stim2></div></div>","32","32","750","","test","go","210","adv","","",""
"","374","32","1203","0","test_block","poldrack-single-stim","225","334820","0.0-5.0-211.0","go-nogo","true","0","","true","<div class = centerbox><div  id = stim2></div></div>","32","32","750","","test","go","211","adv","","",""
"","245","32","1309","0","test_block","poldrack-single-stim","226","336161","0.0-5.0-212.0","go-nogo","true","0","","true","<div class = centerbox><div  id = stim2></div></div>","32","32","750","","test","go","212","adv","","",""
"","-1","-1","1363","0","test_block","poldrack-single-stim","227","337559","0.0-5.0-213.0","go-nogo","true","0","","true","<div class = centerbox><div  id = stim1></div></div>","-1","32","750","","test","nogo","213","adv","","",""
"","274","32","1075","0","test_block","poldrack-single-stim","228","338665","0.0-5.0-214.0","go-nogo","true","0","","true","<div class = centerbox><div  id = stim2></div></div>","32","32","750","","test","go","214","adv","","",""
"","254","32","1049","0","test_block","poldrack-single-stim","229","339747","0.0-5.0-215.0","go-nogo","true","0","","true","<div class = centerbox><div  id = stim2></div></div>","32","32","750","","test","go","215","adv","","",""
"","269","32","1230","0","test_block","poldrack-single-stim","230","341008","0.0-5.0-216.0","go-nogo","true","0","","true","<div class = centerbox><div  id = stim2></div></div>","32","32","750","","test","go","216","adv","","",""
"","227","32","1014","0","test_block","poldrack-single-stim","231","342060","0.0-5.0-217.0","go-nogo","true","0","","true","<div class = centerbox><div  id = stim2></div></div>","32","32","750","","test","go","217","adv","","",""
"","265","32","1452","0","test_block","poldrack-single-stim","232","343545","0.0-5.0-218.0","go-nogo","true","0","","true","<div class = centerbox><div  id = stim2></div></div>","32","32","750","","test","go","218","adv","","",""
"","264","32","1368","0","test_block","poldrack-single-stim","233","344946","0.0-5.0-219.0","go-nogo","true","0","","true","<div class = centerbox><div  id = stim2></div></div>","32","32","750","","test","go","219","adv","","",""
"","247","32","1379","0","test_block","poldrack-single-stim","234","346364","0.0-5.0-220.0","go-nogo","true","0","","true","<div class = centerbox><div  id = stim2></div></div>","32","32","750","","test","go","220","adv","","",""
"","282","32","1342","0","test_block","poldrack-single-stim","235","347742","0.0-5.0-221.0","go-nogo","true","0","","true","<div class = centerbox><div  id = stim2></div></div>","32","32","750","","test","go","221","adv","","",""
"","247","32","1461","0","test_block","poldrack-single-stim","236","349236","0.0-5.0-222.0","go-nogo","true","0","","true","<div class = centerbox><div  id = stim2></div></div>","32","32","750","","test","go","222","adv","","",""
"","356","32","1138","0","test_block","poldrack-single-stim","237","350411","0.0-5.0-223.0","go-nogo","true","0","","true","<div class = centerbox><div  id = stim2></div></div>","32","32","750","","test","go","223","adv","","",""
"","-1","-1","1284","0","test_block","poldrack-single-stim","238","351733","0.0-5.0-224.0","go-nogo","true","0","","true","<div class = centerbox><div  id = stim1></div></div>","-1","32","750","","test","nogo","224","adv","","",""
"","299","32","1439","0","test_block","poldrack-single-stim","239","353208","0.0-5.0-225.0","go-nogo","true","0","","true","<div class = centerbox><div  id = stim2></div></div>","32","32","750","","test","go","225","adv","","",""
"","234","32","1053","0","test_block","poldrack-single-stim","240","354294","0.0-5.0-226.0","go-nogo","true","0","","true","<div class = centerbox><div  id = stim2></div></div>","32","32","750","","test","go","226","adv","","",""
"","245","32","1381","0","test_block","poldrack-single-stim","241","355710","0.0-5.0-227.0","go-nogo","true","0","","true","<div class = centerbox><div  id = stim2></div></div>","32","32","750","","test","go","227","adv","","",""
"","309","32","1189","0","test_block","poldrack-single-stim","242","356933","0.0-5.0-228.0","go-nogo","true","0","","true","<div class = centerbox><div  id = stim2></div></div>","32","32","750","","test","go","228","adv","","",""
"","261","32","1267","0","test_block","poldrack-single-stim","243","358237","0.0-5.0-229.0","go-nogo","true","0","","true","<div class = centerbox><div  id = stim2></div></div>","32","32","750","","test","go","229","adv","","",""
"","246","32","1354","0","test_block","poldrack-single-stim","244","359625","0.0-5.0-230.0","go-nogo","true","0","","true","<div class = centerbox><div  id = stim2></div></div>","32","32","750","","test","go","230","adv","","",""
"","249","32","1229","0","test_block","poldrack-single-stim","245","360891","0.0-5.0-231.0","go-nogo","true","0","","true","<div class = centerbox><div  id = stim2></div></div>","32","32","750","","test","go","231","adv","","",""
"","316","32","1087","0","test_block","poldrack-single-stim","246","362013","0.0-5.0-232.0","go-nogo","true","0","","true","<div class = centerbox><div  id = stim2></div></div>","32","32","750","","test","go","232","adv","","",""
"","252","32","1277","0","test_block","poldrack-single-stim","247","363327","0.0-5.0-233.0","go-nogo","true","0","","true","<div class = centerbox><div  id = stim2></div></div>","32","32","750","","test","go","233","adv","","",""
"","259","32","1315","0","test_block","poldrack-single-stim","248","364677","0.0-5.0-234.0","go-nogo","true","0","","true","<div class = centerbox><div  id = stim2></div></div>","32","32","750","","test","go","234","adv","","",""
"","-1","-1","1367","0","test_block","poldrack-single-stim","249","366084","0.0-5.0-235.0","go-nogo","true","0","","true","<div class = centerbox><div  id = stim1></div></div>","-1","32","750","","test","nogo","235","adv","","",""
"","282","32","1244","0","test_block","poldrack-single-stim","250","367362","0.0-5.0-236.0","go-nogo","true","0","","true","<div class = centerbox><div  id = stim2></div></div>","32","32","750","","test","go","236","adv","","",""
"","252","32","1369","0","test_block","poldrack-single-stim","251","368768","0.0-5.0-237.0","go-nogo","true","0","","true","<div class = centerbox><div  id = stim2></div></div>","32","32","750","","test","go","237","adv","","",""
"","250","32","1380","0","test_block","poldrack-single-stim","252","370182","0.0-5.0-238.0","go-nogo","true","0","","true","<div class = centerbox><div  id = stim2></div></div>","32","32","750","","test","go","238","adv","","",""
"","239","32","1216","0","test_block","poldrack-single-stim","253","371428","0.0-5.0-239.0","go-nogo","true","0","","true","<div class = centerbox><div  id = stim2></div></div>","32","32","750","","test","go","239","adv","","",""
"","257","32","1393","0","test_block","poldrack-single-stim","254","372856","0.0-5.0-240.0","go-nogo","true","0","","true","<div class = centerbox><div  id = stim2></div></div>","32","32","750","","test","go","240","adv","","",""
"","261","32","1166","0","test_block","poldrack-single-stim","255","374057","0.0-5.0-241.0","go-nogo","true","0","","true","<div class = centerbox><div  id = stim2></div></div>","32","32","750","","test","go","241","adv","","",""
"","364","32","1050","0","test_block","poldrack-single-stim","256","375142","0.0-5.0-242.0","go-nogo","true","0","","true","<div class = centerbox><div  id = stim2></div></div>","32","32","750","","test","go","242","adv","","",""
"","265","32","1335","0","test_block","poldrack-single-stim","257","376513","0.0-5.0-243.0","go-nogo","true","0","","true","<div class = centerbox><div  id = stim2></div></div>","32","32","750","","test","go","243","adv","","",""
"","214","32","1135","0","test_block","poldrack-single-stim","258","377678","0.0-5.0-244.0","go-nogo","true","0","","true","<div class = centerbox><div  id = stim2></div></div>","32","32","750","","test","go","244","adv","","",""
"","295","32","1255","0","test_block","poldrack-single-stim","259","378966","0.0-5.0-245.0","go-nogo","true","0","","true","<div class = centerbox><div  id = stim2></div></div>","32","32","750","","test","go","245","adv","","",""
"","485","32","1360","0","test_block","poldrack-single-stim","260","380360","0.0-5.0-246.0","go-nogo","true","0","","true","<div class = centerbox><div  id = stim2></div></div>","32","32","750","","test","go","246","adv","","",""
"","267","32","1163","0","test_block","poldrack-single-stim","261","381556","0.0-5.0-247.0","go-nogo","true","0","","true","<div class = centerbox><div  id = stim2></div></div>","32","32","750","","test","go","247","adv","","",""
"","231","32","1137","0","test_block","poldrack-single-stim","262","382725","0.0-5.0-248.0","go-nogo","true","0","","true","<div class = centerbox><div  id = stim2></div></div>","32","32","750","","test","go","248","adv","","",""
"","-1","-1","1060","0","test_block","poldrack-single-stim","263","383820","0.0-5.0-249.0","go-nogo","true","0","","true","<div class = centerbox><div  id = stim1></div></div>","-1","32","750","","test","nogo","249","adv","","",""
"","269","32","1121","0","test_block","poldrack-single-stim","264","384979","0.0-5.0-250.0","go-nogo","true","0","","true","<div class = centerbox><div  id = stim2></div></div>","32","32","750","","test","go","250","adv","","",""
"","269","32","1369","0","test_block","poldrack-single-stim","265","386382","0.0-5.0-251.0","go-nogo","true","0","","true","<div class = centerbox><div  id = stim2></div></div>","32","32","750","","test","go","251","adv","","",""
"","97","32","1367","0","test_block","poldrack-single-stim","266","387782","0.0-5.0-252.0","go-nogo","true","0","","true","<div class = centerbox><div  id = stim2></div></div>","32","32","750","","test","go","252","adv","","",""
"","251","32","1275","0","test_block","poldrack-single-stim","267","389091","0.0-5.0-253.0","go-nogo","true","0","","true","<div class = centerbox><div  id = stim2></div></div>","32","32","750","","test","go","253","adv","","",""
"","430","32","1156","0","test_block","poldrack-single-stim","268","390285","0.0-5.0-254.0","go-nogo","true","0","","true","<div class = centerbox><div  id = stim2></div></div>","32","32","750","","test","go","254","adv","","",""
"","320","32","1170","0","test_block","poldrack-single-stim","269","391489","0.0-5.0-255.0","go-nogo","true","0","","true","<div class = centerbox><div  id = stim2></div></div>","32","32","750","","test","go","255","adv","","",""
"","273","32","1444","0","test_block","poldrack-single-stim","270","392966","0.0-5.0-256.0","go-nogo","true","0","","true","<div class = centerbox><div  id = stim2></div></div>","32","32","750","","test","go","256","adv","","",""
"","267","32","1390","0","test_block","poldrack-single-stim","271","394398","0.0-5.0-257.0","go-nogo","true","0","","true","<div class = centerbox><div  id = stim2></div></div>","32","32","750","","test","go","257","adv","","",""
"","309","32","1304","0","test_block","poldrack-single-stim","272","395740","0.0-5.0-258.0","go-nogo","true","0","","true","<div class = centerbox><div  id = stim2></div></div>","32","32","750","","test","go","258","adv","","",""
"","301","32","1371","0","test_block","poldrack-single-stim","273","397147","0.0-5.0-259.0","go-nogo","true","0","","true","<div class = centerbox><div  id = stim2></div></div>","32","32","750","","test","go","259","adv","","",""
"","258","32","1136","0","test_block","poldrack-single-stim","274","398318","0.0-5.0-260.0","go-nogo","true","0","","true","<div class = centerbox><div  id = stim2></div></div>","32","32","750","","test","go","260","adv","","",""
"","354","32","1100","0","test_block","poldrack-single-stim","275","399455","0.0-5.0-261.0","go-nogo","true","0","","true","<div class = centerbox><div  id = stim2></div></div>","32","32","750","","test","go","261","adv","","",""
"","270","32","1376","0","test_block","poldrack-single-stim","276","400864","0.0-5.0-262.0","go-nogo","true","0","","true","<div class = centerbox><div  id = stim2></div></div>","32","32","750","","test","go","262","adv","","",""
"","-1","-1","1245","0","test_block","poldrack-single-stim","277","402144","0.0-5.0-263.0","go-nogo","true","0","","true","<div class = centerbox><div  id = stim1></div></div>","-1","32","750","","test","nogo","263","adv","","",""
"","261","32","1095","0","test_block","poldrack-single-stim","278","403276","0.0-5.0-264.0","go-nogo","true","0","","true","<div class = centerbox><div  id = stim2></div></div>","32","32","750","","test","go","264","adv","","",""
"","233","32","1409","0","test_block","poldrack-single-stim","279","404714","0.0-5.0-265.0","go-nogo","true","0","","true","<div class = centerbox><div  id = stim2></div></div>","32","32","750","","test","go","265","adv","","",""
"","235","32","1454","0","test_block","poldrack-single-stim","280","406204","0.0-5.0-266.0","go-nogo","true","0","","true","<div class = centerbox><div  id = stim2></div></div>","32","32","750","","test","go","266","adv","","",""
"","241","32","1139","0","test_block","poldrack-single-stim","281","407377","0.0-5.0-267.0","go-nogo","true","0","","true","<div class = centerbox><div  id = stim2></div></div>","32","32","750","","test","go","267","adv","","",""
"","252","32","1447","0","test_block","poldrack-single-stim","282","408859","0.0-5.0-268.0","go-nogo","true","0","","true","<div class = centerbox><div  id = stim2></div></div>","32","32","750","","test","go","268","adv","","",""
"","350","32","1357","0","test_block","poldrack-single-stim","283","410250","0.0-5.0-269.0","go-nogo","true","0","","true","<div class = centerbox><div  id = stim2></div></div>","32","32","750","","test","go","269","adv","","",""
"","266","32","1499","0","test_block","poldrack-single-stim","284","411782","0.0-5.0-270.0","go-nogo","true","0","","true","<div class = centerbox><div  id = stim2></div></div>","32","32","750","","test","go","270","adv","","",""
"","265","32","1023","0","test_block","poldrack-single-stim","285","412837","0.0-5.0-271.0","go-nogo","true","0","","true","<div class = centerbox><div  id = stim2></div></div>","32","32","750","","test","go","271","adv","","",""
"","261","32","1265","0","test_block","poldrack-single-stim","286","414140","0.0-5.0-272.0","go-nogo","true","0","","true","<div class = centerbox><div  id = stim2></div></div>","32","32","750","","test","go","272","adv","","",""
"","252","32","1163","0","test_block","poldrack-single-stim","287","415338","0.0-5.0-273.0","go-nogo","true","0","","true","<div class = centerbox><div  id = stim2></div></div>","32","32","750","","test","go","273","adv","","",""
"","258","32","1407","0","test_block","poldrack-single-stim","288","416775","0.0-5.0-274.0","go-nogo","true","0","","true","<div class = centerbox><div  id = stim2></div></div>","32","32","750","","test","go","274","adv","","",""
"","295","32","1030","0","test_block","poldrack-single-stim","289","417837","0.0-5.0-275.0","go-nogo","true","0","","true","<div class = centerbox><div  id = stim2></div></div>","32","32","750","","test","go","275","adv","","",""
"","323","32","1289","0","test_block","poldrack-single-stim","290","419160","0.0-5.0-276.0","go-nogo","true","0","","true","<div class = centerbox><div  id = stim2></div></div>","32","32","750","","test","go","276","adv","","",""
"","274","32","1145","0","test_block","poldrack-single-stim","291","420335","0.0-5.0-277.0","go-nogo","true","0","","true","<div class = centerbox><div  id = stim2></div></div>","32","32","750","","test","go","277","adv","","",""
"","243","32","1372","0","test_block","poldrack-single-stim","292","421743","0.0-5.0-278.0","go-nogo","true","0","","true","<div class = centerbox><div  id = stim2></div></div>","32","32","750","","test","go","278","adv","","",""
"","-1","-1","1153","0","test_block","poldrack-single-stim","293","422934","0.0-5.0-279.0","go-nogo","true","0","","true","<div class = centerbox><div  id = stim1></div></div>","-1","32","750","","test","nogo","279","adv","","",""
"","281","32","1489","0","test_block","poldrack-single-stim","294","424455","0.0-5.0-280.0","go-nogo","true","0","","true","<div class = centerbox><div  id = stim2></div></div>","32","32","750","","test","go","280","adv","","",""
"","215","32","1270","0","test_block","poldrack-single-stim","295","425765","0.0-5.0-281.0","go-nogo","true","0","","true","<div class = centerbox><div  id = stim2></div></div>","32","32","750","","test","go","281","adv","","",""
"","385","32","1492","0","test_block","poldrack-single-stim","296","427290","0.0-5.0-282.0","go-nogo","true","0","","true","<div class = centerbox><div  id = stim2></div></div>","32","32","750","","test","go","282","adv","","",""
"","228","32","1226","0","test_block","poldrack-single-stim","297","428551","0.0-5.0-283.0","go-nogo","true","0","","true","<div class = centerbox><div  id = stim2></div></div>","32","32","750","","test","go","283","adv","","",""
"","274","32","1256","0","test_block","poldrack-single-stim","298","429846","0.0-5.0-284.0","go-nogo","true","0","","true","<div class = centerbox><div  id = stim2></div></div>","32","32","750","","test","go","284","adv","","",""
"","215","32","1238","0","test_block","poldrack-single-stim","299","431121","0.0-5.0-285.0","go-nogo","true","0","","true","<div class = centerbox><div  id = stim2></div></div>","32","32","750","","test","go","285","adv","","",""
"","236","32","1151","0","test_block","poldrack-single-stim","300","432305","0.0-5.0-286.0","go-nogo","true","0","","true","<div class = centerbox><div  id = stim2></div></div>","32","32","750","","test","go","286","adv","","",""
"","246","32","1454","0","test_block","poldrack-single-stim","301","433792","0.0-5.0-287.0","go-nogo","true","0","","true","<div class = centerbox><div  id = stim2></div></div>","32","32","750","","test","go","287","adv","","",""
"","248","32","1215","0","test_block","poldrack-single-stim","302","435043","0.0-5.0-288.0","go-nogo","true","0","","true","<div class = centerbox><div  id = stim2></div></div>","32","32","750","","test","go","288","adv","","",""
"","238","32","1268","0","test_block","poldrack-single-stim","303","436342","0.0-5.0-289.0","go-nogo","true","0","","true","<div class = centerbox><div  id = stim2></div></div>","32","32","750","","test","go","289","adv","","",""
"","270","32","1057","0","test_block","poldrack-single-stim","304","437430","0.0-5.0-290.0","go-nogo","true","0","","true","<div class = centerbox><div  id = stim2></div></div>","32","32","750","","test","go","290","adv","","",""
"","304","32","1217","0","test_block","poldrack-single-stim","305","438680","0.0-5.0-291.0","go-nogo","true","0","","true","<div class = centerbox><div  id = stim2></div></div>","32","32","750","","test","go","291","adv","","",""
"","205","32","1051","0","test_block","poldrack-single-stim","306","439761","0.0-5.0-292.0","go-nogo","true","0","","true","<div class = centerbox><div  id = stim2></div></div>","32","32","750","","test","go","292","adv","","",""
"","256","32","1371","0","test_block","poldrack-single-stim","307","441162","0.0-5.0-293.0","go-nogo","true","0","","true","<div class = centerbox><div  id = stim2></div></div>","32","32","750","","test","go","293","adv","","",""
"","-1","-1","1391","0","test_block","poldrack-single-stim","308","442583","0.0-5.0-294.0","go-nogo","true","0","","true","<div class = centerbox><div  id = stim1></div></div>","-1","32","750","","test","nogo","294","adv","","",""
"","205","32","1047","0","test_block","poldrack-single-stim","309","443660","0.0-5.0-295.0","go-nogo","true","0","","true","<div class = centerbox><div  id = stim2></div></div>","32","32","750","","test","go","295","adv","","",""
"","306","32","1351","0","test_block","poldrack-single-stim","310","445042","0.0-5.0-296.0","go-nogo","true","0","","true","<div class = centerbox><div  id = stim2></div></div>","32","32","750","","test","go","296","adv","","",""
"","243","32","1121","0","test_block","poldrack-single-stim","311","446195","0.0-5.0-297.0","go-nogo","true","0","","true","<div class = centerbox><div  id = stim2></div></div>","32","32","750","","test","go","297","adv","","",""
"","351","32","1247","0","test_block","poldrack-single-stim","312","447469","0.0-5.0-298.0","go-nogo","true","0","","true","<div class = centerbox><div  id = stim2></div></div>","32","32","750","","test","go","298","adv","","",""
"","379","32","1400","0","test_block","poldrack-single-stim","313","448900","0.0-5.0-299.0","go-nogo","true","0","","true","<div class = centerbox><div  id = stim2></div></div>","32","32","750","","test","go","299","adv","","",""
"","268","32","1479","0","test_block","poldrack-single-stim","314","450413","0.0-5.0-300.0","go-nogo","true","0","","true","<div class = centerbox><div  id = stim2></div></div>","32","32","750","","test","go","300","adv","","",""
"","326","32","1400","0","test_block","poldrack-single-stim","315","451843","0.0-5.0-301.0","go-nogo","true","0","","true","<div class = centerbox><div  id = stim2></div></div>","32","32","750","","test","go","301","adv","","",""
"","259","32","1261","0","test_block","poldrack-single-stim","316","453137","0.0-5.0-302.0","go-nogo","true","0","","true","<div class = centerbox><div  id = stim2></div></div>","32","32","750","","test","go","302","adv","","",""
"","238","32","1414","0","test_block","poldrack-single-stim","317","454584","0.0-5.0-303.0","go-nogo","true","0","","true","<div class = centerbox><div  id = stim2></div></div>","32","32","750","","test","go","303","adv","","",""
"","283","32","1416","0","test_block","poldrack-single-stim","318","456032","0.0-5.0-304.0","go-nogo","true","0","","true","<div class = centerbox><div  id = stim2></div></div>","32","32","750","","test","go","304","adv","","",""
"","312","32","1475","0","test_block","poldrack-single-stim","319","457535","0.0-5.0-305.0","go-nogo","true","0","","true","<div class = centerbox><div  id = stim2></div></div>","32","32","750","","test","go","305","adv","","",""
"","258","32","1306","0","test_block","poldrack-single-stim","320","458864","0.0-5.0-306.0","go-nogo","true","0","","true","<div class = centerbox><div  id = stim2></div></div>","32","32","750","","test","go","306","adv","","",""
"","250","32","1227","0","test_block","poldrack-single-stim","321","460125","0.0-5.0-307.0","go-nogo","true","0","","true","<div class = centerbox><div  id = stim2></div></div>","32","32","750","","test","go","307","adv","","",""
"","375","32","1181","0","test_block","poldrack-single-stim","322","461340","0.0-5.0-308.0","go-nogo","true","0","","true","<div class = centerbox><div  id = stim2></div></div>","32","32","750","","test","go","308","adv","","",""
"","338","32","1266","0","test_block","poldrack-single-stim","323","462639","0.0-5.0-309.0","go-nogo","true","0","","true","<div class = centerbox><div  id = stim2></div></div>","32","32","750","","test","go","309","adv","","",""
"","316","32","1473","0","test_block","poldrack-single-stim","324","464151","0.0-5.0-310.0","go-nogo","true","0","","true","<div class = centerbox><div  id = stim2></div></div>","32","32","750","","test","go","310","adv","","",""
"","257","32","1090","0","test_block","poldrack-single-stim","325","465276","0.0-5.0-311.0","go-nogo","true","0","","true","<div class = centerbox><div  id = stim2></div></div>","32","32","750","","test","go","311","adv","","",""
"","-1","-1","1381","0","test_block","poldrack-single-stim","326","466691","0.0-5.0-312.0","go-nogo","true","0","","true","<div class = centerbox><div  id = stim1></div></div>","-1","32","750","","test","nogo","312","adv","","",""
"","261","32","1210","0","test_block","poldrack-single-stim","327","467927","0.0-5.0-313.0","go-nogo","true","0","","true","<div class = centerbox><div  id = stim2></div></div>","32","32","750","","test","go","313","adv","","",""
"","275","32","1353","0","test_block","poldrack-single-stim","328","469312","0.0-5.0-314.0","go-nogo","true","0","","true","<div class = centerbox><div  id = stim2></div></div>","32","32","750","","test","go","314","adv","","",""
"","272","32","1119","0","test_block","poldrack-single-stim","329","470468","0.0-5.0-315.0","go-nogo","true","0","","true","<div class = centerbox><div  id = stim2></div></div>","32","32","750","","test","go","315","adv","","",""
"","386","32","1256","0","test_block","poldrack-single-stim","330","471758","0.0-5.0-316.0","go-nogo","true","0","","true","<div class = centerbox><div  id = stim2></div></div>","32","32","750","","test","go","316","adv","","",""
"","351","32","1393","0","test_block","poldrack-single-stim","331","473181","0.0-5.0-317.0","go-nogo","true","0","","true","<div class = centerbox><div  id = stim2></div></div>","32","32","750","","test","go","317","adv","","",""
"","298","32","1271","0","test_block","poldrack-single-stim","332","474485","0.0-5.0-318.0","go-nogo","true","0","","true","<div class = centerbox><div  id = stim2></div></div>","32","32","750","","test","go","318","adv","","",""
"","368","32","1090","0","test_block","poldrack-single-stim","333","475606","0.0-5.0-319.0","go-nogo","true","0","","true","<div class = centerbox><div  id = stim2></div></div>","32","32","750","","test","go","319","adv","","",""
"","936","32","1328","0","test_block","poldrack-single-stim","334","476963","0.0-5.0-320.0","go-nogo","true","0","","true","<div class = centerbox><div  id = stim2></div></div>","32","32","750","","test","go","320","adv","","",""
"","254","32","1376","0","test_block","poldrack-single-stim","335","478372","0.0-5.0-321.0","go-nogo","true","0","","true","<div class = centerbox><div  id = stim2></div></div>","32","32","750","","test","go","321","adv","","",""
"","408","32","1470","0","test_block","poldrack-single-stim","336","479877","0.0-5.0-322.0","go-nogo","true","0","","true","<div class = centerbox><div  id = stim2></div></div>","32","32","750","","test","go","322","adv","","",""
"","284","32","1415","0","test_block","poldrack-single-stim","337","481324","0.0-5.0-323.0","go-nogo","true","0","","true","<div class = centerbox><div  id = stim2></div></div>","32","32","750","","test","go","323","adv","","",""
"","249","32","1390","0","test_block","poldrack-single-stim","338","482749","0.0-5.0-324.0","go-nogo","true","0","","true","<div class = centerbox><div  id = stim2></div></div>","32","32","750","","test","go","324","adv","","",""
"","248","32","1445","0","test_block","poldrack-single-stim","339","484227","0.0-5.0-325.0","go-nogo","true","0","","true","<div class = centerbox><div  id = stim2></div></div>","32","32","750","","test","go","325","adv","","",""
"","229","32","1290","0","test_block","poldrack-single-stim","340","485547","0.0-5.0-326.0","go-nogo","true","0","","true","<div class = centerbox><div  id = stim2></div></div>","32","32","750","","test","go","326","adv","","",""
"","248","32","1011","0","test_block","poldrack-single-stim","341","486589","0.0-5.0-327.0","go-nogo","true","0","","true","<div class = centerbox><div  id = stim2></div></div>","32","32","750","","test","go","327","adv","","",""
"","338","32","1155","0","test_block","poldrack-single-stim","342","487778","0.0-5.0-328.0","go-nogo","true","0","","true","<div class = centerbox><div  id = stim2></div></div>","32","32","750","","test","go","328","adv","","",""
"","316","32","1113","0","test_block","poldrack-single-stim","343","488928","0.0-5.0-329.0","go-nogo","true","0","","true","<div class = centerbox><div  id = stim2></div></div>","32","32","750","","test","go","329","adv","","",""
"","302","32","1039","0","test_block","poldrack-single-stim","344","490000","0.0-5.0-330.0","go-nogo","true","0","","true","<div class = centerbox><div  id = stim2></div></div>","32","32","750","","test","go","330","adv","","",""
"","284","32","1408","0","test_block","poldrack-single-stim","345","491438","0.0-5.0-331.0","go-nogo","true","0","","true","<div class = centerbox><div  id = stim2></div></div>","32","32","750","","test","go","331","adv","","",""
"","274","32","1318","0","test_block","poldrack-single-stim","346","492791","0.0-5.0-332.0","go-nogo","true","0","","true","<div class = centerbox><div  id = stim2></div></div>","32","32","750","","test","go","332","adv","","",""
"","401","32","1410","0","test_block","poldrack-single-stim","347","494235","0.0-5.0-333.0","go-nogo","true","0","","true","<div class = centerbox><div  id = stim2></div></div>","32","32","750","","test","go","333","adv","","",""
"","254","32","1479","0","test_block","poldrack-single-stim","348","495745","0.0-5.0-334.0","go-nogo","true","0","","false","<div class = centerbox><div  id = stim1></div></div>","-1","32","750","","test","nogo","334","adv","","",""
"","-1","-1","1491","0","test_block","poldrack-single-stim","349","497269","0.0-5.0-335.0","go-nogo","true","0","","true","<div class = centerbox><div  id = stim1></div></div>","-1","32","750","","test","nogo","335","adv","","",""
"","-1","-1","1074","0","test_block","poldrack-single-stim","350","498378","0.0-5.0-336.0","go-nogo","true","0","","true","<div class = centerbox><div  id = stim1></div></div>","-1","32","750","","test","nogo","336","adv","","",""
"","-1","-1","1362","0","test_block","poldrack-single-stim","351","499775","0.0-5.0-337.0","go-nogo","true","0","","true","<div class = centerbox><div  id = stim1></div></div>","-1","32","750","","test","nogo","337","adv","","",""
"","-1","-1","1223","0","test_block","poldrack-single-stim","352","501040","0.0-5.0-338.0","go-nogo","true","0","","true","<div class = centerbox><div  id = stim1></div></div>","-1","32","750","","test","nogo","338","adv","","",""
"","-1","-1","1011","0","test_block","poldrack-single-stim","353","502084","0.0-5.0-339.0","go-nogo","true","0","","true","<div class = centerbox><div  id = stim1></div></div>","-1","32","750","","test","nogo","339","adv","","",""
"","-1","-1","1169","0","test_block","poldrack-single-stim","354","503285","0.0-5.0-340.0","go-nogo","true","0","","true","<div class = centerbox><div  id = stim1></div></div>","-1","32","750","","test","nogo","340","adv","","",""
"","-1","-1","1269","0","test_block","poldrack-single-stim","355","504593","0.0-5.0-341.0","go-nogo","true","0","","true","<div class = centerbox><div  id = stim1></div></div>","-1","32","750","","test","nogo","341","adv","","",""
"","-1","-1","1253","0","test_block","poldrack-single-stim","356","505878","0.0-5.0-342.0","go-nogo","true","0","","true","<div class = centerbox><div  id = stim1></div></div>","-1","32","750","","test","nogo","342","adv","","",""
"","-1","-1","1427","0","test_block","poldrack-single-stim","357","507337","0.0-5.0-343.0","go-nogo","true","0","","true","<div class = centerbox><div  id = stim1></div></div>","-1","32","750","","test","nogo","343","adv","","",""
"","-1","-1","1439","0","test_block","poldrack-single-stim","358","508812","0.0-5.0-344.0","go-nogo","true","0","","true","<div class = centerbox><div  id = stim1></div></div>","-1","32","750","","test","nogo","344","adv","","",""
"","-1","-1","1437","0","test_block","poldrack-single-stim","359","510284","0.0-5.0-345.0","go-nogo","true","0","","true","<div class = centerbox><div  id = stim1></div></div>","-1","32","750","","test","nogo","345","adv","","",""
"","-1","-1","1485","0","test_block","poldrack-single-stim","360","511803","0.0-5.0-346.0","go-nogo","true","0","","true","<div class = centerbox><div  id = stim1></div></div>","-1","32","750","","test","nogo","346","adv","","",""
"","-1","-1","1127","0","test_block","poldrack-single-stim","361","512963","0.0-5.0-347.0","go-nogo","true","0","","true","<div class = centerbox><div  id = stim1></div></div>","-1","32","750","","test","nogo","347","adv","","",""
"","-1","-1","1161","0","test_block","poldrack-single-stim","362","514157","0.0-5.0-348.0","go-nogo","true","0","","true","<div class = centerbox><div  id = stim1></div></div>","-1","32","750","","test","nogo","348","adv","","",""
"","-1","-1","1398","0","test_block","poldrack-single-stim","363","515591","0.0-5.0-349.0","go-nogo","true","0","","true","<div class = centerbox><div  id = stim1></div></div>","-1","32","750","","test","nogo","349","adv","","",""
"","48469","","","","post task questions","survey-text","364","564100","0.0-7.0","go-nogo","true","0","","","","","","","","","","","","{""Q0"":""I was asked to press space bar when blue square comes up and not to press when orange square comes up."",""Q1"":""No.""}","",""
"<div class = centerbox><p class = center-block-text>Thanks for completing this task!</p><p class = center-block-text>Insert the following code to collect your payment at Amazon Mechanical Turk:</p><p class = center-block-text>77608317</p><p class = center-block-text>Press <strong>enter</strong> to continue.</p></div>","10983","13","10983","0","end","poldrack-text","365","576087","0.0-8.0","go-nogo","true","0","","","","","","","","","","","","","77608317","true"
