"text","rt","key_press","block_duration","timing_post_trial","trial_id","trial_type","trial_index","time_elapsed","internal_node_id","exp_id","full_screen","focus_shifts","view_history","correct","stimulus","correct_response","possible_responses","stim_duration","feedback_duration","exp_stage","condition","trial_num","mode","responses","payment_id","credit_var"
"<div class = centerbox><p class = center-block-text>Welcome to the experiment. This task will take around 10 minutes. Press <strong>enter</strong> to begin.</p></div>","1524","13","1524","0","instruction","poldrack-text","0","1525","0.0-0.0-0.0","go-nogo","true","1","","","","","","","","","","","","","",""
"","12951","","","","instruction","poldrack-instructions","1","14477","0.0-0.0-1.0","go-nogo","true","1","[{""page_index"":0,""viewing_time"":12951}]","","","","","","","","","","","","",""
"","-1","-1","1447","250","practice","poldrack-categorize","2","17931","0.0-1.0-0.0","go-nogo","true","0","","true","<div class = centerbox><div id = stim2></div></div>","-1","32","750","1000","practice","nogo","0","adv","","",""
"","-1","-1","1149","250","practice","poldrack-categorize","3","20335","0.0-1.0-1.0","go-nogo","true","0","","true","<div class = centerbox><div id = stim2></div></div>","-1","32","750","1000","practice","nogo","1","adv","","",""
"","-1","-1","1314","250","practice","poldrack-categorize","4","22939","0.0-1.0-2.0","go-nogo","true","1","","false","<div class = centerbox><div  id = stim1></div></div>","32","32","750","1000","practice","go","2","adv","","",""
"","487","32","1162","250","practice","poldrack-categorize","5","25356","0.0-1.0-3.0","go-nogo","true","1","","true","<div class = centerbox><div  id = stim1></div></div>","32","32","750","1000","practice","go","3","adv","","",""
"","-1","-1","1020","250","practice","poldrack-categorize","6","27631","0.0-1.0-4.0","go-nogo","true","0","","true","<div class = centerbox><div id = stim2></div></div>","-1","32","750","1000","practice","nogo","4","adv","","",""
"","-1","-1","1057","250","practice","poldrack-categorize","7","29944","0.0-1.0-5.0","go-nogo","true","0","","false","<div class = centerbox><div  id = stim1></div></div>","32","32","750","1000","practice","go","5","adv","","",""
"","-1","-1","1049","250","practice","poldrack-categorize","8","32246","0.0-1.0-6.0","go-nogo","true","1","","false","<div class = centerbox><div  id = stim1></div></div>","32","32","750","1000","practice","go","6","adv","","",""
"","-1","-1","1342","250","practice","poldrack-categorize","9","34861","0.0-1.0-7.0","go-nogo","true","0","","true","<div class = centerbox><div id = stim2></div></div>","-1","32","750","1000","practice","nogo","7","adv","","",""
"","-1","-1","1340","250","practice","poldrack-categorize","10","37456","0.0-1.0-8.0","go-nogo","true","0","","true","<div class = centerbox><div id = stim2></div></div>","-1","32","750","1000","practice","nogo","8","adv","","",""
"","417","32","1215","250","practice","poldrack-categorize","11","39924","0.0-1.0-9.0","go-nogo","true","0","","true","<div class = centerbox><div  id = stim1></div></div>","32","32","750","1000","practice","go","9","adv","","",""
"","","","","","reset_trial","call-function","12","40175","0.0-3.0","go-nogo","true","0","","","","","","","","","","","","","",""
"<div class = centerbox><p class = block-text>Practice is over, we will now begin the experiment. You will no longer get feedback about your responses.</p><p class = block-text>Remember, if you see the <font color=""orange"">orange</font> square you should <strong> respond by pressing the spacebar as quickly as possible</strong>. If you see the <font color=""blue"">blue</font> square you should <strong> not respond</strong>. Press <strong>enter</strong> to begin.</p></div>","8320","13","8320","1000","test_intro","poldrack-text","13","48497","0.0-4.0","go-nogo","false","0","","","","","","","","","","","","","",""
"","401","32","1010","0","test_block","poldrack-single-stim","14","50511","0.0-5.0-0.0","go-nogo","false","0","","true","<div class = centerbox><div  id = stim1></div></div>","32","32","750","","test","go","0","adv","","",""
"","457","32","1487","0","test_block","poldrack-single-stim","15","52037","0.0-5.0-1.0","go-nogo","false","0","","true","<div class = centerbox><div  id = stim1></div></div>","32","32","750","","test","go","1","adv","","",""
"","448","32","1030","0","test_block","poldrack-single-stim","16","53076","0.0-5.0-2.0","go-nogo","false","0","","true","<div class = centerbox><div  id = stim1></div></div>","32","32","750","","test","go","2","adv","","",""
"","364","32","1461","0","test_block","poldrack-single-stim","17","54545","0.0-5.0-3.0","go-nogo","false","0","","true","<div class = centerbox><div  id = stim1></div></div>","32","32","750","","test","go","3","adv","","",""
"","401","32","1100","0","test_block","poldrack-single-stim","18","55653","0.0-5.0-4.0","go-nogo","false","0","","true","<div class = centerbox><div  id = stim1></div></div>","32","32","750","","test","go","4","adv","","",""
"","349","32","1225","0","test_block","poldrack-single-stim","19","56888","0.0-5.0-5.0","go-nogo","false","0","","true","<div class = centerbox><div  id = stim1></div></div>","32","32","750","","test","go","5","adv","","",""
"","344","32","1479","0","test_block","poldrack-single-stim","20","58381","0.0-5.0-6.0","go-nogo","false","0","","true","<div class = centerbox><div  id = stim1></div></div>","32","32","750","","test","go","6","adv","","",""
"","406","32","1357","0","test_block","poldrack-single-stim","21","59745","0.0-5.0-7.0","go-nogo","false","0","","true","<div class = centerbox><div  id = stim1></div></div>","32","32","750","","test","go","7","adv","","",""
"","329","32","1250","0","test_block","poldrack-single-stim","22","61005","0.0-5.0-8.0","go-nogo","false","0","","true","<div class = centerbox><div  id = stim1></div></div>","32","32","750","","test","go","8","adv","","",""
"","381","32","1411","0","test_block","poldrack-single-stim","23","62425","0.0-5.0-9.0","go-nogo","false","0","","true","<div class = centerbox><div  id = stim1></div></div>","32","32","750","","test","go","9","adv","","",""
"","356","32","1279","0","test_block","poldrack-single-stim","24","63709","0.0-5.0-10.0","go-nogo","false","0","","true","<div class = centerbox><div  id = stim1></div></div>","32","32","750","","test","go","10","adv","","",""
"","384","32","1067","0","test_block","poldrack-single-stim","25","64783","0.0-5.0-11.0","go-nogo","false","0","","true","<div class = centerbox><div  id = stim1></div></div>","32","32","750","","test","go","11","adv","","",""
"","428","32","1089","0","test_block","poldrack-single-stim","26","65878","0.0-5.0-12.0","go-nogo","false","0","","true","<div class = centerbox><div  id = stim1></div></div>","32","32","750","","test","go","12","adv","","",""
"","383","32","1041","0","test_block","poldrack-single-stim","27","66929","0.0-5.0-13.0","go-nogo","false","0","","true","<div class = centerbox><div  id = stim1></div></div>","32","32","750","","test","go","13","adv","","",""
"","416","32","1009","0","test_block","poldrack-single-stim","28","67943","0.0-5.0-14.0","go-nogo","false","0","","true","<div class = centerbox><div  id = stim1></div></div>","32","32","750","","test","go","14","adv","","",""
"","348","32","1101","0","test_block","poldrack-single-stim","29","69050","0.0-5.0-15.0","go-nogo","false","0","","true","<div class = centerbox><div  id = stim1></div></div>","32","32","750","","test","go","15","adv","","",""
"","343","32","1222","0","test_block","poldrack-single-stim","30","70277","0.0-5.0-16.0","go-nogo","false","0","","true","<div class = centerbox><div  id = stim1></div></div>","32","32","750","","test","go","16","adv","","",""
"","312","32","1380","0","test_block","poldrack-single-stim","31","71666","0.0-5.0-17.0","go-nogo","false","0","","true","<div class = centerbox><div  id = stim1></div></div>","32","32","750","","test","go","17","adv","","",""
"","305","32","1149","0","test_block","poldrack-single-stim","32","72823","0.0-5.0-18.0","go-nogo","false","0","","true","<div class = centerbox><div  id = stim1></div></div>","32","32","750","","test","go","18","adv","","",""
"","381","32","1485","0","test_block","poldrack-single-stim","33","74312","0.0-5.0-19.0","go-nogo","false","0","","true","<div class = centerbox><div  id = stim1></div></div>","32","32","750","","test","go","19","adv","","",""
"","300","32","1372","0","test_block","poldrack-single-stim","34","75688","0.0-5.0-20.0","go-nogo","false","0","","true","<div class = centerbox><div  id = stim1></div></div>","32","32","750","","test","go","20","adv","","",""
"","306","32","1251","0","test_block","poldrack-single-stim","35","76944","0.0-5.0-21.0","go-nogo","false","0","","true","<div class = centerbox><div  id = stim1></div></div>","32","32","750","","test","go","21","adv","","",""
"","317","32","1425","0","test_block","poldrack-single-stim","36","78375","0.0-5.0-22.0","go-nogo","false","0","","true","<div class = centerbox><div  id = stim1></div></div>","32","32","750","","test","go","22","adv","","",""
"","329","32","1205","0","test_block","poldrack-single-stim","37","79585","0.0-5.0-23.0","go-nogo","false","0","","true","<div class = centerbox><div  id = stim1></div></div>","32","32","750","","test","go","23","adv","","",""
"","340","32","1406","0","test_block","poldrack-single-stim","38","80997","0.0-5.0-24.0","go-nogo","false","0","","true","<div class = centerbox><div  id = stim1></div></div>","32","32","750","","test","go","24","adv","","",""
"","316","32","1190","0","test_block","poldrack-single-stim","39","82193","0.0-5.0-25.0","go-nogo","false","0","","true","<div class = centerbox><div  id = stim1></div></div>","32","32","750","","test","go","25","adv","","",""
"","371","32","1225","0","test_block","poldrack-single-stim","40","83424","0.0-5.0-26.0","go-nogo","false","0","","true","<div class = centerbox><div  id = stim1></div></div>","32","32","750","","test","go","26","adv","","",""
"","337","32","1085","0","test_block","poldrack-single-stim","41","84515","0.0-5.0-27.0","go-nogo","false","0","","true","<div class = centerbox><div  id = stim1></div></div>","32","32","750","","test","go","27","adv","","",""
"","396","32","1115","0","test_block","poldrack-single-stim","42","85636","0.0-5.0-28.0","go-nogo","false","0","","true","<div class = centerbox><div  id = stim1></div></div>","32","32","750","","test","go","28","adv","","",""
"","349","32","1262","0","test_block","poldrack-single-stim","43","86902","0.0-5.0-29.0","go-nogo","false","0","","true","<div class = centerbox><div  id = stim1></div></div>","32","32","750","","test","go","29","adv","","",""
"","320","32","1446","0","test_block","poldrack-single-stim","44","88353","0.0-5.0-30.0","go-nogo","false","0","","true","<div class = centerbox><div  id = stim1></div></div>","32","32","750","","test","go","30","adv","","",""
"","312","32","1071","0","test_block","poldrack-single-stim","45","89428","0.0-5.0-31.0","go-nogo","false","0","","true","<div class = centerbox><div  id = stim1></div></div>","32","32","750","","test","go","31","adv","","",""
"","502","32","1208","0","test_block","poldrack-single-stim","46","90640","0.0-5.0-32.0","go-nogo","false","0","","true","<div class = centerbox><div  id = stim1></div></div>","32","32","750","","test","go","32","adv","","",""
"","359","32","1095","0","test_block","poldrack-single-stim","47","91740","0.0-5.0-33.0","go-nogo","false","0","","true","<div class = centerbox><div  id = stim1></div></div>","32","32","750","","test","go","33","adv","","",""
"","335","32","1356","0","test_block","poldrack-single-stim","48","93100","0.0-5.0-34.0","go-nogo","false","0","","true","<div class = centerbox><div  id = stim1></div></div>","32","32","750","","test","go","34","adv","","",""
"","122","32","1396","0","test_block","poldrack-single-stim","49","94501","0.0-5.0-35.0","go-nogo","false","0","","true","<div class = centerbox><div  id = stim1></div></div>","32","32","750","","test","go","35","adv","","",""
"","315","32","1413","0","test_block","poldrack-single-stim","50","95919","0.0-5.0-36.0","go-nogo","false","0","","true","<div class = centerbox><div  id = stim1></div></div>","32","32","750","","test","go","36","adv","","",""
"","323","32","1324","0","test_block","poldrack-single-stim","51","97246","0.0-5.0-37.0","go-nogo","false","0","","true","<div class = centerbox><div  id = stim1></div></div>","32","32","750","","test","go","37","adv","","",""
"","379","32","1067","0","test_block","poldrack-single-stim","52","98319","0.0-5.0-38.0","go-nogo","false","0","","true","<div class = centerbox><div  id = stim1></div></div>","32","32","750","","test","go","38","adv","","",""
"","353","32","1105","0","test_block","poldrack-single-stim","53","99431","0.0-5.0-39.0","go-nogo","false","0","","true","<div class = centerbox><div  id = stim1></div></div>","32","32","750","","test","go","39","adv","","",""
"","310","32","1360","0","test_block","poldrack-single-stim","54","100795","0.0-5.0-40.0","go-nogo","false","0","","true","<div class = centerbox><div  id = stim1></div></div>","32","32","750","","test","go","40","adv","","",""
"","304","32","1340","0","test_block","poldrack-single-stim","55","102140","0.0-5.0-41.0","go-nogo","false","0","","true","<div class = centerbox><div  id = stim1></div></div>","32","32","750","","test","go","41","adv","","",""
"","282","32","1330","0","test_block","poldrack-single-stim","56","103474","0.0-5.0-42.0","go-nogo","false","0","","true","<div class = centerbox><div  id = stim1></div></div>","32","32","750","","test","go","42","adv","","",""
"","298","32","1089","0","test_block","poldrack-single-stim","57","104568","0.0-5.0-43.0","go-nogo","false","0","","true","<div class = centerbox><div  id = stim1></div></div>","32","32","750","","test","go","43","adv","","",""
"","392","32","1407","0","test_block","poldrack-single-stim","58","105979","0.0-5.0-44.0","go-nogo","false","0","","true","<div class = centerbox><div  id = stim1></div></div>","32","32","750","","test","go","44","adv","","",""
"","349","32","1232","0","test_block","poldrack-single-stim","59","107217","0.0-5.0-45.0","go-nogo","false","0","","true","<div class = centerbox><div  id = stim1></div></div>","32","32","750","","test","go","45","adv","","",""
"","353","32","1343","0","test_block","poldrack-single-stim","60","108568","0.0-5.0-46.0","go-nogo","false","0","","true","<div class = centerbox><div  id = stim1></div></div>","32","32","750","","test","go","46","adv","","",""
"","307","32","1139","0","test_block","poldrack-single-stim","61","109711","0.0-5.0-47.0","go-nogo","false","0","","true","<div class = centerbox><div  id = stim1></div></div>","32","32","750","","test","go","47","adv","","",""
"","348","32","1039","0","test_block","poldrack-single-stim","62","110754","0.0-5.0-48.0","go-nogo","false","0","","true","<div class = centerbox><div  id = stim1></div></div>","32","32","750","","test","go","48","adv","","",""
"","350","32","1073","0","test_block","poldrack-single-stim","63","111832","0.0-5.0-49.0","go-nogo","false","0","","true","<div class = centerbox><div  id = stim1></div></div>","32","32","750","","test","go","49","adv","","",""
"","292","32","1299","0","test_block","poldrack-single-stim","64","113134","0.0-5.0-50.0","go-nogo","false","0","","true","<div class = centerbox><div  id = stim1></div></div>","32","32","750","","test","go","50","adv","","",""
"","330","32","1037","0","test_block","poldrack-single-stim","65","114176","0.0-5.0-51.0","go-nogo","false","0","","true","<div class = centerbox><div  id = stim1></div></div>","32","32","750","","test","go","51","adv","","",""
"","339","32","1108","0","test_block","poldrack-single-stim","66","115290","0.0-5.0-52.0","go-nogo","false","0","","true","<div class = centerbox><div  id = stim1></div></div>","32","32","750","","test","go","52","adv","","",""
"","274","32","1249","0","test_block","poldrack-single-stim","67","116543","0.0-5.0-53.0","go-nogo","false","0","","true","<div class = centerbox><div  id = stim1></div></div>","32","32","750","","test","go","53","adv","","",""
"","325","32","1426","0","test_block","poldrack-single-stim","68","117974","0.0-5.0-54.0","go-nogo","false","0","","true","<div class = centerbox><div  id = stim1></div></div>","32","32","750","","test","go","54","adv","","",""
"","342","32","1321","0","test_block","poldrack-single-stim","69","119300","0.0-5.0-55.0","go-nogo","false","0","","true","<div class = centerbox><div  id = stim1></div></div>","32","32","750","","test","go","55","adv","","",""
"","267","32","1386","0","test_block","poldrack-single-stim","70","120689","0.0-5.0-56.0","go-nogo","false","0","","true","<div class = centerbox><div  id = stim1></div></div>","32","32","750","","test","go","56","adv","","",""
"","308","32","1437","0","test_block","poldrack-single-stim","71","122130","0.0-5.0-57.0","go-nogo","false","0","","true","<div class = centerbox><div  id = stim1></div></div>","32","32","750","","test","go","57","adv","","",""
"","312","32","1435","0","test_block","poldrack-single-stim","72","123569","0.0-5.0-58.0","go-nogo","false","0","","true","<div class = centerbox><div  id = stim1></div></div>","32","32","750","","test","go","58","adv","","",""
"","386","32","1024","0","test_block","poldrack-single-stim","73","124597","0.0-5.0-59.0","go-nogo","false","0","","true","<div class = centerbox><div  id = stim1></div></div>","32","32","750","","test","go","59","adv","","",""
"","421","32","1135","0","test_block","poldrack-single-stim","74","125739","0.0-5.0-60.0","go-nogo","false","0","","true","<div class = centerbox><div  id = stim1></div></div>","32","32","750","","test","go","60","adv","","",""
"","367","32","1155","0","test_block","poldrack-single-stim","75","126898","0.0-5.0-61.0","go-nogo","false","0","","true","<div class = centerbox><div  id = stim1></div></div>","32","32","750","","test","go","61","adv","","",""
"","311","32","1168","0","test_block","poldrack-single-stim","76","128069","0.0-5.0-62.0","go-nogo","false","0","","true","<div class = centerbox><div  id = stim1></div></div>","32","32","750","","test","go","62","adv","","",""
"","299","32","1408","0","test_block","poldrack-single-stim","77","129481","0.0-5.0-63.0","go-nogo","false","0","","true","<div class = centerbox><div  id = stim1></div></div>","32","32","750","","test","go","63","adv","","",""
"","287","32","1086","0","test_block","poldrack-single-stim","78","130574","0.0-5.0-64.0","go-nogo","false","0","","true","<div class = centerbox><div  id = stim1></div></div>","32","32","750","","test","go","64","adv","","",""
"","320","32","1135","0","test_block","poldrack-single-stim","79","131715","0.0-5.0-65.0","go-nogo","false","0","","true","<div class = centerbox><div  id = stim1></div></div>","32","32","750","","test","go","65","adv","","",""
"","326","32","1037","0","test_block","poldrack-single-stim","80","132756","0.0-5.0-66.0","go-nogo","false","0","","true","<div class = centerbox><div  id = stim1></div></div>","32","32","750","","test","go","66","adv","","",""
"","331","32","1426","0","test_block","poldrack-single-stim","81","134186","0.0-5.0-67.0","go-nogo","false","0","","true","<div class = centerbox><div  id = stim1></div></div>","32","32","750","","test","go","67","adv","","",""
"","483","32","1227","0","test_block","poldrack-single-stim","82","135422","0.0-5.0-68.0","go-nogo","false","0","","true","<div class = centerbox><div  id = stim1></div></div>","32","32","750","","test","go","68","adv","","",""
"","320","32","1019","0","test_block","poldrack-single-stim","83","136447","0.0-5.0-69.0","go-nogo","false","0","","true","<div class = centerbox><div  id = stim1></div></div>","32","32","750","","test","go","69","adv","","",""
"","308","32","1041","0","test_block","poldrack-single-stim","84","137492","0.0-5.0-70.0","go-nogo","false","0","","true","<div class = centerbox><div  id = stim1></div></div>","32","32","750","","test","go","70","adv","","",""
"","295","32","1418","0","test_block","poldrack-single-stim","85","138914","0.0-5.0-71.0","go-nogo","false","0","","true","<div class = centerbox><div  id = stim1></div></div>","32","32","750","","test","go","71","adv","","",""
"","273","32","1379","0","test_block","poldrack-single-stim","86","140297","0.0-5.0-72.0","go-nogo","false","0","","true","<div class = centerbox><div  id = stim1></div></div>","32","32","750","","test","go","72","adv","","",""
"","308","32","1262","0","test_block","poldrack-single-stim","87","141563","0.0-5.0-73.0","go-nogo","false","0","","true","<div class = centerbox><div  id = stim1></div></div>","32","32","750","","test","go","73","adv","","",""
"","313","32","1277","0","test_block","poldrack-single-stim","88","142843","0.0-5.0-74.0","go-nogo","false","0","","true","<div class = centerbox><div  id = stim1></div></div>","32","32","750","","test","go","74","adv","","",""
"","318","32","1104","0","test_block","poldrack-single-stim","89","143951","0.0-5.0-75.0","go-nogo","false","0","","true","<div class = centerbox><div  id = stim1></div></div>","32","32","750","","test","go","75","adv","","",""
"","307","32","1326","0","test_block","poldrack-single-stim","90","145280","0.0-5.0-76.0","go-nogo","false","0","","true","<div class = centerbox><div  id = stim1></div></div>","32","32","750","","test","go","76","adv","","",""
"","298","32","1025","0","test_block","poldrack-single-stim","91","146309","0.0-5.0-77.0","go-nogo","false","0","","true","<div class = centerbox><div  id = stim1></div></div>","32","32","750","","test","go","77","adv","","",""
"","331","32","1147","0","test_block","poldrack-single-stim","92","147459","0.0-5.0-78.0","go-nogo","false","0","","true","<div class = centerbox><div  id = stim1></div></div>","32","32","750","","test","go","78","adv","","",""
"","268","32","1127","0","test_block","poldrack-single-stim","93","148589","0.0-5.0-79.0","go-nogo","false","0","","true","<div class = centerbox><div  id = stim1></div></div>","32","32","750","","test","go","79","adv","","",""
"","254","32","1143","0","test_block","poldrack-single-stim","94","149735","0.0-5.0-80.0","go-nogo","false","0","","true","<div class = centerbox><div  id = stim1></div></div>","32","32","750","","test","go","80","adv","","",""
"","188","32","1461","0","test_block","poldrack-single-stim","95","151200","0.0-5.0-81.0","go-nogo","false","0","","true","<div class = centerbox><div  id = stim1></div></div>","32","32","750","","test","go","81","adv","","",""
"","312","32","1177","0","test_block","poldrack-single-stim","96","152380","0.0-5.0-82.0","go-nogo","false","0","","true","<div class = centerbox><div  id = stim1></div></div>","32","32","750","","test","go","82","adv","","",""
"","318","32","1296","0","test_block","poldrack-single-stim","97","153681","0.0-5.0-83.0","go-nogo","false","0","","true","<div class = centerbox><div  id = stim1></div></div>","32","32","750","","test","go","83","adv","","",""
"","287","32","1460","0","test_block","poldrack-single-stim","98","155144","0.0-5.0-84.0","go-nogo","false","0","","true","<div class = centerbox><div  id = stim1></div></div>","32","32","750","","test","go","84","adv","","",""
"","281","32","1281","0","test_block","poldrack-single-stim","99","156429","0.0-5.0-85.0","go-nogo","false","0","","true","<div class = centerbox><div  id = stim1></div></div>","32","32","750","","test","go","85","adv","","",""
"","312","32","1213","0","test_block","poldrack-single-stim","100","157646","0.0-5.0-86.0","go-nogo","false","0","","true","<div class = centerbox><div  id = stim1></div></div>","32","32","750","","test","go","86","adv","","",""
"","327","32","1374","0","test_block","poldrack-single-stim","101","159025","0.0-5.0-87.0","go-nogo","false","0","","true","<div class = centerbox><div  id = stim1></div></div>","32","32","750","","test","go","87","adv","","",""
"","278","32","1033","0","test_block","poldrack-single-stim","102","160062","0.0-5.0-88.0","go-nogo","false","0","","true","<div class = centerbox><div  id = stim1></div></div>","32","32","750","","test","go","88","adv","","",""
"","968","32","1493","0","test_block","poldrack-single-stim","103","161559","0.0-5.0-89.0","go-nogo","false","0","","true","<div class = centerbox><div  id = stim1></div></div>","32","32","750","","test","go","89","adv","","",""
"","483","32","1482","0","test_block","poldrack-single-stim","104","163046","0.0-5.0-90.0","go-nogo","false","0","","true","<div class = centerbox><div  id = stim1></div></div>","32","32","750","","test","go","90","adv","","",""
"","282","32","1426","0","test_block","poldrack-single-stim","105","164476","0.0-5.0-91.0","go-nogo","false","0","","true","<div class = centerbox><div  id = stim1></div></div>","32","32","750","","test","go","91","adv","","",""
"","281","32","1352","0","test_block","poldrack-single-stim","106","165832","0.0-5.0-92.0","go-nogo","false","0","","true","<div class = centerbox><div  id = stim1></div></div>","32","32","750","","test","go","92","adv","","",""
"","315","32","1099","0","test_block","poldrack-single-stim","107","166933","0.0-5.0-93.0","go-nogo","false","0","","true","<div class = centerbox><div  id = stim1></div></div>","32","32","750","","test","go","93","adv","","",""
"","385","32","1147","0","test_block","poldrack-single-stim","108","168084","0.0-5.0-94.0","go-nogo","false","0","","true","<div class = centerbox><div  id = stim1></div></div>","32","32","750","","test","go","94","adv","","",""
"","327","32","1072","0","test_block","poldrack-single-stim","109","169160","0.0-5.0-95.0","go-nogo","false","0","","true","<div class = centerbox><div  id = stim1></div></div>","32","32","750","","test","go","95","adv","","",""
"","311","32","1085","0","test_block","poldrack-single-stim","110","170251","0.0-5.0-96.0","go-nogo","false","0","","true","<div class = centerbox><div  id = stim1></div></div>","32","32","750","","test","go","96","adv","","",""
"","295","32","1140","0","test_block","poldrack-single-stim","111","171394","0.0-5.0-97.0","go-nogo","false","0","","true","<div class = centerbox><div  id = stim1></div></div>","32","32","750","","test","go","97","adv","","",""
"","195","32","1306","0","test_block","poldrack-single-stim","112","172703","0.0-5.0-98.0","go-nogo","false","0","","true","<div class = centerbox><div  id = stim1></div></div>","32","32","750","","test","go","98","adv","","",""
"","306","32","1278","0","test_block","poldrack-single-stim","113","173987","0.0-5.0-99.0","go-nogo","false","0","","true","<div class = centerbox><div  id = stim1></div></div>","32","32","750","","test","go","99","adv","","",""
"","283","32","1228","0","test_block","poldrack-single-stim","114","175218","0.0-5.0-100.0","go-nogo","false","0","","true","<div class = centerbox><div  id = stim1></div></div>","32","32","750","","test","go","100","adv","","",""
"","251","32","1318","0","test_block","poldrack-single-stim","115","176540","0.0-5.0-101.0","go-nogo","false","0","","true","<div class = centerbox><div  id = stim1></div></div>","32","32","750","","test","go","101","adv","","",""
"","144","32","1447","0","test_block","poldrack-single-stim","116","177990","0.0-5.0-102.0","go-nogo","false","0","","true","<div class = centerbox><div  id = stim1></div></div>","32","32","750","","test","go","102","adv","","",""
"","277","32","1005","0","test_block","poldrack-single-stim","117","178999","0.0-5.0-103.0","go-nogo","false","0","","true","<div class = centerbox><div  id = stim1></div></div>","32","32","750","","test","go","103","adv","","",""
"","395","32","1244","0","test_block","poldrack-single-stim","118","180247","0.0-5.0-104.0","go-nogo","false","0","","true","<div class = centerbox><div  id = stim1></div></div>","32","32","750","","test","go","104","adv","","",""
"","306","32","1317","0","test_block","poldrack-single-stim","119","181567","0.0-5.0-105.0","go-nogo","false","0","","true","<div class = centerbox><div  id = stim1></div></div>","32","32","750","","test","go","105","adv","","",""
"","287","32","1088","0","test_block","poldrack-single-stim","120","182659","0.0-5.0-106.0","go-nogo","false","0","","true","<div class = centerbox><div  id = stim1></div></div>","32","32","750","","test","go","106","adv","","",""
"","487","32","1005","0","test_block","poldrack-single-stim","121","183668","0.0-5.0-107.0","go-nogo","false","0","","true","<div class = centerbox><div  id = stim1></div></div>","32","32","750","","test","go","107","adv","","",""
"","327","32","1015","0","test_block","poldrack-single-stim","122","184686","0.0-5.0-108.0","go-nogo","false","0","","true","<div class = centerbox><div  id = stim1></div></div>","32","32","750","","test","go","108","adv","","",""
"","313","32","1217","0","test_block","poldrack-single-stim","123","185907","0.0-5.0-109.0","go-nogo","false","0","","true","<div class = centerbox><div  id = stim1></div></div>","32","32","750","","test","go","109","adv","","",""
"","301","32","1168","0","test_block","poldrack-single-stim","124","187080","0.0-5.0-110.0","go-nogo","false","0","","true","<div class = centerbox><div  id = stim1></div></div>","32","32","750","","test","go","110","adv","","",""
"","266","32","1136","0","test_block","poldrack-single-stim","125","188221","0.0-5.0-111.0","go-nogo","false","0","","true","<div class = centerbox><div  id = stim1></div></div>","32","32","750","","test","go","111","adv","","",""
"","261","32","1189","0","test_block","poldrack-single-stim","126","189415","0.0-5.0-112.0","go-nogo","false","0","","true","<div class = centerbox><div  id = stim1></div></div>","32","32","750","","test","go","112","adv","","",""
"","246","32","1411","0","test_block","poldrack-single-stim","127","190830","0.0-5.0-113.0","go-nogo","false","0","","true","<div class = centerbox><div  id = stim1></div></div>","32","32","750","","test","go","113","adv","","",""
"","86","32","1466","0","test_block","poldrack-single-stim","128","192300","0.0-5.0-114.0","go-nogo","false","0","","true","<div class = centerbox><div  id = stim1></div></div>","32","32","750","","test","go","114","adv","","",""
"","268","32","1062","0","test_block","poldrack-single-stim","129","193366","0.0-5.0-115.0","go-nogo","false","0","","true","<div class = centerbox><div  id = stim1></div></div>","32","32","750","","test","go","115","adv","","",""
"","337","32","1007","0","test_block","poldrack-single-stim","130","194377","0.0-5.0-116.0","go-nogo","false","0","","true","<div class = centerbox><div  id = stim1></div></div>","32","32","750","","test","go","116","adv","","",""
"","334","32","1410","0","test_block","poldrack-single-stim","131","195790","0.0-5.0-117.0","go-nogo","false","0","","true","<div class = centerbox><div  id = stim1></div></div>","32","32","750","","test","go","117","adv","","",""
"","285","32","1132","0","test_block","poldrack-single-stim","132","196926","0.0-5.0-118.0","go-nogo","false","0","","true","<div class = centerbox><div  id = stim1></div></div>","32","32","750","","test","go","118","adv","","",""
"","282","32","1409","0","test_block","poldrack-single-stim","133","198339","0.0-5.0-119.0","go-nogo","false","0","","true","<div class = centerbox><div  id = stim1></div></div>","32","32","750","","test","go","119","adv","","",""
"","7","32","1154","0","test_block","poldrack-single-stim","134","199498","0.0-5.0-120.0","go-nogo","false","0","","true","<div class = centerbox><div  id = stim1></div></div>","32","32","750","","test","go","120","adv","","",""
"","279","32","1272","0","test_block","poldrack-single-stim","135","200773","0.0-5.0-121.0","go-nogo","false","0","","true","<div class = centerbox><div  id = stim1></div></div>","32","32","750","","test","go","121","adv","","",""
"","273","32","1055","0","test_block","poldrack-single-stim","136","201833","0.0-5.0-122.0","go-nogo","false","0","","true","<div class = centerbox><div  id = stim1></div></div>","32","32","750","","test","go","122","adv","","",""
"","319","32","1356","0","test_block","poldrack-single-stim","137","203194","0.0-5.0-123.0","go-nogo","false","0","","true","<div class = centerbox><div  id = stim1></div></div>","32","32","750","","test","go","123","adv","","",""
"","192","32","1475","0","test_block","poldrack-single-stim","138","204673","0.0-5.0-124.0","go-nogo","false","0","","true","<div class = centerbox><div  id = stim1></div></div>","32","32","750","","test","go","124","adv","","",""
"","91","32","1437","0","test_block","poldrack-single-stim","139","206113","0.0-5.0-125.0","go-nogo","false","0","","true","<div class = centerbox><div  id = stim1></div></div>","32","32","750","","test","go","125","adv","","",""
"","311","32","1103","0","test_block","poldrack-single-stim","140","207220","0.0-5.0-126.0","go-nogo","false","0","","true","<div class = centerbox><div  id = stim1></div></div>","32","32","750","","test","go","126","adv","","",""
"","291","32","1330","0","test_block","poldrack-single-stim","141","208555","0.0-5.0-127.0","go-nogo","false","0","","true","<div class = centerbox><div  id = stim1></div></div>","32","32","750","","test","go","127","adv","","",""
"","282","32","1440","0","test_block","poldrack-single-stim","142","209999","0.0-5.0-128.0","go-nogo","false","0","","true","<div class = centerbox><div  id = stim1></div></div>","32","32","750","","test","go","128","adv","","",""
"","255","32","1304","0","test_block","poldrack-single-stim","143","211306","0.0-5.0-129.0","go-nogo","false","0","","true","<div class = centerbox><div  id = stim1></div></div>","32","32","750","","test","go","129","adv","","",""
"","458","32","1201","0","test_block","poldrack-single-stim","144","212512","0.0-5.0-130.0","go-nogo","false","0","","true","<div class = centerbox><div  id = stim1></div></div>","32","32","750","","test","go","130","adv","","",""
"","319","32","1144","0","test_block","poldrack-single-stim","145","213660","0.0-5.0-131.0","go-nogo","false","0","","true","<div class = centerbox><div  id = stim1></div></div>","32","32","750","","test","go","131","adv","","",""
"","509","32","1165","0","test_block","poldrack-single-stim","146","214830","0.0-5.0-132.0","go-nogo","false","0","","true","<div class = centerbox><div  id = stim1></div></div>","32","32","750","","test","go","132","adv","","",""
"","293","32","1418","0","test_block","poldrack-single-stim","147","216253","0.0-5.0-133.0","go-nogo","false","0","","true","<div class = centerbox><div  id = stim1></div></div>","32","32","750","","test","go","133","adv","","",""
"","433","32","1185","0","test_block","poldrack-single-stim","148","217444","0.0-5.0-134.0","go-nogo","false","0","","true","<div class = centerbox><div  id = stim1></div></div>","32","32","750","","test","go","134","adv","","",""
"","307","32","1034","0","test_block","poldrack-single-stim","149","218483","0.0-5.0-135.0","go-nogo","false","0","","true","<div class = centerbox><div  id = stim1></div></div>","32","32","750","","test","go","135","adv","","",""
"","378","32","1210","0","test_block","poldrack-single-stim","150","219696","0.0-5.0-136.0","go-nogo","false","0","","true","<div class = centerbox><div  id = stim1></div></div>","32","32","750","","test","go","136","adv","","",""
"","287","32","1051","0","test_block","poldrack-single-stim","151","220751","0.0-5.0-137.0","go-nogo","false","0","","true","<div class = centerbox><div  id = stim1></div></div>","32","32","750","","test","go","137","adv","","",""
"","350","32","1468","0","test_block","poldrack-single-stim","152","222223","0.0-5.0-138.0","go-nogo","false","0","","true","<div class = centerbox><div  id = stim1></div></div>","32","32","750","","test","go","138","adv","","",""
"","298","32","1072","0","test_block","poldrack-single-stim","153","223300","0.0-5.0-139.0","go-nogo","false","0","","true","<div class = centerbox><div  id = stim1></div></div>","32","32","750","","test","go","139","adv","","",""
"","596","32","1179","0","test_block","poldrack-single-stim","154","224483","0.0-5.0-140.0","go-nogo","false","0","","true","<div class = centerbox><div  id = stim1></div></div>","32","32","750","","test","go","140","adv","","",""
"","605","32","1409","0","test_block","poldrack-single-stim","155","225895","0.0-5.0-141.0","go-nogo","false","0","","true","<div class = centerbox><div  id = stim1></div></div>","32","32","750","","test","go","141","adv","","",""
"","496","32","1298","0","test_block","poldrack-single-stim","156","227196","0.0-5.0-142.0","go-nogo","false","0","","true","<div class = centerbox><div  id = stim1></div></div>","32","32","750","","test","go","142","adv","","",""
"","361","32","1105","0","test_block","poldrack-single-stim","157","228305","0.0-5.0-143.0","go-nogo","false","0","","true","<div class = centerbox><div  id = stim1></div></div>","32","32","750","","test","go","143","adv","","",""
"","280","32","1226","0","test_block","poldrack-single-stim","158","229535","0.0-5.0-144.0","go-nogo","false","0","","true","<div class = centerbox><div  id = stim1></div></div>","32","32","750","","test","go","144","adv","","",""
"","241","32","1289","0","test_block","poldrack-single-stim","159","230827","0.0-5.0-145.0","go-nogo","false","0","","true","<div class = centerbox><div  id = stim1></div></div>","32","32","750","","test","go","145","adv","","",""
"","58","32","1261","0","test_block","poldrack-single-stim","160","232092","0.0-5.0-146.0","go-nogo","false","0","","true","<div class = centerbox><div  id = stim1></div></div>","32","32","750","","test","go","146","adv","","",""
"","262","32","1269","0","test_block","poldrack-single-stim","161","233367","0.0-5.0-147.0","go-nogo","false","0","","true","<div class = centerbox><div  id = stim1></div></div>","32","32","750","","test","go","147","adv","","",""
"","284","32","1266","0","test_block","poldrack-single-stim","162","234636","0.0-5.0-148.0","go-nogo","false","0","","true","<div class = centerbox><div  id = stim1></div></div>","32","32","750","","test","go","148","adv","","",""
"","579","32","1487","0","test_block","poldrack-single-stim","163","236127","0.0-5.0-149.0","go-nogo","false","0","","true","<div class = centerbox><div  id = stim1></div></div>","32","32","750","","test","go","149","adv","","",""
"","285","32","1077","0","test_block","poldrack-single-stim","164","237207","0.0-5.0-150.0","go-nogo","false","0","","true","<div class = centerbox><div  id = stim1></div></div>","32","32","750","","test","go","150","adv","","",""
"","649","32","1229","0","test_block","poldrack-single-stim","165","238440","0.0-5.0-151.0","go-nogo","false","0","","true","<div class = centerbox><div  id = stim1></div></div>","32","32","750","","test","go","151","adv","","",""
"","663","32","1046","0","test_block","poldrack-single-stim","166","239489","0.0-5.0-152.0","go-nogo","false","0","","true","<div class = centerbox><div  id = stim1></div></div>","32","32","750","","test","go","152","adv","","",""
"","690","32","1021","0","test_block","poldrack-single-stim","167","240513","0.0-5.0-153.0","go-nogo","false","0","","true","<div class = centerbox><div  id = stim1></div></div>","32","32","750","","test","go","153","adv","","",""
"","680","32","1451","0","test_block","poldrack-single-stim","168","241970","0.0-5.0-154.0","go-nogo","false","0","","true","<div class = centerbox><div  id = stim1></div></div>","32","32","750","","test","go","154","adv","","",""
"","313","32","1399","0","test_block","poldrack-single-stim","169","243373","0.0-5.0-155.0","go-nogo","false","0","","true","<div class = centerbox><div  id = stim1></div></div>","32","32","750","","test","go","155","adv","","",""
"","279","32","1191","0","test_block","poldrack-single-stim","170","244568","0.0-5.0-156.0","go-nogo","false","0","","true","<div class = centerbox><div  id = stim1></div></div>","32","32","750","","test","go","156","adv","","",""
"","449","32","1126","0","test_block","poldrack-single-stim","171","245698","0.0-5.0-157.0","go-nogo","false","0","","true","<div class = centerbox><div  id = stim1></div></div>","32","32","750","","test","go","157","adv","","",""
"","851","32","1134","0","test_block","poldrack-single-stim","172","246836","0.0-5.0-158.0","go-nogo","false","0","","true","<div class = centerbox><div  id = stim1></div></div>","32","32","750","","test","go","158","adv","","",""
"","281","32","1048","0","test_block","poldrack-single-stim","173","247889","0.0-5.0-159.0","go-nogo","false","0","","true","<div class = centerbox><div  id = stim1></div></div>","32","32","750","","test","go","159","adv","","",""
"","350","32","1399","0","test_block","poldrack-single-stim","174","249292","0.0-5.0-160.0","go-nogo","false","0","","false","<div class = centerbox><div  id = stim2></div></div>","-1","32","750","","test","nogo","160","adv","","",""
"","313","32","1057","0","test_block","poldrack-single-stim","175","250354","0.0-5.0-161.0","go-nogo","false","0","","true","<div class = centerbox><div  id = stim1></div></div>","32","32","750","","test","go","161","adv","","",""
"","390","32","1246","0","test_block","poldrack-single-stim","176","251604","0.0-5.0-162.0","go-nogo","false","0","","true","<div class = centerbox><div  id = stim1></div></div>","32","32","750","","test","go","162","adv","","",""
"","277","32","1448","0","test_block","poldrack-single-stim","177","253055","0.0-5.0-163.0","go-nogo","false","0","","false","<div class = centerbox><div  id = stim2></div></div>","-1","32","750","","test","nogo","163","adv","","",""
"","405","32","1244","0","test_block","poldrack-single-stim","178","254303","0.0-5.0-164.0","go-nogo","false","0","","true","<div class = centerbox><div  id = stim1></div></div>","32","32","750","","test","go","164","adv","","",""
"","421","32","1034","0","test_block","poldrack-single-stim","179","255341","0.0-5.0-165.0","go-nogo","false","0","","true","<div class = centerbox><div  id = stim1></div></div>","32","32","750","","test","go","165","adv","","",""
"","-1","-1","1139","0","test_block","poldrack-single-stim","180","256484","0.0-5.0-166.0","go-nogo","false","0","","true","<div class = centerbox><div  id = stim2></div></div>","-1","32","750","","test","nogo","166","adv","","",""
"","342","32","1020","0","test_block","poldrack-single-stim","181","257508","0.0-5.0-167.0","go-nogo","false","0","","true","<div class = centerbox><div  id = stim1></div></div>","32","32","750","","test","go","167","adv","","",""
"","390","32","1117","0","test_block","poldrack-single-stim","182","258630","0.0-5.0-168.0","go-nogo","false","0","","true","<div class = centerbox><div  id = stim1></div></div>","32","32","750","","test","go","168","adv","","",""
"","-1","-1","1279","0","test_block","poldrack-single-stim","183","259911","0.0-5.0-169.0","go-nogo","false","0","","true","<div class = centerbox><div  id = stim2></div></div>","-1","32","750","","test","nogo","169","adv","","",""
"","316","32","1384","0","test_block","poldrack-single-stim","184","261300","0.0-5.0-170.0","go-nogo","false","0","","true","<div class = centerbox><div  id = stim1></div></div>","32","32","750","","test","go","170","adv","","",""
"","356","32","1180","0","test_block","poldrack-single-stim","185","262484","0.0-5.0-171.0","go-nogo","false","0","","true","<div class = centerbox><div  id = stim1></div></div>","32","32","750","","test","go","171","adv","","",""
"","-1","-1","1406","0","test_block","poldrack-single-stim","186","263894","0.0-5.0-172.0","go-nogo","false","0","","true","<div class = centerbox><div  id = stim2></div></div>","-1","32","750","","test","nogo","172","adv","","",""
"","331","32","1179","0","test_block","poldrack-single-stim","187","265078","0.0-5.0-173.0","go-nogo","false","0","","true","<div class = centerbox><div  id = stim1></div></div>","32","32","750","","test","go","173","adv","","",""
"","331","32","1099","0","test_block","poldrack-single-stim","188","266180","0.0-5.0-174.0","go-nogo","false","0","","true","<div class = centerbox><div  id = stim1></div></div>","32","32","750","","test","go","174","adv","","",""
"","381","32","1394","0","test_block","poldrack-single-stim","189","267580","0.0-5.0-175.0","go-nogo","false","0","","true","<div class = centerbox><div  id = stim1></div></div>","32","32","750","","test","go","175","adv","","",""
"","369","32","1145","0","test_block","poldrack-single-stim","190","268728","0.0-5.0-176.0","go-nogo","false","0","","true","<div class = centerbox><div  id = stim1></div></div>","32","32","750","","test","go","176","adv","","",""
"","398","32","1142","0","test_block","poldrack-single-stim","191","269874","0.0-5.0-177.0","go-nogo","false","0","","true","<div class = centerbox><div  id = stim1></div></div>","32","32","750","","test","go","177","adv","","",""
"","446","32","1248","0","test_block","poldrack-single-stim","192","271125","0.0-5.0-178.0","go-nogo","false","0","","true","<div class = centerbox><div  id = stim1></div></div>","32","32","750","","test","go","178","adv","","",""
"","311","32","1001","0","test_block","poldrack-single-stim","193","272132","0.0-5.0-179.0","go-nogo","false","0","","false","<div class = centerbox><div  id = stim2></div></div>","-1","32","750","","test","nogo","179","adv","","",""
"","407","32","1083","0","test_block","poldrack-single-stim","194","273221","0.0-5.0-180.0","go-nogo","false","0","","true","<div class = centerbox><div  id = stim1></div></div>","32","32","750","","test","go","180","adv","","",""
"","364","32","1104","0","test_block","poldrack-single-stim","195","274328","0.0-5.0-181.0","go-nogo","false","0","","true","<div class = centerbox><div  id = stim1></div></div>","32","32","750","","test","go","181","adv","","",""
"","-1","-1","1422","0","test_block","poldrack-single-stim","196","275755","0.0-5.0-182.0","go-nogo","false","0","","true","<div class = centerbox><div  id = stim2></div></div>","-1","32","750","","test","nogo","182","adv","","",""
"","362","32","1424","0","test_block","poldrack-single-stim","197","277183","0.0-5.0-183.0","go-nogo","false","0","","true","<div class = centerbox><div  id = stim1></div></div>","32","32","750","","test","go","183","adv","","",""
"","390","32","1193","0","test_block","poldrack-single-stim","198","278380","0.0-5.0-184.0","go-nogo","false","0","","true","<div class = centerbox><div  id = stim1></div></div>","32","32","750","","test","go","184","adv","","",""
"","439","32","1131","0","test_block","poldrack-single-stim","199","279514","0.0-5.0-185.0","go-nogo","false","0","","true","<div class = centerbox><div  id = stim1></div></div>","32","32","750","","test","go","185","adv","","",""
"","-1","-1","1335","0","test_block","poldrack-single-stim","200","280852","0.0-5.0-186.0","go-nogo","false","0","","true","<div class = centerbox><div  id = stim2></div></div>","-1","32","750","","test","nogo","186","adv","","",""
"","349","32","1051","0","test_block","poldrack-single-stim","201","281911","0.0-5.0-187.0","go-nogo","false","0","","true","<div class = centerbox><div  id = stim1></div></div>","32","32","750","","test","go","187","adv","","",""
"","345","32","1465","0","test_block","poldrack-single-stim","202","283380","0.0-5.0-188.0","go-nogo","false","0","","true","<div class = centerbox><div  id = stim1></div></div>","32","32","750","","test","go","188","adv","","",""
"","447","32","1136","0","test_block","poldrack-single-stim","203","284520","0.0-5.0-189.0","go-nogo","false","0","","true","<div class = centerbox><div  id = stim1></div></div>","32","32","750","","test","go","189","adv","","",""
"","395","32","1435","0","test_block","poldrack-single-stim","204","285959","0.0-5.0-190.0","go-nogo","false","0","","true","<div class = centerbox><div  id = stim1></div></div>","32","32","750","","test","go","190","adv","","",""
"","429","32","1333","0","test_block","poldrack-single-stim","205","287296","0.0-5.0-191.0","go-nogo","false","0","","true","<div class = centerbox><div  id = stim1></div></div>","32","32","750","","test","go","191","adv","","",""
"","322","32","1059","0","test_block","poldrack-single-stim","206","288358","0.0-5.0-192.0","go-nogo","false","0","","true","<div class = centerbox><div  id = stim1></div></div>","32","32","750","","test","go","192","adv","","",""
"","400","32","1367","0","test_block","poldrack-single-stim","207","289729","0.0-5.0-193.0","go-nogo","false","0","","true","<div class = centerbox><div  id = stim1></div></div>","32","32","750","","test","go","193","adv","","",""
"","-1","-1","1089","0","test_block","poldrack-single-stim","208","290822","0.0-5.0-194.0","go-nogo","false","0","","true","<div class = centerbox><div  id = stim2></div></div>","-1","32","750","","test","nogo","194","adv","","",""
"","389","32","1109","0","test_block","poldrack-single-stim","209","291934","0.0-5.0-195.0","go-nogo","false","0","","true","<div class = centerbox><div  id = stim1></div></div>","32","32","750","","test","go","195","adv","","",""
"","363","32","1177","0","test_block","poldrack-single-stim","210","293114","0.0-5.0-196.0","go-nogo","false","0","","true","<div class = centerbox><div  id = stim1></div></div>","32","32","750","","test","go","196","adv","","",""
"","344","32","1215","0","test_block","poldrack-single-stim","211","294332","0.0-5.0-197.0","go-nogo","false","0","","true","<div class = centerbox><div  id = stim1></div></div>","32","32","750","","test","go","197","adv","","",""
"","355","32","1397","0","test_block","poldrack-single-stim","212","295733","0.0-5.0-198.0","go-nogo","false","0","","true","<div class = centerbox><div  id = stim1></div></div>","32","32","750","","test","go","198","adv","","",""
"","377","32","1099","0","test_block","poldrack-single-stim","213","296836","0.0-5.0-199.0","go-nogo","false","0","","true","<div class = centerbox><div  id = stim1></div></div>","32","32","750","","test","go","199","adv","","",""
"","341","32","1210","0","test_block","poldrack-single-stim","214","298050","0.0-5.0-200.0","go-nogo","false","0","","true","<div class = centerbox><div  id = stim1></div></div>","32","32","750","","test","go","200","adv","","",""
"","341","32","1259","0","test_block","poldrack-single-stim","215","299312","0.0-5.0-201.0","go-nogo","false","0","","true","<div class = centerbox><div  id = stim1></div></div>","32","32","750","","test","go","201","adv","","",""
"","368","32","1210","0","test_block","poldrack-single-stim","216","300526","0.0-5.0-202.0","go-nogo","false","0","","true","<div class = centerbox><div  id = stim1></div></div>","32","32","750","","test","go","202","adv","","",""
"","335","32","1142","0","test_block","poldrack-single-stim","217","301672","0.0-5.0-203.0","go-nogo","false","0","","true","<div class = centerbox><div  id = stim1></div></div>","32","32","750","","test","go","203","adv","","",""
"","-1","-1","1364","0","test_block","poldrack-single-stim","218","303040","0.0-5.0-204.0","go-nogo","false","0","","true","<div class = centerbox><div  id = stim2></div></div>","-1","32","750","","test","nogo","204","adv","","",""
"","349","32","1334","0","test_block","poldrack-single-stim","219","304379","0.0-5.0-205.0","go-nogo","false","0","","true","<div class = centerbox><div  id = stim1></div></div>","32","32","750","","test","go","205","adv","","",""
"","414","32","1376","0","test_block","poldrack-single-stim","220","305758","0.0-5.0-206.0","go-nogo","false","0","","true","<div class = centerbox><div  id = stim1></div></div>","32","32","750","","test","go","206","adv","","",""
"","343","32","1270","0","test_block","poldrack-single-stim","221","307035","0.0-5.0-207.0","go-nogo","false","0","","true","<div class = centerbox><div  id = stim1></div></div>","32","32","750","","test","go","207","adv","","",""
"","300","32","1343","0","test_block","poldrack-single-stim","222","308382","0.0-5.0-208.0","go-nogo","false","0","","true","<div class = centerbox><div  id = stim1></div></div>","32","32","750","","test","go","208","adv","","",""
"","315","32","1381","0","test_block","poldrack-single-stim","223","309768","0.0-5.0-209.0","go-nogo","false","0","","true","<div class = centerbox><div  id = stim1></div></div>","32","32","750","","test","go","209","adv","","",""
"","308","32","1137","0","test_block","poldrack-single-stim","224","310909","0.0-5.0-210.0","go-nogo","false","0","","true","<div class = centerbox><div  id = stim1></div></div>","32","32","750","","test","go","210","adv","","",""
"","356","32","1328","0","test_block","poldrack-single-stim","225","312242","0.0-5.0-211.0","go-nogo","false","0","","true","<div class = centerbox><div  id = stim1></div></div>","32","32","750","","test","go","211","adv","","",""
"","305","32","1450","0","test_block","poldrack-single-stim","226","313697","0.0-5.0-212.0","go-nogo","false","0","","true","<div class = centerbox><div  id = stim1></div></div>","32","32","750","","test","go","212","adv","","",""
"","317","32","1075","0","test_block","poldrack-single-stim","227","314775","0.0-5.0-213.0","go-nogo","false","0","","true","<div class = centerbox><div  id = stim1></div></div>","32","32","750","","test","go","213","adv","","",""
"","374","32","1146","0","test_block","poldrack-single-stim","228","315924","0.0-5.0-214.0","go-nogo","false","0","","true","<div class = centerbox><div  id = stim1></div></div>","32","32","750","","test","go","214","adv","","",""
"","314","32","1151","0","test_block","poldrack-single-stim","229","317079","0.0-5.0-215.0","go-nogo","false","0","","false","<div class = centerbox><div  id = stim2></div></div>","-1","32","750","","test","nogo","215","adv","","",""
"","447","32","1060","0","test_block","poldrack-single-stim","230","318143","0.0-5.0-216.0","go-nogo","false","0","","true","<div class = centerbox><div  id = stim1></div></div>","32","32","750","","test","go","216","adv","","",""
"","363","32","1434","0","test_block","poldrack-single-stim","231","319581","0.0-5.0-217.0","go-nogo","false","0","","true","<div class = centerbox><div  id = stim1></div></div>","32","32","750","","test","go","217","adv","","",""
"","-1","-1","1365","0","test_block","poldrack-single-stim","232","320951","0.0-5.0-218.0","go-nogo","false","0","","true","<div class = centerbox><div  id = stim2></div></div>","-1","32","750","","test","nogo","218","adv","","",""
"","472","32","1244","0","test_block","poldrack-single-stim","233","322201","0.0-5.0-219.0","go-nogo","false","0","","true","<div class = centerbox><div  id = stim1></div></div>","32","32","750","","test","go","219","adv","","",""
"","351","32","1444","0","test_block","poldrack-single-stim","234","323650","0.0-5.0-220.0","go-nogo","false","0","","true","<div class = centerbox><div  id = stim1></div></div>","32","32","750","","test","go","220","adv","","",""
"","-1","-1","1025","0","test_block","poldrack-single-stim","235","324680","0.0-5.0-221.0","go-nogo","false","0","","true","<div class = centerbox><div  id = stim2></div></div>","-1","32","750","","test","nogo","221","adv","","",""
"","446","32","1040","0","test_block","poldrack-single-stim","236","325725","0.0-5.0-222.0","go-nogo","false","0","","true","<div class = centerbox><div  id = stim1></div></div>","32","32","750","","test","go","222","adv","","",""
"","380","32","1195","0","test_block","poldrack-single-stim","237","326923","0.0-5.0-223.0","go-nogo","false","0","","true","<div class = centerbox><div  id = stim1></div></div>","32","32","750","","test","go","223","adv","","",""
"","510","32","1050","0","test_block","poldrack-single-stim","238","327978","0.0-5.0-224.0","go-nogo","false","0","","true","<div class = centerbox><div  id = stim1></div></div>","32","32","750","","test","go","224","adv","","",""
"","378","32","1431","0","test_block","poldrack-single-stim","239","329415","0.0-5.0-225.0","go-nogo","false","0","","true","<div class = centerbox><div  id = stim1></div></div>","32","32","750","","test","go","225","adv","","",""
"","392","32","1330","0","test_block","poldrack-single-stim","240","330749","0.0-5.0-226.0","go-nogo","false","0","","true","<div class = centerbox><div  id = stim1></div></div>","32","32","750","","test","go","226","adv","","",""
"","354","32","1279","0","test_block","poldrack-single-stim","241","332032","0.0-5.0-227.0","go-nogo","false","0","","true","<div class = centerbox><div  id = stim1></div></div>","32","32","750","","test","go","227","adv","","",""
"","388","32","1245","0","test_block","poldrack-single-stim","242","333280","0.0-5.0-228.0","go-nogo","false","0","","true","<div class = centerbox><div  id = stim1></div></div>","32","32","750","","test","go","228","adv","","",""
"","-1","-1","1431","0","test_block","poldrack-single-stim","243","334714","0.0-5.0-229.0","go-nogo","false","0","","true","<div class = centerbox><div  id = stim2></div></div>","-1","32","750","","test","nogo","229","adv","","",""
"","321","32","1142","0","test_block","poldrack-single-stim","244","335861","0.0-5.0-230.0","go-nogo","false","0","","true","<div class = centerbox><div  id = stim1></div></div>","32","32","750","","test","go","230","adv","","",""
"","371","32","1121","0","test_block","poldrack-single-stim","245","336987","0.0-5.0-231.0","go-nogo","false","0","","true","<div class = centerbox><div  id = stim1></div></div>","32","32","750","","test","go","231","adv","","",""
"","352","32","1245","0","test_block","poldrack-single-stim","246","338237","0.0-5.0-232.0","go-nogo","false","0","","true","<div class = centerbox><div  id = stim1></div></div>","32","32","750","","test","go","232","adv","","",""
"","323","32","1447","0","test_block","poldrack-single-stim","247","339689","0.0-5.0-233.0","go-nogo","false","0","","true","<div class = centerbox><div  id = stim1></div></div>","32","32","750","","test","go","233","adv","","",""
"","401","32","1497","0","test_block","poldrack-single-stim","248","341190","0.0-5.0-234.0","go-nogo","false","0","","true","<div class = centerbox><div  id = stim1></div></div>","32","32","750","","test","go","234","adv","","",""
"","330","32","1093","0","test_block","poldrack-single-stim","249","342290","0.0-5.0-235.0","go-nogo","false","0","","true","<div class = centerbox><div  id = stim1></div></div>","32","32","750","","test","go","235","adv","","",""
"","431","32","1108","0","test_block","poldrack-single-stim","250","343403","0.0-5.0-236.0","go-nogo","false","0","","true","<div class = centerbox><div  id = stim1></div></div>","32","32","750","","test","go","236","adv","","",""
"","352","32","1353","0","test_block","poldrack-single-stim","251","344761","0.0-5.0-237.0","go-nogo","false","0","","true","<div class = centerbox><div  id = stim1></div></div>","32","32","750","","test","go","237","adv","","",""
"","335","32","1061","0","test_block","poldrack-single-stim","252","345826","0.0-5.0-238.0","go-nogo","false","0","","true","<div class = centerbox><div  id = stim1></div></div>","32","32","750","","test","go","238","adv","","",""
"","362","32","1242","0","test_block","poldrack-single-stim","253","347072","0.0-5.0-239.0","go-nogo","false","0","","true","<div class = centerbox><div  id = stim1></div></div>","32","32","750","","test","go","239","adv","","",""
"","321","32","1472","0","test_block","poldrack-single-stim","254","348547","0.0-5.0-240.0","go-nogo","false","0","","true","<div class = centerbox><div  id = stim1></div></div>","32","32","750","","test","go","240","adv","","",""
"","357","32","1001","0","test_block","poldrack-single-stim","255","349552","0.0-5.0-241.0","go-nogo","false","0","","true","<div class = centerbox><div  id = stim1></div></div>","32","32","750","","test","go","241","adv","","",""
"","-1","-1","1498","0","test_block","poldrack-single-stim","256","351058","0.0-5.0-242.0","go-nogo","false","0","","true","<div class = centerbox><div  id = stim2></div></div>","-1","32","750","","test","nogo","242","adv","","",""
"","357","32","1252","0","test_block","poldrack-single-stim","257","352314","0.0-5.0-243.0","go-nogo","false","0","","true","<div class = centerbox><div  id = stim1></div></div>","32","32","750","","test","go","243","adv","","",""
"","382","32","1186","0","test_block","poldrack-single-stim","258","353504","0.0-5.0-244.0","go-nogo","false","0","","true","<div class = centerbox><div  id = stim1></div></div>","32","32","750","","test","go","244","adv","","",""
"","409","32","1331","0","test_block","poldrack-single-stim","259","354839","0.0-5.0-245.0","go-nogo","false","0","","true","<div class = centerbox><div  id = stim1></div></div>","32","32","750","","test","go","245","adv","","",""
"","360","32","1300","0","test_block","poldrack-single-stim","260","356142","0.0-5.0-246.0","go-nogo","false","0","","true","<div class = centerbox><div  id = stim1></div></div>","32","32","750","","test","go","246","adv","","",""
"","319","32","1346","0","test_block","poldrack-single-stim","261","357492","0.0-5.0-247.0","go-nogo","false","0","","true","<div class = centerbox><div  id = stim1></div></div>","32","32","750","","test","go","247","adv","","",""
"","310","32","1229","0","test_block","poldrack-single-stim","262","358727","0.0-5.0-248.0","go-nogo","false","0","","true","<div class = centerbox><div  id = stim1></div></div>","32","32","750","","test","go","248","adv","","",""
"","334","32","1331","0","test_block","poldrack-single-stim","263","360062","0.0-5.0-249.0","go-nogo","false","0","","true","<div class = centerbox><div  id = stim1></div></div>","32","32","750","","test","go","249","adv","","",""
"","300","32","1205","0","test_block","poldrack-single-stim","264","361271","0.0-5.0-250.0","go-nogo","false","0","","true","<div class = centerbox><div  id = stim1></div></div>","32","32","750","","test","go","250","adv","","",""
"","348","32","1069","0","test_block","poldrack-single-stim","265","362344","0.0-5.0-251.0","go-nogo","false","0","","true","<div class = centerbox><div  id = stim1></div></div>","32","32","750","","test","go","251","adv","","",""
"","375","32","1006","0","test_block","poldrack-single-stim","266","363353","0.0-5.0-252.0","go-nogo","false","0","","true","<div class = centerbox><div  id = stim1></div></div>","32","32","750","","test","go","252","adv","","",""
"","375","32","1078","0","test_block","poldrack-single-stim","267","364437","0.0-5.0-253.0","go-nogo","false","0","","true","<div class = centerbox><div  id = stim1></div></div>","32","32","750","","test","go","253","adv","","",""
"","320","32","1059","0","test_block","poldrack-single-stim","268","365503","0.0-5.0-254.0","go-nogo","false","0","","true","<div class = centerbox><div  id = stim1></div></div>","32","32","750","","test","go","254","adv","","",""
"","316","32","1386","0","test_block","poldrack-single-stim","269","366893","0.0-5.0-255.0","go-nogo","false","0","","true","<div class = centerbox><div  id = stim1></div></div>","32","32","750","","test","go","255","adv","","",""
"","-1","-1","1381","0","test_block","poldrack-single-stim","270","368278","0.0-5.0-256.0","go-nogo","false","0","","true","<div class = centerbox><div  id = stim2></div></div>","-1","32","750","","test","nogo","256","adv","","",""
"","376","32","1073","0","test_block","poldrack-single-stim","271","369354","0.0-5.0-257.0","go-nogo","false","0","","true","<div class = centerbox><div  id = stim1></div></div>","32","32","750","","test","go","257","adv","","",""
"","366","32","1425","0","test_block","poldrack-single-stim","272","370785","0.0-5.0-258.0","go-nogo","false","0","","true","<div class = centerbox><div  id = stim1></div></div>","32","32","750","","test","go","258","adv","","",""
"","308","32","1105","0","test_block","poldrack-single-stim","273","371894","0.0-5.0-259.0","go-nogo","false","0","","true","<div class = centerbox><div  id = stim1></div></div>","32","32","750","","test","go","259","adv","","",""
"","397","32","1028","0","test_block","poldrack-single-stim","274","372925","0.0-5.0-260.0","go-nogo","false","0","","true","<div class = centerbox><div  id = stim1></div></div>","32","32","750","","test","go","260","adv","","",""
"","406","32","1209","0","test_block","poldrack-single-stim","275","374138","0.0-5.0-261.0","go-nogo","false","0","","true","<div class = centerbox><div  id = stim1></div></div>","32","32","750","","test","go","261","adv","","",""
"","351","32","1440","0","test_block","poldrack-single-stim","276","375581","0.0-5.0-262.0","go-nogo","false","0","","true","<div class = centerbox><div  id = stim1></div></div>","32","32","750","","test","go","262","adv","","",""
"","279","32","1035","0","test_block","poldrack-single-stim","277","376621","0.0-5.0-263.0","go-nogo","false","0","","true","<div class = centerbox><div  id = stim1></div></div>","32","32","750","","test","go","263","adv","","",""
"","401","32","1231","0","test_block","poldrack-single-stim","278","377855","0.0-5.0-264.0","go-nogo","false","0","","true","<div class = centerbox><div  id = stim1></div></div>","32","32","750","","test","go","264","adv","","",""
"","273","32","1444","0","test_block","poldrack-single-stim","279","379304","0.0-5.0-265.0","go-nogo","false","0","","true","<div class = centerbox><div  id = stim1></div></div>","32","32","750","","test","go","265","adv","","",""
"","348","32","1273","0","test_block","poldrack-single-stim","280","380581","0.0-5.0-266.0","go-nogo","false","0","","true","<div class = centerbox><div  id = stim1></div></div>","32","32","750","","test","go","266","adv","","",""
"","346","32","1360","0","test_block","poldrack-single-stim","281","381944","0.0-5.0-267.0","go-nogo","false","0","","true","<div class = centerbox><div  id = stim1></div></div>","32","32","750","","test","go","267","adv","","",""
"","288","32","1259","0","test_block","poldrack-single-stim","282","383207","0.0-5.0-268.0","go-nogo","false","0","","true","<div class = centerbox><div  id = stim1></div></div>","32","32","750","","test","go","268","adv","","",""
"","284","32","1150","0","test_block","poldrack-single-stim","283","384362","0.0-5.0-269.0","go-nogo","false","0","","true","<div class = centerbox><div  id = stim1></div></div>","32","32","750","","test","go","269","adv","","",""
"","621","32","1453","0","test_block","poldrack-single-stim","284","385818","0.0-5.0-270.0","go-nogo","false","0","","true","<div class = centerbox><div  id = stim1></div></div>","32","32","750","","test","go","270","adv","","",""
"","-1","-1","1474","0","test_block","poldrack-single-stim","285","387296","0.0-5.0-271.0","go-nogo","false","0","","true","<div class = centerbox><div  id = stim2></div></div>","-1","32","750","","test","nogo","271","adv","","",""
"","356","32","1274","0","test_block","poldrack-single-stim","286","388576","0.0-5.0-272.0","go-nogo","false","0","","true","<div class = centerbox><div  id = stim1></div></div>","32","32","750","","test","go","272","adv","","",""
"","333","32","1046","0","test_block","poldrack-single-stim","287","389625","0.0-5.0-273.0","go-nogo","false","0","","true","<div class = centerbox><div  id = stim1></div></div>","32","32","750","","test","go","273","adv","","",""
"","348","32","1273","0","test_block","poldrack-single-stim","288","390901","0.0-5.0-274.0","go-nogo","false","0","","true","<div class = centerbox><div  id = stim1></div></div>","32","32","750","","test","go","274","adv","","",""
"","353","32","1424","0","test_block","poldrack-single-stim","289","392329","0.0-5.0-275.0","go-nogo","false","0","","true","<div class = centerbox><div  id = stim1></div></div>","32","32","750","","test","go","275","adv","","",""
"","333","32","1063","0","test_block","poldrack-single-stim","290","393397","0.0-5.0-276.0","go-nogo","false","0","","true","<div class = centerbox><div  id = stim1></div></div>","32","32","750","","test","go","276","adv","","",""
"","357","32","1420","0","test_block","poldrack-single-stim","291","394820","0.0-5.0-277.0","go-nogo","false","0","","true","<div class = centerbox><div  id = stim1></div></div>","32","32","750","","test","go","277","adv","","",""
"","300","32","1060","0","test_block","poldrack-single-stim","292","395884","0.0-5.0-278.0","go-nogo","false","0","","true","<div class = centerbox><div  id = stim1></div></div>","32","32","750","","test","go","278","adv","","",""
"","347","32","1127","0","test_block","poldrack-single-stim","293","397020","0.0-5.0-279.0","go-nogo","false","0","","true","<div class = centerbox><div  id = stim1></div></div>","32","32","750","","test","go","279","adv","","",""
"","329","32","1231","0","test_block","poldrack-single-stim","294","398257","0.0-5.0-280.0","go-nogo","false","0","","true","<div class = centerbox><div  id = stim1></div></div>","32","32","750","","test","go","280","adv","","",""
"","331","32","1423","0","test_block","poldrack-single-stim","295","399684","0.0-5.0-281.0","go-nogo","false","0","","true","<div class = centerbox><div  id = stim1></div></div>","32","32","750","","test","go","281","adv","","",""
"","370","32","1005","0","test_block","poldrack-single-stim","296","400695","0.0-5.0-282.0","go-nogo","false","0","","true","<div class = centerbox><div  id = stim1></div></div>","32","32","750","","test","go","282","adv","","",""
"","363","32","1417","0","test_block","poldrack-single-stim","297","402115","0.0-5.0-283.0","go-nogo","false","0","","true","<div class = centerbox><div  id = stim1></div></div>","32","32","750","","test","go","283","adv","","",""
"","392","32","1077","0","test_block","poldrack-single-stim","298","403196","0.0-5.0-284.0","go-nogo","false","0","","true","<div class = centerbox><div  id = stim1></div></div>","32","32","750","","test","go","284","adv","","",""
"","377","32","1094","0","test_block","poldrack-single-stim","299","404293","0.0-5.0-285.0","go-nogo","false","0","","true","<div class = centerbox><div  id = stim1></div></div>","32","32","750","","test","go","285","adv","","",""
"","-1","-1","1315","0","test_block","poldrack-single-stim","300","405612","0.0-5.0-286.0","go-nogo","false","0","","true","<div class = centerbox><div  id = stim2></div></div>","-1","32","750","","test","nogo","286","adv","","",""
"","294","32","1366","0","test_block","poldrack-single-stim","301","406982","0.0-5.0-287.0","go-nogo","false","0","","true","<div class = centerbox><div  id = stim1></div></div>","32","32","750","","test","go","287","adv","","",""
"","321","32","1396","0","test_block","poldrack-single-stim","302","408391","0.0-5.0-288.0","go-nogo","false","0","","true","<div class = centerbox><div  id = stim1></div></div>","32","32","750","","test","go","288","adv","","",""
"","311","32","1174","0","test_block","poldrack-single-stim","303","409569","0.0-5.0-289.0","go-nogo","false","0","","true","<div class = centerbox><div  id = stim1></div></div>","32","32","750","","test","go","289","adv","","",""
"","321","32","1321","0","test_block","poldrack-single-stim","304","410894","0.0-5.0-290.0","go-nogo","false","0","","true","<div class = centerbox><div  id = stim1></div></div>","32","32","750","","test","go","290","adv","","",""
"","296","32","1346","0","test_block","poldrack-single-stim","305","412244","0.0-5.0-291.0","go-nogo","false","0","","true","<div class = centerbox><div  id = stim1></div></div>","32","32","750","","test","go","291","adv","","",""
"","310","32","1047","0","test_block","poldrack-single-stim","306","413294","0.0-5.0-292.0","go-nogo","false","0","","true","<div class = centerbox><div  id = stim1></div></div>","32","32","750","","test","go","292","adv","","",""
"","443","32","1404","0","test_block","poldrack-single-stim","307","414702","0.0-5.0-293.0","go-nogo","false","0","","true","<div class = centerbox><div  id = stim1></div></div>","32","32","750","","test","go","293","adv","","",""
"","331","32","1443","0","test_block","poldrack-single-stim","308","416150","0.0-5.0-294.0","go-nogo","false","0","","true","<div class = centerbox><div  id = stim1></div></div>","32","32","750","","test","go","294","adv","","",""
"","322","32","1307","0","test_block","poldrack-single-stim","309","417461","0.0-5.0-295.0","go-nogo","false","0","","true","<div class = centerbox><div  id = stim1></div></div>","32","32","750","","test","go","295","adv","","",""
"","340","32","1288","0","test_block","poldrack-single-stim","310","418754","0.0-5.0-296.0","go-nogo","false","0","","true","<div class = centerbox><div  id = stim1></div></div>","32","32","750","","test","go","296","adv","","",""
"","450","32","1367","0","test_block","poldrack-single-stim","311","420124","0.0-5.0-297.0","go-nogo","false","0","","true","<div class = centerbox><div  id = stim1></div></div>","32","32","750","","test","go","297","adv","","",""
"","293","32","1466","0","test_block","poldrack-single-stim","312","421596","0.0-5.0-298.0","go-nogo","false","0","","true","<div class = centerbox><div  id = stim1></div></div>","32","32","750","","test","go","298","adv","","",""
"","262","32","1265","0","test_block","poldrack-single-stim","313","422865","0.0-5.0-299.0","go-nogo","false","0","","true","<div class = centerbox><div  id = stim1></div></div>","32","32","750","","test","go","299","adv","","",""
"","315","32","1022","0","test_block","poldrack-single-stim","314","423890","0.0-5.0-300.0","go-nogo","false","0","","true","<div class = centerbox><div  id = stim1></div></div>","32","32","750","","test","go","300","adv","","",""
"","357","32","1433","0","test_block","poldrack-single-stim","315","425327","0.0-5.0-301.0","go-nogo","false","0","","true","<div class = centerbox><div  id = stim1></div></div>","32","32","750","","test","go","301","adv","","",""
"","291","32","1091","0","test_block","poldrack-single-stim","316","426421","0.0-5.0-302.0","go-nogo","false","0","","true","<div class = centerbox><div  id = stim1></div></div>","32","32","750","","test","go","302","adv","","",""
"","329","32","1471","0","test_block","poldrack-single-stim","317","427896","0.0-5.0-303.0","go-nogo","false","0","","false","<div class = centerbox><div  id = stim2></div></div>","-1","32","750","","test","nogo","303","adv","","",""
"","668","32","1292","0","test_block","poldrack-single-stim","318","429192","0.0-5.0-304.0","go-nogo","false","0","","true","<div class = centerbox><div  id = stim1></div></div>","32","32","750","","test","go","304","adv","","",""
"","379","32","1112","0","test_block","poldrack-single-stim","319","430308","0.0-5.0-305.0","go-nogo","false","0","","true","<div class = centerbox><div  id = stim1></div></div>","32","32","750","","test","go","305","adv","","",""
"","-1","-1","1427","0","test_block","poldrack-single-stim","320","431739","0.0-5.0-306.0","go-nogo","false","0","","true","<div class = centerbox><div  id = stim2></div></div>","-1","32","750","","test","nogo","306","adv","","",""
"","310","32","1271","0","test_block","poldrack-single-stim","321","433014","0.0-5.0-307.0","go-nogo","false","0","","true","<div class = centerbox><div  id = stim1></div></div>","32","32","750","","test","go","307","adv","","",""
"","387","32","1046","0","test_block","poldrack-single-stim","322","434062","0.0-5.0-308.0","go-nogo","false","0","","true","<div class = centerbox><div  id = stim1></div></div>","32","32","750","","test","go","308","adv","","",""
"","-1","-1","1261","0","test_block","poldrack-single-stim","323","435327","0.0-5.0-309.0","go-nogo","false","0","","true","<div class = centerbox><div  id = stim2></div></div>","-1","32","750","","test","nogo","309","adv","","",""
"","348","32","1226","0","test_block","poldrack-single-stim","324","436557","0.0-5.0-310.0","go-nogo","false","0","","true","<div class = centerbox><div  id = stim1></div></div>","32","32","750","","test","go","310","adv","","",""
"","372","32","1234","0","test_block","poldrack-single-stim","325","437795","0.0-5.0-311.0","go-nogo","false","0","","true","<div class = centerbox><div  id = stim1></div></div>","32","32","750","","test","go","311","adv","","",""
"","452","32","1283","0","test_block","poldrack-single-stim","326","439083","0.0-5.0-312.0","go-nogo","false","0","","true","<div class = centerbox><div  id = stim1></div></div>","32","32","750","","test","go","312","adv","","",""
"","380","32","1424","0","test_block","poldrack-single-stim","327","440511","0.0-5.0-313.0","go-nogo","false","0","","true","<div class = centerbox><div  id = stim1></div></div>","32","32","750","","test","go","313","adv","","",""
"","374","32","1329","0","test_block","poldrack-single-stim","328","441843","0.0-5.0-314.0","go-nogo","false","0","","true","<div class = centerbox><div  id = stim1></div></div>","32","32","750","","test","go","314","adv","","",""
"","356","32","1455","0","test_block","poldrack-single-stim","329","443301","0.0-5.0-315.0","go-nogo","false","0","","true","<div class = centerbox><div  id = stim1></div></div>","32","32","750","","test","go","315","adv","","",""
"","319","32","1021","0","test_block","poldrack-single-stim","330","444326","0.0-5.0-316.0","go-nogo","false","0","","true","<div class = centerbox><div  id = stim1></div></div>","32","32","750","","test","go","316","adv","","",""
"","384","32","1357","0","test_block","poldrack-single-stim","331","445686","0.0-5.0-317.0","go-nogo","false","0","","true","<div class = centerbox><div  id = stim1></div></div>","32","32","750","","test","go","317","adv","","",""
"","356","32","1292","0","test_block","poldrack-single-stim","332","446982","0.0-5.0-318.0","go-nogo","false","0","","true","<div class = centerbox><div  id = stim1></div></div>","32","32","750","","test","go","318","adv","","",""
"","-1","-1","1301","0","test_block","poldrack-single-stim","333","448287","0.0-5.0-319.0","go-nogo","false","0","","true","<div class = centerbox><div  id = stim2></div></div>","-1","32","750","","test","nogo","319","adv","","",""
"","402","32","1318","0","test_block","poldrack-single-stim","334","449609","0.0-5.0-320.0","go-nogo","false","0","","true","<div class = centerbox><div  id = stim1></div></div>","32","32","750","","test","go","320","adv","","",""
"","342","32","1017","0","test_block","poldrack-single-stim","335","450630","0.0-5.0-321.0","go-nogo","false","0","","true","<div class = centerbox><div  id = stim1></div></div>","32","32","750","","test","go","321","adv","","",""
"","342","32","1382","0","test_block","poldrack-single-stim","336","452016","0.0-5.0-322.0","go-nogo","false","0","","true","<div class = centerbox><div  id = stim1></div></div>","32","32","750","","test","go","322","adv","","",""
"","372","32","1330","0","test_block","poldrack-single-stim","337","453350","0.0-5.0-323.0","go-nogo","false","0","","true","<div class = centerbox><div  id = stim1></div></div>","32","32","750","","test","go","323","adv","","",""
"","350","32","1018","0","test_block","poldrack-single-stim","338","454372","0.0-5.0-324.0","go-nogo","false","0","","true","<div class = centerbox><div  id = stim1></div></div>","32","32","750","","test","go","324","adv","","",""
"","363","32","1337","0","test_block","poldrack-single-stim","339","455713","0.0-5.0-325.0","go-nogo","false","0","","true","<div class = centerbox><div  id = stim1></div></div>","32","32","750","","test","go","325","adv","","",""
"","336","32","1260","0","test_block","poldrack-single-stim","340","456979","0.0-5.0-326.0","go-nogo","false","0","","true","<div class = centerbox><div  id = stim1></div></div>","32","32","750","","test","go","326","adv","","",""
"","308","32","1436","0","test_block","poldrack-single-stim","341","458420","0.0-5.0-327.0","go-nogo","false","0","","true","<div class = centerbox><div  id = stim1></div></div>","32","32","750","","test","go","327","adv","","",""
"","351","32","1190","0","test_block","poldrack-single-stim","342","459614","0.0-5.0-328.0","go-nogo","false","0","","true","<div class = centerbox><div  id = stim1></div></div>","32","32","750","","test","go","328","adv","","",""
"","307","32","1351","0","test_block","poldrack-single-stim","343","460970","0.0-5.0-329.0","go-nogo","false","0","","true","<div class = centerbox><div  id = stim1></div></div>","32","32","750","","test","go","329","adv","","",""
"","323","32","1430","0","test_block","poldrack-single-stim","344","462404","0.0-5.0-330.0","go-nogo","false","0","","true","<div class = centerbox><div  id = stim1></div></div>","32","32","750","","test","go","330","adv","","",""
"","317","32","1383","0","test_block","poldrack-single-stim","345","463791","0.0-5.0-331.0","go-nogo","false","0","","true","<div class = centerbox><div  id = stim1></div></div>","32","32","750","","test","go","331","adv","","",""
"","298","32","1314","0","test_block","poldrack-single-stim","346","465111","0.0-5.0-332.0","go-nogo","false","0","","true","<div class = centerbox><div  id = stim1></div></div>","32","32","750","","test","go","332","adv","","",""
"","361","32","1453","0","test_block","poldrack-single-stim","347","466568","0.0-5.0-333.0","go-nogo","false","0","","true","<div class = centerbox><div  id = stim1></div></div>","32","32","750","","test","go","333","adv","","",""
"","342","32","1018","0","test_block","poldrack-single-stim","348","467590","0.0-5.0-334.0","go-nogo","false","0","","true","<div class = centerbox><div  id = stim1></div></div>","32","32","750","","test","go","334","adv","","",""
"","431","32","1232","0","test_block","poldrack-single-stim","349","468826","0.0-5.0-335.0","go-nogo","false","0","","true","<div class = centerbox><div  id = stim1></div></div>","32","32","750","","test","go","335","adv","","",""
"","307","32","1275","0","test_block","poldrack-single-stim","350","470103","0.0-5.0-336.0","go-nogo","false","0","","true","<div class = centerbox><div  id = stim1></div></div>","32","32","750","","test","go","336","adv","","",""
"","-1","-1","1405","0","test_block","poldrack-single-stim","351","471512","0.0-5.0-337.0","go-nogo","false","0","","true","<div class = centerbox><div  id = stim2></div></div>","-1","32","750","","test","nogo","337","adv","","",""
"","-1","-1","1150","0","test_block","poldrack-single-stim","352","472667","0.0-5.0-338.0","go-nogo","false","0","","true","<div class = centerbox><div  id = stim2></div></div>","-1","32","750","","test","nogo","338","adv","","",""
"","-1","-1","1048","0","test_block","poldrack-single-stim","353","473719","0.0-5.0-339.0","go-nogo","false","0","","true","<div class = centerbox><div  id = stim2></div></div>","-1","32","750","","test","nogo","339","adv","","",""
"","-1","-1","1118","0","test_block","poldrack-single-stim","354","474843","0.0-5.0-340.0","go-nogo","false","0","","true","<div class = centerbox><div  id = stim2></div></div>","-1","32","750","","test","nogo","340","adv","","",""
"","-1","-1","1311","0","test_block","poldrack-single-stim","355","476158","0.0-5.0-341.0","go-nogo","false","0","","true","<div class = centerbox><div  id = stim2></div></div>","-1","32","750","","test","nogo","341","adv","","",""
"","-1","-1","1497","0","test_block","poldrack-single-stim","356","477661","0.0-5.0-342.0","go-nogo","false","0","","true","<div class = centerbox><div  id = stim2></div></div>","-1","32","750","","test","nogo","342","adv","","",""
"","-1","-1","1270","0","test_block","poldrack-single-stim","357","478935","0.0-5.0-343.0","go-nogo","false","0","","true","<div class = centerbox><div  id = stim2></div></div>","-1","32","750","","test","nogo","343","adv","","",""
"","-1","-1","1437","0","test_block","poldrack-single-stim","358","480378","0.0-5.0-344.0","go-nogo","false","0","","true","<div class = centerbox><div  id = stim2></div></div>","-1","32","750","","test","nogo","344","adv","","",""
"","-1","-1","1360","0","test_block","poldrack-single-stim","359","481742","0.0-5.0-345.0","go-nogo","false","0","","true","<div class = centerbox><div  id = stim2></div></div>","-1","32","750","","test","nogo","345","adv","","",""
"","-1","-1","1222","0","test_block","poldrack-single-stim","360","482968","0.0-5.0-346.0","go-nogo","false","0","","true","<div class = centerbox><div  id = stim2></div></div>","-1","32","750","","test","nogo","346","adv","","",""
"","-1","-1","1379","0","test_block","poldrack-single-stim","361","484351","0.0-5.0-347.0","go-nogo","false","0","","true","<div class = centerbox><div  id = stim2></div></div>","-1","32","750","","test","nogo","347","adv","","",""
"","-1","-1","1256","0","test_block","poldrack-single-stim","362","485611","0.0-5.0-348.0","go-nogo","false","0","","true","<div class = centerbox><div  id = stim2></div></div>","-1","32","750","","test","nogo","348","adv","","",""
"","-1","-1","1158","0","test_block","poldrack-single-stim","363","486774","0.0-5.0-349.0","go-nogo","false","0","","true","<div class = centerbox><div  id = stim2></div></div>","-1","32","750","","test","nogo","349","adv","","",""
"","53632","","","","post task questions","survey-text","364","540412","0.0-7.0","go-nogo","false","0","","","","","","","","","","","","{""Q0"":""I was asked to press the spacebar when there was an orange square and not to when the square was blue."",""Q1"":""It's underpaid.""}","",""
"<div class = centerbox><p class = center-block-text>Thanks for completing this task!</p><p class = center-block-text>Insert the following code to collect your payment at Amazon Mechanical Turk:</p><p class = center-block-text>459404317</p><p class = center-block-text>Press <strong>enter</strong> to continue.</p></div>","3734","13","3734","0","end","poldrack-text","365","545147","0.0-8.0","go-nogo","false","0","","","","","","","","","","","","","459404317","true"
