"text","rt","key_press","block_duration","timing_post_trial","trial_id","trial_type","trial_index","time_elapsed","internal_node_id","exp_id","full_screen","focus_shifts","view_history","correct","stimulus","correct_response","possible_responses","stim_duration","feedback_duration","exp_stage","condition","trial_num","mode","responses","payment_id","credit_var"
"<div class = centerbox><p class = center-block-text>Welcome to the experiment. This task will take around 10 minutes. Press <strong>enter</strong> to begin.</p></div>","3095","13","3095","0","instruction","poldrack-text","0","3097","0.0-0.0-0.0","go-nogo","true","0","","","","","","","","","","","","","",""
"","9763","","","","instruction","poldrack-instructions","1","12861","0.0-0.0-1.0","go-nogo","true","0","[{""page_index"":0,""viewing_time"":9753}]","","","","","","","","","","","","",""
"","-1","-1","1288","250","practice","poldrack-categorize","2","16161","0.0-1.0-0.0","go-nogo","true","0","","true","<div class = centerbox><div id = stim1></div></div>","-1","32","750","1000","practice","nogo","0","adv","","",""
"","440","32","1309","250","practice","poldrack-categorize","3","18737","0.0-1.0-1.0","go-nogo","true","0","","true","<div class = centerbox><div  id = stim2></div></div>","32","32","750","1000","practice","go","1","adv","","",""
"","-1","-1","1498","250","practice","poldrack-categorize","4","21499","0.0-1.0-2.0","go-nogo","true","0","","true","<div class = centerbox><div id = stim1></div></div>","-1","32","750","1000","practice","nogo","2","adv","","",""
"","660","32","1318","250","practice","poldrack-categorize","5","24076","0.0-1.0-3.0","go-nogo","true","0","","false","<div class = centerbox><div id = stim1></div></div>","-1","32","750","1000","practice","nogo","3","adv","","",""
"","-1","-1","1055","250","practice","poldrack-categorize","6","26393","0.0-1.0-4.0","go-nogo","true","0","","false","<div class = centerbox><div  id = stim2></div></div>","32","32","750","1000","practice","go","4","adv","","",""
"","-1","-1","1173","250","practice","poldrack-categorize","7","28820","0.0-1.0-5.0","go-nogo","true","0","","true","<div class = centerbox><div id = stim1></div></div>","-1","32","750","1000","practice","nogo","5","adv","","",""
"","571","32","1237","250","practice","poldrack-categorize","8","31309","0.0-1.0-6.0","go-nogo","true","0","","true","<div class = centerbox><div  id = stim2></div></div>","32","32","750","1000","practice","go","6","adv","","",""
"","513","32","1200","250","practice","poldrack-categorize","9","33772","0.0-1.0-7.0","go-nogo","true","0","","false","<div class = centerbox><div id = stim1></div></div>","-1","32","750","1000","practice","nogo","7","adv","","",""
"","852","32","1375","250","practice","poldrack-categorize","10","36404","0.0-1.0-8.0","go-nogo","true","0","","true","<div class = centerbox><div  id = stim2></div></div>","32","32","750","1000","practice","go","8","adv","","",""
"","804","32","1492","250","practice","poldrack-categorize","11","39150","0.0-1.0-9.0","go-nogo","true","0","","true","<div class = centerbox><div  id = stim2></div></div>","32","32","750","1000","practice","go","9","adv","","",""
"","","","","","reset_trial","call-function","12","39401","0.0-3.0","go-nogo","true","0","","","","","","","","","","","","","",""
"<div class = centerbox><p class = block-text>Practice is over, we will now begin the experiment. You will no longer get feedback about your responses.</p><p class = block-text>Remember, if you see the <font color=""blue"">blue</font> square you should <strong> respond by pressing the spacebar as quickly as possible</strong>. If you see the <font color=""orange"">orange</font> square you should <strong> not respond</strong>. Press <strong>enter</strong> to begin.</p></div>","6113","13","6113","1000","test_intro","poldrack-text","13","45516","0.0-4.0","go-nogo","true","0","","","","","","","","","","","","","",""
"","491","32","1072","0","test_block","poldrack-single-stim","14","47600","0.0-5.0-0.0","go-nogo","true","0","","true","<div class = centerbox><div  id = stim2></div></div>","32","32","750","","test","go","0","adv","","",""
"","568","32","1405","0","test_block","poldrack-single-stim","15","49091","0.0-5.0-1.0","go-nogo","true","0","","true","<div class = centerbox><div  id = stim2></div></div>","32","32","750","","test","go","1","adv","","",""
"","380","32","1482","0","test_block","poldrack-single-stim","16","50608","0.0-5.0-2.0","go-nogo","true","0","","true","<div class = centerbox><div  id = stim2></div></div>","32","32","750","","test","go","2","adv","","",""
"","356","32","1260","0","test_block","poldrack-single-stim","17","51891","0.0-5.0-3.0","go-nogo","true","0","","true","<div class = centerbox><div  id = stim2></div></div>","32","32","750","","test","go","3","adv","","",""
"","328","32","1022","0","test_block","poldrack-single-stim","18","52944","0.0-5.0-4.0","go-nogo","true","0","","true","<div class = centerbox><div  id = stim2></div></div>","32","32","750","","test","go","4","adv","","",""
"","310","32","1465","0","test_block","poldrack-single-stim","19","54520","0.0-5.0-5.0","go-nogo","true","0","","true","<div class = centerbox><div  id = stim2></div></div>","32","32","750","","test","go","5","adv","","",""
"","303","32","1312","0","test_block","poldrack-single-stim","20","55877","0.0-5.0-6.0","go-nogo","true","0","","true","<div class = centerbox><div  id = stim2></div></div>","32","32","750","","test","go","6","adv","","",""
"","329","32","1215","0","test_block","poldrack-single-stim","21","57146","0.0-5.0-7.0","go-nogo","true","0","","true","<div class = centerbox><div  id = stim2></div></div>","32","32","750","","test","go","7","adv","","",""
"","10","32","1367","0","test_block","poldrack-single-stim","22","58560","0.0-5.0-8.0","go-nogo","true","0","","true","<div class = centerbox><div  id = stim2></div></div>","32","32","750","","test","go","8","adv","","",""
"","-1","-1","1358","0","test_block","poldrack-single-stim","23","59934","0.0-5.0-9.0","go-nogo","true","0","","false","<div class = centerbox><div  id = stim2></div></div>","32","32","750","","test","go","9","adv","","",""
"","144","32","1386","0","test_block","poldrack-single-stim","24","61357","0.0-5.0-10.0","go-nogo","true","0","","true","<div class = centerbox><div  id = stim2></div></div>","32","32","750","","test","go","10","adv","","",""
"","157","32","1009","0","test_block","poldrack-single-stim","25","62400","0.0-5.0-11.0","go-nogo","true","0","","false","<div class = centerbox><div  id = stim1></div></div>","-1","32","750","","test","nogo","11","adv","","",""
"","530","32","1020","0","test_block","poldrack-single-stim","26","63440","0.0-5.0-12.0","go-nogo","true","0","","false","<div class = centerbox><div  id = stim1></div></div>","-1","32","750","","test","nogo","12","adv","","",""
"","86","32","1449","0","test_block","poldrack-single-stim","27","64905","0.0-5.0-13.0","go-nogo","true","0","","false","<div class = centerbox><div  id = stim1></div></div>","-1","32","750","","test","nogo","13","adv","","",""
"","1","32","1119","0","test_block","poldrack-single-stim","28","66112","0.0-5.0-14.0","go-nogo","true","0","","true","<div class = centerbox><div  id = stim2></div></div>","32","32","750","","test","go","14","adv","","",""
"","129","32","1275","0","test_block","poldrack-single-stim","29","67406","0.0-5.0-15.0","go-nogo","true","0","","true","<div class = centerbox><div  id = stim2></div></div>","32","32","750","","test","go","15","adv","","",""
"","62","32","1247","0","test_block","poldrack-single-stim","30","68693","0.0-5.0-16.0","go-nogo","true","0","","true","<div class = centerbox><div  id = stim2></div></div>","32","32","750","","test","go","16","adv","","",""
"","264","32","1323","0","test_block","poldrack-single-stim","31","70045","0.0-5.0-17.0","go-nogo","true","0","","true","<div class = centerbox><div  id = stim2></div></div>","32","32","750","","test","go","17","adv","","",""
"","275","32","1135","0","test_block","poldrack-single-stim","32","71193","0.0-5.0-18.0","go-nogo","true","0","","true","<div class = centerbox><div  id = stim2></div></div>","32","32","750","","test","go","18","adv","","",""
"","308","32","1082","0","test_block","poldrack-single-stim","33","72289","0.0-5.0-19.0","go-nogo","true","0","","true","<div class = centerbox><div  id = stim2></div></div>","32","32","750","","test","go","19","adv","","",""
"","408","32","1120","0","test_block","poldrack-single-stim","34","73429","0.0-5.0-20.0","go-nogo","true","0","","true","<div class = centerbox><div  id = stim2></div></div>","32","32","750","","test","go","20","adv","","",""
"","346","32","1094","0","test_block","poldrack-single-stim","35","74543","0.0-5.0-21.0","go-nogo","true","0","","true","<div class = centerbox><div  id = stim2></div></div>","32","32","750","","test","go","21","adv","","",""
"","331","32","1288","0","test_block","poldrack-single-stim","36","75842","0.0-5.0-22.0","go-nogo","true","0","","true","<div class = centerbox><div  id = stim2></div></div>","32","32","750","","test","go","22","adv","","",""
"","310","32","1124","0","test_block","poldrack-single-stim","37","76978","0.0-5.0-23.0","go-nogo","true","0","","true","<div class = centerbox><div  id = stim2></div></div>","32","32","750","","test","go","23","adv","","",""
"","228","32","1066","0","test_block","poldrack-single-stim","38","78058","0.0-5.0-24.0","go-nogo","true","0","","true","<div class = centerbox><div  id = stim2></div></div>","32","32","750","","test","go","24","adv","","",""
"","251","32","1080","0","test_block","poldrack-single-stim","39","79153","0.0-5.0-25.0","go-nogo","true","0","","true","<div class = centerbox><div  id = stim2></div></div>","32","32","750","","test","go","25","adv","","",""
"","17","32","1200","0","test_block","poldrack-single-stim","40","80378","0.0-5.0-26.0","go-nogo","true","0","","true","<div class = centerbox><div  id = stim2></div></div>","32","32","750","","test","go","26","adv","","",""
"","127","32","1443","0","test_block","poldrack-single-stim","41","81859","0.0-5.0-27.0","go-nogo","true","0","","true","<div class = centerbox><div  id = stim2></div></div>","32","32","750","","test","go","27","adv","","",""
"","15","32","1454","0","test_block","poldrack-single-stim","42","83328","0.0-5.0-28.0","go-nogo","true","0","","true","<div class = centerbox><div  id = stim2></div></div>","32","32","750","","test","go","28","adv","","",""
"","430","32","1012","0","test_block","poldrack-single-stim","43","84353","0.0-5.0-29.0","go-nogo","true","0","","true","<div class = centerbox><div  id = stim2></div></div>","32","32","750","","test","go","29","adv","","",""
"","673","32","1252","0","test_block","poldrack-single-stim","44","85616","0.0-5.0-30.0","go-nogo","true","0","","true","<div class = centerbox><div  id = stim2></div></div>","32","32","750","","test","go","30","adv","","",""
"","-1","-1","1462","0","test_block","poldrack-single-stim","45","87099","0.0-5.0-31.0","go-nogo","true","0","","false","<div class = centerbox><div  id = stim2></div></div>","32","32","750","","test","go","31","adv","","",""
"","2","32","1370","0","test_block","poldrack-single-stim","46","88492","0.0-5.0-32.0","go-nogo","true","0","","true","<div class = centerbox><div  id = stim2></div></div>","32","32","750","","test","go","32","adv","","",""
"","591","32","1280","0","test_block","poldrack-single-stim","47","89805","0.0-5.0-33.0","go-nogo","true","0","","false","<div class = centerbox><div  id = stim1></div></div>","-1","32","750","","test","nogo","33","adv","","",""
"","-1","-1","1020","0","test_block","poldrack-single-stim","48","90856","0.0-5.0-34.0","go-nogo","true","0","","true","<div class = centerbox><div  id = stim1></div></div>","-1","32","750","","test","nogo","34","adv","","",""
"","911","32","1313","0","test_block","poldrack-single-stim","49","92182","0.0-5.0-35.0","go-nogo","true","0","","true","<div class = centerbox><div  id = stim2></div></div>","32","32","750","","test","go","35","adv","","",""
"","577","32","1373","0","test_block","poldrack-single-stim","50","93572","0.0-5.0-36.0","go-nogo","true","0","","true","<div class = centerbox><div  id = stim2></div></div>","32","32","750","","test","go","36","adv","","",""
"","466","32","1188","0","test_block","poldrack-single-stim","51","94774","0.0-5.0-37.0","go-nogo","true","0","","true","<div class = centerbox><div  id = stim2></div></div>","32","32","750","","test","go","37","adv","","",""
"","574","32","1194","0","test_block","poldrack-single-stim","52","96000","0.0-5.0-38.0","go-nogo","true","0","","true","<div class = centerbox><div  id = stim2></div></div>","32","32","750","","test","go","38","adv","","",""
"","454","32","1434","0","test_block","poldrack-single-stim","53","97451","0.0-5.0-39.0","go-nogo","true","0","","true","<div class = centerbox><div  id = stim2></div></div>","32","32","750","","test","go","39","adv","","",""
"","431","32","1235","0","test_block","poldrack-single-stim","54","98712","0.0-5.0-40.0","go-nogo","true","0","","true","<div class = centerbox><div  id = stim2></div></div>","32","32","750","","test","go","40","adv","","",""
"","328","32","1360","0","test_block","poldrack-single-stim","55","100092","0.0-5.0-41.0","go-nogo","true","0","","true","<div class = centerbox><div  id = stim2></div></div>","32","32","750","","test","go","41","adv","","",""
"","286","32","1110","0","test_block","poldrack-single-stim","56","101219","0.0-5.0-42.0","go-nogo","true","0","","true","<div class = centerbox><div  id = stim2></div></div>","32","32","750","","test","go","42","adv","","",""
"","292","32","1175","0","test_block","poldrack-single-stim","57","102420","0.0-5.0-43.0","go-nogo","true","0","","true","<div class = centerbox><div  id = stim2></div></div>","32","32","750","","test","go","43","adv","","",""
"","321","32","1262","0","test_block","poldrack-single-stim","58","103769","0.0-5.0-44.0","go-nogo","true","0","","true","<div class = centerbox><div  id = stim2></div></div>","32","32","750","","test","go","44","adv","","",""
"","198","32","1376","0","test_block","poldrack-single-stim","59","105164","0.0-5.0-45.0","go-nogo","true","0","","true","<div class = centerbox><div  id = stim2></div></div>","32","32","750","","test","go","45","adv","","",""
"","282","32","1003","0","test_block","poldrack-single-stim","60","106180","0.0-5.0-46.0","go-nogo","true","0","","true","<div class = centerbox><div  id = stim2></div></div>","32","32","750","","test","go","46","adv","","",""
"","324","32","1237","0","test_block","poldrack-single-stim","61","107430","0.0-5.0-47.0","go-nogo","true","0","","true","<div class = centerbox><div  id = stim2></div></div>","32","32","750","","test","go","47","adv","","",""
"","283","32","1205","0","test_block","poldrack-single-stim","62","108656","0.0-5.0-48.0","go-nogo","true","0","","true","<div class = centerbox><div  id = stim2></div></div>","32","32","750","","test","go","48","adv","","",""
"","301","32","1346","0","test_block","poldrack-single-stim","63","110018","0.0-5.0-49.0","go-nogo","true","0","","true","<div class = centerbox><div  id = stim2></div></div>","32","32","750","","test","go","49","adv","","",""
"","98","32","1362","0","test_block","poldrack-single-stim","64","111434","0.0-5.0-50.0","go-nogo","true","0","","true","<div class = centerbox><div  id = stim2></div></div>","32","32","750","","test","go","50","adv","","",""
"","193","32","1275","0","test_block","poldrack-single-stim","65","112719","0.0-5.0-51.0","go-nogo","true","0","","true","<div class = centerbox><div  id = stim2></div></div>","32","32","750","","test","go","51","adv","","",""
"","305","32","1199","0","test_block","poldrack-single-stim","66","113963","0.0-5.0-52.0","go-nogo","true","0","","true","<div class = centerbox><div  id = stim2></div></div>","32","32","750","","test","go","52","adv","","",""
"","360","32","1043","0","test_block","poldrack-single-stim","67","115015","0.0-5.0-53.0","go-nogo","true","0","","true","<div class = centerbox><div  id = stim2></div></div>","32","32","750","","test","go","53","adv","","",""
"","381","32","1345","0","test_block","poldrack-single-stim","68","116368","0.0-5.0-54.0","go-nogo","true","0","","true","<div class = centerbox><div  id = stim2></div></div>","32","32","750","","test","go","54","adv","","",""
"","1044","32","1092","0","test_block","poldrack-single-stim","69","117469","0.0-5.0-55.0","go-nogo","true","0","","true","<div class = centerbox><div  id = stim2></div></div>","32","32","750","","test","go","55","adv","","",""
"","1228","32","1257","0","test_block","poldrack-single-stim","70","118737","0.0-5.0-56.0","go-nogo","true","0","","true","<div class = centerbox><div  id = stim2></div></div>","32","32","750","","test","go","56","adv","","",""
"","731","32","1202","0","test_block","poldrack-single-stim","71","119985","0.0-5.0-57.0","go-nogo","true","0","","true","<div class = centerbox><div  id = stim2></div></div>","32","32","750","","test","go","57","adv","","",""
"","329","32","1029","0","test_block","poldrack-single-stim","72","121023","0.0-5.0-58.0","go-nogo","true","0","","true","<div class = centerbox><div  id = stim2></div></div>","32","32","750","","test","go","58","adv","","",""
"","554","32","1155","0","test_block","poldrack-single-stim","73","122209","0.0-5.0-59.0","go-nogo","true","0","","true","<div class = centerbox><div  id = stim2></div></div>","32","32","750","","test","go","59","adv","","",""
"","329","32","1101","0","test_block","poldrack-single-stim","74","123321","0.0-5.0-60.0","go-nogo","true","0","","true","<div class = centerbox><div  id = stim2></div></div>","32","32","750","","test","go","60","adv","","",""
"","282","32","1334","0","test_block","poldrack-single-stim","75","124674","0.0-5.0-61.0","go-nogo","true","0","","true","<div class = centerbox><div  id = stim2></div></div>","32","32","750","","test","go","61","adv","","",""
"","317","32","1344","0","test_block","poldrack-single-stim","76","126039","0.0-5.0-62.0","go-nogo","true","0","","true","<div class = centerbox><div  id = stim2></div></div>","32","32","750","","test","go","62","adv","","",""
"","273","32","1263","0","test_block","poldrack-single-stim","77","127314","0.0-5.0-63.0","go-nogo","true","0","","true","<div class = centerbox><div  id = stim2></div></div>","32","32","750","","test","go","63","adv","","",""
"","322","32","1466","0","test_block","poldrack-single-stim","78","128796","0.0-5.0-64.0","go-nogo","true","0","","true","<div class = centerbox><div  id = stim2></div></div>","32","32","750","","test","go","64","adv","","",""
"","306","32","1014","0","test_block","poldrack-single-stim","79","129818","0.0-5.0-65.0","go-nogo","true","0","","true","<div class = centerbox><div  id = stim2></div></div>","32","32","750","","test","go","65","adv","","",""
"","426","32","1474","0","test_block","poldrack-single-stim","80","131306","0.0-5.0-66.0","go-nogo","true","0","","true","<div class = centerbox><div  id = stim2></div></div>","32","32","750","","test","go","66","adv","","",""
"","242","32","1144","0","test_block","poldrack-single-stim","81","132460","0.0-5.0-67.0","go-nogo","true","0","","true","<div class = centerbox><div  id = stim2></div></div>","32","32","750","","test","go","67","adv","","",""
"","590","32","1360","0","test_block","poldrack-single-stim","82","133841","0.0-5.0-68.0","go-nogo","true","0","","true","<div class = centerbox><div  id = stim2></div></div>","32","32","750","","test","go","68","adv","","",""
"","355","32","1276","0","test_block","poldrack-single-stim","83","135126","0.0-5.0-69.0","go-nogo","true","0","","true","<div class = centerbox><div  id = stim2></div></div>","32","32","750","","test","go","69","adv","","",""
"","415","32","1295","0","test_block","poldrack-single-stim","84","136439","0.0-5.0-70.0","go-nogo","true","0","","true","<div class = centerbox><div  id = stim2></div></div>","32","32","750","","test","go","70","adv","","",""
"","620","32","1141","0","test_block","poldrack-single-stim","85","137591","0.0-5.0-71.0","go-nogo","true","0","","true","<div class = centerbox><div  id = stim2></div></div>","32","32","750","","test","go","71","adv","","",""
"","576","32","1307","0","test_block","poldrack-single-stim","86","138912","0.0-5.0-72.0","go-nogo","true","0","","true","<div class = centerbox><div  id = stim2></div></div>","32","32","750","","test","go","72","adv","","",""
"","645","32","1056","0","test_block","poldrack-single-stim","87","140073","0.0-5.0-73.0","go-nogo","true","0","","true","<div class = centerbox><div  id = stim2></div></div>","32","32","750","","test","go","73","adv","","",""
"","305","32","1180","0","test_block","poldrack-single-stim","88","141272","0.0-5.0-74.0","go-nogo","true","0","","true","<div class = centerbox><div  id = stim2></div></div>","32","32","750","","test","go","74","adv","","",""
"","261","32","1493","0","test_block","poldrack-single-stim","89","142787","0.0-5.0-75.0","go-nogo","true","0","","true","<div class = centerbox><div  id = stim2></div></div>","32","32","750","","test","go","75","adv","","",""
"","290","32","1153","0","test_block","poldrack-single-stim","90","143957","0.0-5.0-76.0","go-nogo","true","0","","true","<div class = centerbox><div  id = stim2></div></div>","32","32","750","","test","go","76","adv","","",""
"","310","32","1444","0","test_block","poldrack-single-stim","91","145414","0.0-5.0-77.0","go-nogo","true","0","","true","<div class = centerbox><div  id = stim2></div></div>","32","32","750","","test","go","77","adv","","",""
"","314","32","1093","0","test_block","poldrack-single-stim","92","146530","0.0-5.0-78.0","go-nogo","true","0","","true","<div class = centerbox><div  id = stim2></div></div>","32","32","750","","test","go","78","adv","","",""
"","442","32","1370","0","test_block","poldrack-single-stim","93","147968","0.0-5.0-79.0","go-nogo","true","0","","true","<div class = centerbox><div  id = stim2></div></div>","32","32","750","","test","go","79","adv","","",""
"","374","32","1214","0","test_block","poldrack-single-stim","94","149197","0.0-5.0-80.0","go-nogo","true","0","","true","<div class = centerbox><div  id = stim2></div></div>","32","32","750","","test","go","80","adv","","",""
"","390","32","1271","0","test_block","poldrack-single-stim","95","150496","0.0-5.0-81.0","go-nogo","true","0","","true","<div class = centerbox><div  id = stim2></div></div>","32","32","750","","test","go","81","adv","","",""
"","-1","-1","1251","0","test_block","poldrack-single-stim","96","151766","0.0-5.0-82.0","go-nogo","true","0","","false","<div class = centerbox><div  id = stim2></div></div>","32","32","750","","test","go","82","adv","","",""
"","-1","-1","1363","0","test_block","poldrack-single-stim","97","153143","0.0-5.0-83.0","go-nogo","true","0","","false","<div class = centerbox><div  id = stim2></div></div>","32","32","750","","test","go","83","adv","","",""
"","-1","-1","1017","0","test_block","poldrack-single-stim","98","154938","0.0-5.0-84.0","go-nogo","true","1","","false","<div class = centerbox><div  id = stim2></div></div>","32","32","750","","test","go","84","adv","","",""
"","-1","-1","1330","0","test_block","poldrack-single-stim","99","157004","0.0-5.0-85.0","go-nogo","true","0","","false","<div class = centerbox><div  id = stim2></div></div>","32","32","750","","test","go","85","adv","","",""
"","-1","-1","1367","0","test_block","poldrack-single-stim","100","158939","0.0-5.0-86.0","go-nogo","true","0","","false","<div class = centerbox><div  id = stim2></div></div>","32","32","750","","test","go","86","adv","","",""
"","-1","-1","1342","0","test_block","poldrack-single-stim","101","160941","0.0-5.0-87.0","go-nogo","true","0","","false","<div class = centerbox><div  id = stim2></div></div>","32","32","750","","test","go","87","adv","","",""
"","-1","-1","1440","0","test_block","poldrack-single-stim","102","162939","0.0-5.0-88.0","go-nogo","true","0","","false","<div class = centerbox><div  id = stim2></div></div>","32","32","750","","test","go","88","adv","","",""
"","-1","-1","1319","0","test_block","poldrack-single-stim","103","164969","0.0-5.0-89.0","go-nogo","true","0","","false","<div class = centerbox><div  id = stim2></div></div>","32","32","750","","test","go","89","adv","","",""
"","-1","-1","1377","0","test_block","poldrack-single-stim","104","166948","0.0-5.0-90.0","go-nogo","true","0","","false","<div class = centerbox><div  id = stim2></div></div>","32","32","750","","test","go","90","adv","","",""
"","-1","-1","1372","0","test_block","poldrack-single-stim","105","168992","0.0-5.0-91.0","go-nogo","true","0","","false","<div class = centerbox><div  id = stim2></div></div>","32","32","750","","test","go","91","adv","","",""
"","-1","-1","1185","0","test_block","poldrack-single-stim","106","170936","0.0-5.0-92.0","go-nogo","true","0","","false","<div class = centerbox><div  id = stim2></div></div>","32","32","750","","test","go","92","adv","","",""
"","-1","-1","1377","0","test_block","poldrack-single-stim","107","172963","0.0-5.0-93.0","go-nogo","true","0","","false","<div class = centerbox><div  id = stim2></div></div>","32","32","750","","test","go","93","adv","","",""
"","-1","-1","1325","0","test_block","poldrack-single-stim","108","174959","0.0-5.0-94.0","go-nogo","true","0","","false","<div class = centerbox><div  id = stim2></div></div>","32","32","750","","test","go","94","adv","","",""
"","-1","-1","1319","0","test_block","poldrack-single-stim","109","176292","0.0-5.0-95.0","go-nogo","true","0","","false","<div class = centerbox><div  id = stim2></div></div>","32","32","750","","test","go","95","adv","","",""
"","1223","32","1493","0","test_block","poldrack-single-stim","110","177794","0.0-5.0-96.0","go-nogo","true","0","","true","<div class = centerbox><div  id = stim2></div></div>","32","32","750","","test","go","96","adv","","",""
"","321","32","1285","0","test_block","poldrack-single-stim","111","179096","0.0-5.0-97.0","go-nogo","true","0","","false","<div class = centerbox><div  id = stim1></div></div>","-1","32","750","","test","nogo","97","adv","","",""
"","-1","-1","1391","0","test_block","poldrack-single-stim","112","180497","0.0-5.0-98.0","go-nogo","true","0","","true","<div class = centerbox><div  id = stim1></div></div>","-1","32","750","","test","nogo","98","adv","","",""
"","696","32","1123","0","test_block","poldrack-single-stim","113","181633","0.0-5.0-99.0","go-nogo","true","0","","true","<div class = centerbox><div  id = stim2></div></div>","32","32","750","","test","go","99","adv","","",""
"","657","32","1089","0","test_block","poldrack-single-stim","114","182732","0.0-5.0-100.0","go-nogo","true","0","","true","<div class = centerbox><div  id = stim2></div></div>","32","32","750","","test","go","100","adv","","",""
"","622","32","1428","0","test_block","poldrack-single-stim","115","184170","0.0-5.0-101.0","go-nogo","true","0","","true","<div class = centerbox><div  id = stim2></div></div>","32","32","750","","test","go","101","adv","","",""
"","341","32","1079","0","test_block","poldrack-single-stim","116","185261","0.0-5.0-102.0","go-nogo","true","0","","true","<div class = centerbox><div  id = stim2></div></div>","32","32","750","","test","go","102","adv","","",""
"","315","32","1237","0","test_block","poldrack-single-stim","117","186509","0.0-5.0-103.0","go-nogo","true","0","","true","<div class = centerbox><div  id = stim2></div></div>","32","32","750","","test","go","103","adv","","",""
"","324","32","1466","0","test_block","poldrack-single-stim","118","187985","0.0-5.0-104.0","go-nogo","true","0","","true","<div class = centerbox><div  id = stim2></div></div>","32","32","750","","test","go","104","adv","","",""
"","276","32","1494","0","test_block","poldrack-single-stim","119","189488","0.0-5.0-105.0","go-nogo","true","0","","true","<div class = centerbox><div  id = stim2></div></div>","32","32","750","","test","go","105","adv","","",""
"","306","32","1213","0","test_block","poldrack-single-stim","120","190711","0.0-5.0-106.0","go-nogo","true","0","","true","<div class = centerbox><div  id = stim2></div></div>","32","32","750","","test","go","106","adv","","",""
"","385","32","1334","0","test_block","poldrack-single-stim","121","192059","0.0-5.0-107.0","go-nogo","true","0","","true","<div class = centerbox><div  id = stim2></div></div>","32","32","750","","test","go","107","adv","","",""
"","319","32","1362","0","test_block","poldrack-single-stim","122","193430","0.0-5.0-108.0","go-nogo","true","0","","true","<div class = centerbox><div  id = stim2></div></div>","32","32","750","","test","go","108","adv","","",""
"","317","32","1482","0","test_block","poldrack-single-stim","123","194921","0.0-5.0-109.0","go-nogo","true","0","","true","<div class = centerbox><div  id = stim2></div></div>","32","32","750","","test","go","109","adv","","",""
"","289","32","1038","0","test_block","poldrack-single-stim","124","195978","0.0-5.0-110.0","go-nogo","true","0","","true","<div class = centerbox><div  id = stim2></div></div>","32","32","750","","test","go","110","adv","","",""
"","425","32","1462","0","test_block","poldrack-single-stim","125","197455","0.0-5.0-111.0","go-nogo","true","0","","true","<div class = centerbox><div  id = stim2></div></div>","32","32","750","","test","go","111","adv","","",""
"","586","32","1493","0","test_block","poldrack-single-stim","126","198967","0.0-5.0-112.0","go-nogo","true","0","","true","<div class = centerbox><div  id = stim2></div></div>","32","32","750","","test","go","112","adv","","",""
"","380","32","1426","0","test_block","poldrack-single-stim","127","200406","0.0-5.0-113.0","go-nogo","true","0","","true","<div class = centerbox><div  id = stim2></div></div>","32","32","750","","test","go","113","adv","","",""
"","267","32","1097","0","test_block","poldrack-single-stim","128","201526","0.0-5.0-114.0","go-nogo","true","0","","true","<div class = centerbox><div  id = stim2></div></div>","32","32","750","","test","go","114","adv","","",""
"","171","32","1092","0","test_block","poldrack-single-stim","129","202629","0.0-5.0-115.0","go-nogo","true","0","","true","<div class = centerbox><div  id = stim2></div></div>","32","32","750","","test","go","115","adv","","",""
"","349","32","1394","0","test_block","poldrack-single-stim","130","204032","0.0-5.0-116.0","go-nogo","true","0","","true","<div class = centerbox><div  id = stim2></div></div>","32","32","750","","test","go","116","adv","","",""
"","489","32","1453","0","test_block","poldrack-single-stim","131","205495","0.0-5.0-117.0","go-nogo","true","0","","true","<div class = centerbox><div  id = stim2></div></div>","32","32","750","","test","go","117","adv","","",""
"","349","32","1429","0","test_block","poldrack-single-stim","132","206956","0.0-5.0-118.0","go-nogo","true","0","","true","<div class = centerbox><div  id = stim2></div></div>","32","32","750","","test","go","118","adv","","",""
"","494","32","1125","0","test_block","poldrack-single-stim","133","208090","0.0-5.0-119.0","go-nogo","true","0","","true","<div class = centerbox><div  id = stim2></div></div>","32","32","750","","test","go","119","adv","","",""
"","408","32","1001","0","test_block","poldrack-single-stim","134","209102","0.0-5.0-120.0","go-nogo","true","0","","true","<div class = centerbox><div  id = stim2></div></div>","32","32","750","","test","go","120","adv","","",""
"","500","32","1120","0","test_block","poldrack-single-stim","135","210230","0.0-5.0-121.0","go-nogo","true","0","","true","<div class = centerbox><div  id = stim2></div></div>","32","32","750","","test","go","121","adv","","",""
"","979","32","1000","0","test_block","poldrack-single-stim","136","211249","0.0-5.0-122.0","go-nogo","true","0","","true","<div class = centerbox><div  id = stim2></div></div>","32","32","750","","test","go","122","adv","","",""
"","753","32","1299","0","test_block","poldrack-single-stim","137","212558","0.0-5.0-123.0","go-nogo","true","0","","true","<div class = centerbox><div  id = stim2></div></div>","32","32","750","","test","go","123","adv","","",""
"","375","32","1328","0","test_block","poldrack-single-stim","138","213907","0.0-5.0-124.0","go-nogo","true","0","","true","<div class = centerbox><div  id = stim2></div></div>","32","32","750","","test","go","124","adv","","",""
"","165","32","1022","0","test_block","poldrack-single-stim","139","214969","0.0-5.0-125.0","go-nogo","true","0","","true","<div class = centerbox><div  id = stim2></div></div>","32","32","750","","test","go","125","adv","","",""
"","384","32","1032","0","test_block","poldrack-single-stim","140","216011","0.0-5.0-126.0","go-nogo","true","0","","true","<div class = centerbox><div  id = stim2></div></div>","32","32","750","","test","go","126","adv","","",""
"","351","32","1430","0","test_block","poldrack-single-stim","141","217451","0.0-5.0-127.0","go-nogo","true","0","","true","<div class = centerbox><div  id = stim2></div></div>","32","32","750","","test","go","127","adv","","",""
"","327","32","1452","0","test_block","poldrack-single-stim","142","218923","0.0-5.0-128.0","go-nogo","true","0","","true","<div class = centerbox><div  id = stim2></div></div>","32","32","750","","test","go","128","adv","","",""
"","303","32","1118","0","test_block","poldrack-single-stim","143","220050","0.0-5.0-129.0","go-nogo","true","0","","true","<div class = centerbox><div  id = stim2></div></div>","32","32","750","","test","go","129","adv","","",""
"","463","32","1069","0","test_block","poldrack-single-stim","144","221130","0.0-5.0-130.0","go-nogo","true","0","","true","<div class = centerbox><div  id = stim2></div></div>","32","32","750","","test","go","130","adv","","",""
"","337","32","1371","0","test_block","poldrack-single-stim","145","222509","0.0-5.0-131.0","go-nogo","true","0","","true","<div class = centerbox><div  id = stim2></div></div>","32","32","750","","test","go","131","adv","","",""
"","502","32","1220","0","test_block","poldrack-single-stim","146","223753","0.0-5.0-132.0","go-nogo","true","0","","true","<div class = centerbox><div  id = stim2></div></div>","32","32","750","","test","go","132","adv","","",""
"","322","32","1021","0","test_block","poldrack-single-stim","147","224783","0.0-5.0-133.0","go-nogo","true","0","","true","<div class = centerbox><div  id = stim2></div></div>","32","32","750","","test","go","133","adv","","",""
"","403","32","1449","0","test_block","poldrack-single-stim","148","226296","0.0-5.0-134.0","go-nogo","true","0","","true","<div class = centerbox><div  id = stim2></div></div>","32","32","750","","test","go","134","adv","","",""
"","1067","32","1415","0","test_block","poldrack-single-stim","149","227721","0.0-5.0-135.0","go-nogo","true","0","","true","<div class = centerbox><div  id = stim2></div></div>","32","32","750","","test","go","135","adv","","",""
"","824","32","1293","0","test_block","poldrack-single-stim","150","229035","0.0-5.0-136.0","go-nogo","true","0","","true","<div class = centerbox><div  id = stim2></div></div>","32","32","750","","test","go","136","adv","","",""
"","511","32","1164","0","test_block","poldrack-single-stim","151","230210","0.0-5.0-137.0","go-nogo","true","0","","true","<div class = centerbox><div  id = stim2></div></div>","32","32","750","","test","go","137","adv","","",""
"","358","32","1126","0","test_block","poldrack-single-stim","152","231375","0.0-5.0-138.0","go-nogo","true","0","","true","<div class = centerbox><div  id = stim2></div></div>","32","32","750","","test","go","138","adv","","",""
"","289","32","1445","0","test_block","poldrack-single-stim","153","232833","0.0-5.0-139.0","go-nogo","true","0","","true","<div class = centerbox><div  id = stim2></div></div>","32","32","750","","test","go","139","adv","","",""
"","291","32","1051","0","test_block","poldrack-single-stim","154","233893","0.0-5.0-140.0","go-nogo","true","0","","true","<div class = centerbox><div  id = stim2></div></div>","32","32","750","","test","go","140","adv","","",""
"","47","32","1390","0","test_block","poldrack-single-stim","155","235301","0.0-5.0-141.0","go-nogo","true","0","","true","<div class = centerbox><div  id = stim2></div></div>","32","32","750","","test","go","141","adv","","",""
"","333","32","1283","0","test_block","poldrack-single-stim","156","236606","0.0-5.0-142.0","go-nogo","true","0","","true","<div class = centerbox><div  id = stim2></div></div>","32","32","750","","test","go","142","adv","","",""
"","356","32","1295","0","test_block","poldrack-single-stim","157","237911","0.0-5.0-143.0","go-nogo","true","0","","true","<div class = centerbox><div  id = stim2></div></div>","32","32","750","","test","go","143","adv","","",""
"","133","32","1253","0","test_block","poldrack-single-stim","158","239172","0.0-5.0-144.0","go-nogo","true","0","","true","<div class = centerbox><div  id = stim2></div></div>","32","32","750","","test","go","144","adv","","",""
"","1008","32","1482","0","test_block","poldrack-single-stim","159","240663","0.0-5.0-145.0","go-nogo","true","0","","true","<div class = centerbox><div  id = stim2></div></div>","32","32","750","","test","go","145","adv","","",""
"","73","32","1198","0","test_block","poldrack-single-stim","160","241932","0.0-5.0-146.0","go-nogo","true","0","","true","<div class = centerbox><div  id = stim2></div></div>","32","32","750","","test","go","146","adv","","",""
"","922","32","1311","0","test_block","poldrack-single-stim","161","243286","0.0-5.0-147.0","go-nogo","true","0","","true","<div class = centerbox><div  id = stim2></div></div>","32","32","750","","test","go","147","adv","","",""
"","377","32","1205","0","test_block","poldrack-single-stim","162","244506","0.0-5.0-148.0","go-nogo","true","0","","true","<div class = centerbox><div  id = stim2></div></div>","32","32","750","","test","go","148","adv","","",""
"","242","32","1147","0","test_block","poldrack-single-stim","163","245671","0.0-5.0-149.0","go-nogo","true","0","","true","<div class = centerbox><div  id = stim2></div></div>","32","32","750","","test","go","149","adv","","",""
"","312","32","1138","0","test_block","poldrack-single-stim","164","246839","0.0-5.0-150.0","go-nogo","true","0","","true","<div class = centerbox><div  id = stim2></div></div>","32","32","750","","test","go","150","adv","","",""
"","300","32","1024","0","test_block","poldrack-single-stim","165","247872","0.0-5.0-151.0","go-nogo","true","0","","true","<div class = centerbox><div  id = stim2></div></div>","32","32","750","","test","go","151","adv","","",""
"","383","32","1063","0","test_block","poldrack-single-stim","166","248943","0.0-5.0-152.0","go-nogo","true","0","","true","<div class = centerbox><div  id = stim2></div></div>","32","32","750","","test","go","152","adv","","",""
"","328","32","1050","0","test_block","poldrack-single-stim","167","250022","0.0-5.0-153.0","go-nogo","true","0","","true","<div class = centerbox><div  id = stim2></div></div>","32","32","750","","test","go","153","adv","","",""
"","215","32","1437","0","test_block","poldrack-single-stim","168","251468","0.0-5.0-154.0","go-nogo","true","0","","true","<div class = centerbox><div  id = stim2></div></div>","32","32","750","","test","go","154","adv","","",""
"","729","32","1064","0","test_block","poldrack-single-stim","169","252541","0.0-5.0-155.0","go-nogo","true","0","","true","<div class = centerbox><div  id = stim2></div></div>","32","32","750","","test","go","155","adv","","",""
"","349","32","1407","0","test_block","poldrack-single-stim","170","253961","0.0-5.0-156.0","go-nogo","true","0","","true","<div class = centerbox><div  id = stim2></div></div>","32","32","750","","test","go","156","adv","","",""
"","478","32","1169","0","test_block","poldrack-single-stim","171","255159","0.0-5.0-157.0","go-nogo","true","0","","true","<div class = centerbox><div  id = stim2></div></div>","32","32","750","","test","go","157","adv","","",""
"","327","32","1002","0","test_block","poldrack-single-stim","172","256171","0.0-5.0-158.0","go-nogo","true","0","","true","<div class = centerbox><div  id = stim2></div></div>","32","32","750","","test","go","158","adv","","",""
"","769","32","1101","0","test_block","poldrack-single-stim","173","257291","0.0-5.0-159.0","go-nogo","true","0","","true","<div class = centerbox><div  id = stim2></div></div>","32","32","750","","test","go","159","adv","","",""
"","1393","32","1418","0","test_block","poldrack-single-stim","174","258717","0.0-5.0-160.0","go-nogo","true","0","","true","<div class = centerbox><div  id = stim2></div></div>","32","32","750","","test","go","160","adv","","",""
"","-1","-1","1139","0","test_block","poldrack-single-stim","175","259887","0.0-5.0-161.0","go-nogo","true","0","","false","<div class = centerbox><div  id = stim2></div></div>","32","32","750","","test","go","161","adv","","",""
"","733","32","1302","0","test_block","poldrack-single-stim","176","261206","0.0-5.0-162.0","go-nogo","true","0","","true","<div class = centerbox><div  id = stim2></div></div>","32","32","750","","test","go","162","adv","","",""
"","-1","-1","1237","0","test_block","poldrack-single-stim","177","262452","0.0-5.0-163.0","go-nogo","true","0","","true","<div class = centerbox><div  id = stim1></div></div>","-1","32","750","","test","nogo","163","adv","","",""
"","358","32","1409","0","test_block","poldrack-single-stim","178","263871","0.0-5.0-164.0","go-nogo","true","0","","true","<div class = centerbox><div  id = stim2></div></div>","32","32","750","","test","go","164","adv","","",""
"","-1","-1","1000","0","test_block","poldrack-single-stim","179","264886","0.0-5.0-165.0","go-nogo","true","0","","true","<div class = centerbox><div  id = stim1></div></div>","-1","32","750","","test","nogo","165","adv","","",""
"","661","32","1066","0","test_block","poldrack-single-stim","180","265965","0.0-5.0-166.0","go-nogo","true","0","","true","<div class = centerbox><div  id = stim2></div></div>","32","32","750","","test","go","166","adv","","",""
"","493","32","1212","0","test_block","poldrack-single-stim","181","267195","0.0-5.0-167.0","go-nogo","true","0","","true","<div class = centerbox><div  id = stim2></div></div>","32","32","750","","test","go","167","adv","","",""
"","400","32","1468","0","test_block","poldrack-single-stim","182","268673","0.0-5.0-168.0","go-nogo","true","0","","true","<div class = centerbox><div  id = stim2></div></div>","32","32","750","","test","go","168","adv","","",""
"","335","32","1478","0","test_block","poldrack-single-stim","183","270163","0.0-5.0-169.0","go-nogo","true","0","","true","<div class = centerbox><div  id = stim2></div></div>","32","32","750","","test","go","169","adv","","",""
"","322","32","1076","0","test_block","poldrack-single-stim","184","271250","0.0-5.0-170.0","go-nogo","true","0","","true","<div class = centerbox><div  id = stim2></div></div>","32","32","750","","test","go","170","adv","","",""
"","282","32","1186","0","test_block","poldrack-single-stim","185","272445","0.0-5.0-171.0","go-nogo","true","0","","true","<div class = centerbox><div  id = stim2></div></div>","32","32","750","","test","go","171","adv","","",""
"","269","32","1249","0","test_block","poldrack-single-stim","186","273705","0.0-5.0-172.0","go-nogo","true","0","","true","<div class = centerbox><div  id = stim2></div></div>","32","32","750","","test","go","172","adv","","",""
"","172","32","1391","0","test_block","poldrack-single-stim","187","275121","0.0-5.0-173.0","go-nogo","true","0","","true","<div class = centerbox><div  id = stim2></div></div>","32","32","750","","test","go","173","adv","","",""
"","793","32","1486","0","test_block","poldrack-single-stim","188","276620","0.0-5.0-174.0","go-nogo","true","0","","true","<div class = centerbox><div  id = stim2></div></div>","32","32","750","","test","go","174","adv","","",""
"","326","32","1383","0","test_block","poldrack-single-stim","189","278012","0.0-5.0-175.0","go-nogo","true","0","","true","<div class = centerbox><div  id = stim2></div></div>","32","32","750","","test","go","175","adv","","",""
"","269","32","1477","0","test_block","poldrack-single-stim","190","279509","0.0-5.0-176.0","go-nogo","true","0","","true","<div class = centerbox><div  id = stim2></div></div>","32","32","750","","test","go","176","adv","","",""
"","26","32","1045","0","test_block","poldrack-single-stim","191","280583","0.0-5.0-177.0","go-nogo","true","0","","true","<div class = centerbox><div  id = stim2></div></div>","32","32","750","","test","go","177","adv","","",""
"","310","32","1338","0","test_block","poldrack-single-stim","192","282058","0.0-5.0-178.0","go-nogo","true","0","","true","<div class = centerbox><div  id = stim2></div></div>","32","32","750","","test","go","178","adv","","",""
"","336","32","1300","0","test_block","poldrack-single-stim","193","283371","0.0-5.0-179.0","go-nogo","true","0","","false","<div class = centerbox><div  id = stim1></div></div>","-1","32","750","","test","nogo","179","adv","","",""
"","-1","-1","1287","0","test_block","poldrack-single-stim","194","284724","0.0-5.0-180.0","go-nogo","true","0","","true","<div class = centerbox><div  id = stim1></div></div>","-1","32","750","","test","nogo","180","adv","","",""
"","739","32","1194","0","test_block","poldrack-single-stim","195","285941","0.0-5.0-181.0","go-nogo","true","0","","true","<div class = centerbox><div  id = stim2></div></div>","32","32","750","","test","go","181","adv","","",""
"","666","32","1438","0","test_block","poldrack-single-stim","196","287416","0.0-5.0-182.0","go-nogo","true","0","","true","<div class = centerbox><div  id = stim2></div></div>","32","32","750","","test","go","182","adv","","",""
"","396","32","1245","0","test_block","poldrack-single-stim","197","288672","0.0-5.0-183.0","go-nogo","true","0","","true","<div class = centerbox><div  id = stim2></div></div>","32","32","750","","test","go","183","adv","","",""
"","709","32","1006","0","test_block","poldrack-single-stim","198","289692","0.0-5.0-184.0","go-nogo","true","0","","true","<div class = centerbox><div  id = stim2></div></div>","32","32","750","","test","go","184","adv","","",""
"","-1","-1","1499","0","test_block","poldrack-single-stim","199","291201","0.0-5.0-185.0","go-nogo","true","0","","true","<div class = centerbox><div  id = stim1></div></div>","-1","32","750","","test","nogo","185","adv","","",""
"","323","32","1122","0","test_block","poldrack-single-stim","200","292331","0.0-5.0-186.0","go-nogo","true","0","","true","<div class = centerbox><div  id = stim2></div></div>","32","32","750","","test","go","186","adv","","",""
"","-1","-1","1308","0","test_block","poldrack-single-stim","201","293647","0.0-5.0-187.0","go-nogo","true","0","","false","<div class = centerbox><div  id = stim2></div></div>","32","32","750","","test","go","187","adv","","",""
"","280","32","1197","0","test_block","poldrack-single-stim","202","294855","0.0-5.0-188.0","go-nogo","true","0","","true","<div class = centerbox><div  id = stim2></div></div>","32","32","750","","test","go","188","adv","","",""
"","372","32","1346","0","test_block","poldrack-single-stim","203","296209","0.0-5.0-189.0","go-nogo","true","0","","true","<div class = centerbox><div  id = stim2></div></div>","32","32","750","","test","go","189","adv","","",""
"","310","32","1493","0","test_block","poldrack-single-stim","204","297715","0.0-5.0-190.0","go-nogo","true","0","","true","<div class = centerbox><div  id = stim2></div></div>","32","32","750","","test","go","190","adv","","",""
"","35","32","1326","0","test_block","poldrack-single-stim","205","299062","0.0-5.0-191.0","go-nogo","true","0","","true","<div class = centerbox><div  id = stim2></div></div>","32","32","750","","test","go","191","adv","","",""
"","501","32","1176","0","test_block","poldrack-single-stim","206","300249","0.0-5.0-192.0","go-nogo","true","0","","true","<div class = centerbox><div  id = stim2></div></div>","32","32","750","","test","go","192","adv","","",""
"","366","32","1151","0","test_block","poldrack-single-stim","207","301436","0.0-5.0-193.0","go-nogo","true","0","","true","<div class = centerbox><div  id = stim2></div></div>","32","32","750","","test","go","193","adv","","",""
"","544","32","1183","0","test_block","poldrack-single-stim","208","302627","0.0-5.0-194.0","go-nogo","true","0","","true","<div class = centerbox><div  id = stim2></div></div>","32","32","750","","test","go","194","adv","","",""
"","614","32","1104","0","test_block","poldrack-single-stim","209","303743","0.0-5.0-195.0","go-nogo","true","0","","true","<div class = centerbox><div  id = stim2></div></div>","32","32","750","","test","go","195","adv","","",""
"","484","32","1322","0","test_block","poldrack-single-stim","210","305074","0.0-5.0-196.0","go-nogo","true","0","","false","<div class = centerbox><div  id = stim1></div></div>","-1","32","750","","test","nogo","196","adv","","",""
"","342","32","1069","0","test_block","poldrack-single-stim","211","306156","0.0-5.0-197.0","go-nogo","true","0","","false","<div class = centerbox><div  id = stim1></div></div>","-1","32","750","","test","nogo","197","adv","","",""
"","371","32","1073","0","test_block","poldrack-single-stim","212","307241","0.0-5.0-198.0","go-nogo","true","0","","false","<div class = centerbox><div  id = stim1></div></div>","-1","32","750","","test","nogo","198","adv","","",""
"","388","32","1069","0","test_block","poldrack-single-stim","213","308333","0.0-5.0-199.0","go-nogo","true","0","","false","<div class = centerbox><div  id = stim1></div></div>","-1","32","750","","test","nogo","199","adv","","",""
"","296","32","1318","0","test_block","poldrack-single-stim","214","309666","0.0-5.0-200.0","go-nogo","true","0","","false","<div class = centerbox><div  id = stim1></div></div>","-1","32","750","","test","nogo","200","adv","","",""
"","692","32","1361","0","test_block","poldrack-single-stim","215","311039","0.0-5.0-201.0","go-nogo","true","0","","false","<div class = centerbox><div  id = stim1></div></div>","-1","32","750","","test","nogo","201","adv","","",""
"","-1","-1","1104","0","test_block","poldrack-single-stim","216","312154","0.0-5.0-202.0","go-nogo","true","0","","true","<div class = centerbox><div  id = stim1></div></div>","-1","32","750","","test","nogo","202","adv","","",""
"","-1","-1","1068","0","test_block","poldrack-single-stim","217","313230","0.0-5.0-203.0","go-nogo","true","0","","false","<div class = centerbox><div  id = stim2></div></div>","32","32","750","","test","go","203","adv","","",""
"","74","32","1247","0","test_block","poldrack-single-stim","218","314488","0.0-5.0-204.0","go-nogo","true","0","","true","<div class = centerbox><div  id = stim2></div></div>","32","32","750","","test","go","204","adv","","",""
"","341","32","1028","0","test_block","poldrack-single-stim","219","315532","0.0-5.0-205.0","go-nogo","true","0","","false","<div class = centerbox><div  id = stim1></div></div>","-1","32","750","","test","nogo","205","adv","","",""
"","-1","-1","1082","0","test_block","poldrack-single-stim","220","316632","0.0-5.0-206.0","go-nogo","true","0","","true","<div class = centerbox><div  id = stim1></div></div>","-1","32","750","","test","nogo","206","adv","","",""
"","614","32","1362","0","test_block","poldrack-single-stim","221","318010","0.0-5.0-207.0","go-nogo","true","0","","true","<div class = centerbox><div  id = stim2></div></div>","32","32","750","","test","go","207","adv","","",""
"","440","32","1178","0","test_block","poldrack-single-stim","222","319206","0.0-5.0-208.0","go-nogo","true","0","","true","<div class = centerbox><div  id = stim2></div></div>","32","32","750","","test","go","208","adv","","",""
"","399","32","1052","0","test_block","poldrack-single-stim","223","320281","0.0-5.0-209.0","go-nogo","true","0","","true","<div class = centerbox><div  id = stim2></div></div>","32","32","750","","test","go","209","adv","","",""
"","392","32","1279","0","test_block","poldrack-single-stim","224","321570","0.0-5.0-210.0","go-nogo","true","0","","true","<div class = centerbox><div  id = stim2></div></div>","32","32","750","","test","go","210","adv","","",""
"","333","32","1239","0","test_block","poldrack-single-stim","225","322817","0.0-5.0-211.0","go-nogo","true","0","","true","<div class = centerbox><div  id = stim2></div></div>","32","32","750","","test","go","211","adv","","",""
"","592","32","1453","0","test_block","poldrack-single-stim","226","324281","0.0-5.0-212.0","go-nogo","true","0","","true","<div class = centerbox><div  id = stim2></div></div>","32","32","750","","test","go","212","adv","","",""
"","410","32","1140","0","test_block","poldrack-single-stim","227","325430","0.0-5.0-213.0","go-nogo","true","0","","true","<div class = centerbox><div  id = stim2></div></div>","32","32","750","","test","go","213","adv","","",""
"","565","32","1244","0","test_block","poldrack-single-stim","228","326682","0.0-5.0-214.0","go-nogo","true","0","","true","<div class = centerbox><div  id = stim2></div></div>","32","32","750","","test","go","214","adv","","",""
"","382","32","1028","0","test_block","poldrack-single-stim","229","327721","0.0-5.0-215.0","go-nogo","true","0","","true","<div class = centerbox><div  id = stim2></div></div>","32","32","750","","test","go","215","adv","","",""
"","400","32","1391","0","test_block","poldrack-single-stim","230","329124","0.0-5.0-216.0","go-nogo","true","0","","true","<div class = centerbox><div  id = stim2></div></div>","32","32","750","","test","go","216","adv","","",""
"","303","32","1115","0","test_block","poldrack-single-stim","231","330262","0.0-5.0-217.0","go-nogo","true","0","","true","<div class = centerbox><div  id = stim2></div></div>","32","32","750","","test","go","217","adv","","",""
"","494","32","1173","0","test_block","poldrack-single-stim","232","331444","0.0-5.0-218.0","go-nogo","true","0","","true","<div class = centerbox><div  id = stim2></div></div>","32","32","750","","test","go","218","adv","","",""
"","487","32","1317","0","test_block","poldrack-single-stim","233","332775","0.0-5.0-219.0","go-nogo","true","0","","true","<div class = centerbox><div  id = stim2></div></div>","32","32","750","","test","go","219","adv","","",""
"","364","32","1229","0","test_block","poldrack-single-stim","234","334031","0.0-5.0-220.0","go-nogo","true","0","","true","<div class = centerbox><div  id = stim2></div></div>","32","32","750","","test","go","220","adv","","",""
"","329","32","1364","0","test_block","poldrack-single-stim","235","335406","0.0-5.0-221.0","go-nogo","true","0","","true","<div class = centerbox><div  id = stim2></div></div>","32","32","750","","test","go","221","adv","","",""
"","356","32","1254","0","test_block","poldrack-single-stim","236","336670","0.0-5.0-222.0","go-nogo","true","0","","true","<div class = centerbox><div  id = stim2></div></div>","32","32","750","","test","go","222","adv","","",""
"","353","32","1471","0","test_block","poldrack-single-stim","237","338158","0.0-5.0-223.0","go-nogo","true","0","","true","<div class = centerbox><div  id = stim2></div></div>","32","32","750","","test","go","223","adv","","",""
"","289","32","1040","0","test_block","poldrack-single-stim","238","339220","0.0-5.0-224.0","go-nogo","true","0","","true","<div class = centerbox><div  id = stim2></div></div>","32","32","750","","test","go","224","adv","","",""
"","887","32","1236","0","test_block","poldrack-single-stim","239","340466","0.0-5.0-225.0","go-nogo","true","0","","true","<div class = centerbox><div  id = stim2></div></div>","32","32","750","","test","go","225","adv","","",""
"","672","32","1335","0","test_block","poldrack-single-stim","240","341821","0.0-5.0-226.0","go-nogo","true","0","","true","<div class = centerbox><div  id = stim2></div></div>","32","32","750","","test","go","226","adv","","",""
"","-1","-1","1053","0","test_block","poldrack-single-stim","241","342902","0.0-5.0-227.0","go-nogo","true","0","","false","<div class = centerbox><div  id = stim2></div></div>","32","32","750","","test","go","227","adv","","",""
"","-1","-1","1288","0","test_block","poldrack-single-stim","242","344206","0.0-5.0-228.0","go-nogo","true","0","","false","<div class = centerbox><div  id = stim2></div></div>","32","32","750","","test","go","228","adv","","",""
"","-1","-1","1491","0","test_block","poldrack-single-stim","243","345714","0.0-5.0-229.0","go-nogo","true","0","","false","<div class = centerbox><div  id = stim2></div></div>","32","32","750","","test","go","229","adv","","",""
"","18","32","1147","0","test_block","poldrack-single-stim","244","346877","0.0-5.0-230.0","go-nogo","true","0","","true","<div class = centerbox><div  id = stim2></div></div>","32","32","750","","test","go","230","adv","","",""
"","388","32","1034","0","test_block","poldrack-single-stim","245","347921","0.0-5.0-231.0","go-nogo","true","0","","false","<div class = centerbox><div  id = stim1></div></div>","-1","32","750","","test","nogo","231","adv","","",""
"","-1","-1","1088","0","test_block","poldrack-single-stim","246","349025","0.0-5.0-232.0","go-nogo","true","0","","true","<div class = centerbox><div  id = stim1></div></div>","-1","32","750","","test","nogo","232","adv","","",""
"","576","32","1186","0","test_block","poldrack-single-stim","247","350222","0.0-5.0-233.0","go-nogo","true","0","","true","<div class = centerbox><div  id = stim2></div></div>","32","32","750","","test","go","233","adv","","",""
"","498","32","1168","0","test_block","poldrack-single-stim","248","351403","0.0-5.0-234.0","go-nogo","true","0","","true","<div class = centerbox><div  id = stim2></div></div>","32","32","750","","test","go","234","adv","","",""
"","747","32","1257","0","test_block","poldrack-single-stim","249","352668","0.0-5.0-235.0","go-nogo","true","0","","true","<div class = centerbox><div  id = stim2></div></div>","32","32","750","","test","go","235","adv","","",""
"","386","32","1426","0","test_block","poldrack-single-stim","250","354133","0.0-5.0-236.0","go-nogo","true","0","","true","<div class = centerbox><div  id = stim2></div></div>","32","32","750","","test","go","236","adv","","",""
"","631","32","1442","0","test_block","poldrack-single-stim","251","355583","0.0-5.0-237.0","go-nogo","true","0","","true","<div class = centerbox><div  id = stim2></div></div>","32","32","750","","test","go","237","adv","","",""
"","373","32","1409","0","test_block","poldrack-single-stim","252","357000","0.0-5.0-238.0","go-nogo","true","0","","true","<div class = centerbox><div  id = stim2></div></div>","32","32","750","","test","go","238","adv","","",""
"","456","32","1045","0","test_block","poldrack-single-stim","253","358059","0.0-5.0-239.0","go-nogo","true","0","","true","<div class = centerbox><div  id = stim2></div></div>","32","32","750","","test","go","239","adv","","",""
"","453","32","1121","0","test_block","poldrack-single-stim","254","359200","0.0-5.0-240.0","go-nogo","true","0","","true","<div class = centerbox><div  id = stim2></div></div>","32","32","750","","test","go","240","adv","","",""
"","1325","32","1406","0","test_block","poldrack-single-stim","255","360614","0.0-5.0-241.0","go-nogo","true","0","","true","<div class = centerbox><div  id = stim2></div></div>","32","32","750","","test","go","241","adv","","",""
"","597","32","1344","0","test_block","poldrack-single-stim","256","362032","0.0-5.0-242.0","go-nogo","true","0","","true","<div class = centerbox><div  id = stim2></div></div>","32","32","750","","test","go","242","adv","","",""
"","380","32","1433","0","test_block","poldrack-single-stim","257","363476","0.0-5.0-243.0","go-nogo","true","0","","true","<div class = centerbox><div  id = stim2></div></div>","32","32","750","","test","go","243","adv","","",""
"","373","32","1039","0","test_block","poldrack-single-stim","258","364526","0.0-5.0-244.0","go-nogo","true","0","","true","<div class = centerbox><div  id = stim2></div></div>","32","32","750","","test","go","244","adv","","",""
"","349","32","1044","0","test_block","poldrack-single-stim","259","365580","0.0-5.0-245.0","go-nogo","true","0","","true","<div class = centerbox><div  id = stim2></div></div>","32","32","750","","test","go","245","adv","","",""
"","330","32","1496","0","test_block","poldrack-single-stim","260","367084","0.0-5.0-246.0","go-nogo","true","0","","true","<div class = centerbox><div  id = stim2></div></div>","32","32","750","","test","go","246","adv","","",""
"","455","32","1136","0","test_block","poldrack-single-stim","261","368230","0.0-5.0-247.0","go-nogo","true","0","","true","<div class = centerbox><div  id = stim2></div></div>","32","32","750","","test","go","247","adv","","",""
"","382","32","1164","0","test_block","poldrack-single-stim","262","369409","0.0-5.0-248.0","go-nogo","true","0","","true","<div class = centerbox><div  id = stim2></div></div>","32","32","750","","test","go","248","adv","","",""
"","452","32","1013","0","test_block","poldrack-single-stim","263","370439","0.0-5.0-249.0","go-nogo","true","0","","true","<div class = centerbox><div  id = stim2></div></div>","32","32","750","","test","go","249","adv","","",""
"","357","32","1400","0","test_block","poldrack-single-stim","264","371859","0.0-5.0-250.0","go-nogo","true","0","","true","<div class = centerbox><div  id = stim2></div></div>","32","32","750","","test","go","250","adv","","",""
"","413","32","1276","0","test_block","poldrack-single-stim","265","373147","0.0-5.0-251.0","go-nogo","true","0","","true","<div class = centerbox><div  id = stim2></div></div>","32","32","750","","test","go","251","adv","","",""
"","-1","-1","1412","0","test_block","poldrack-single-stim","266","374572","0.0-5.0-252.0","go-nogo","true","0","","false","<div class = centerbox><div  id = stim2></div></div>","32","32","750","","test","go","252","adv","","",""
"","246","32","1427","0","test_block","poldrack-single-stim","267","376009","0.0-5.0-253.0","go-nogo","true","0","","true","<div class = centerbox><div  id = stim2></div></div>","32","32","750","","test","go","253","adv","","",""
"","303","32","1482","0","test_block","poldrack-single-stim","268","377504","0.0-5.0-254.0","go-nogo","true","0","","false","<div class = centerbox><div  id = stim1></div></div>","-1","32","750","","test","nogo","254","adv","","",""
"","-1","-1","1341","0","test_block","poldrack-single-stim","269","378855","0.0-5.0-255.0","go-nogo","true","0","","true","<div class = centerbox><div  id = stim1></div></div>","-1","32","750","","test","nogo","255","adv","","",""
"","539","32","1203","0","test_block","poldrack-single-stim","270","380068","0.0-5.0-256.0","go-nogo","true","0","","true","<div class = centerbox><div  id = stim2></div></div>","32","32","750","","test","go","256","adv","","",""
"","585","32","1303","0","test_block","poldrack-single-stim","271","381401","0.0-5.0-257.0","go-nogo","true","0","","true","<div class = centerbox><div  id = stim2></div></div>","32","32","750","","test","go","257","adv","","",""
"","456","32","1494","0","test_block","poldrack-single-stim","272","382907","0.0-5.0-258.0","go-nogo","true","0","","true","<div class = centerbox><div  id = stim2></div></div>","32","32","750","","test","go","258","adv","","",""
"","910","32","1495","0","test_block","poldrack-single-stim","273","384424","0.0-5.0-259.0","go-nogo","true","0","","true","<div class = centerbox><div  id = stim2></div></div>","32","32","750","","test","go","259","adv","","",""
"","528","32","1372","0","test_block","poldrack-single-stim","274","385818","0.0-5.0-260.0","go-nogo","true","0","","true","<div class = centerbox><div  id = stim2></div></div>","32","32","750","","test","go","260","adv","","",""
"","658","32","1002","0","test_block","poldrack-single-stim","275","386829","0.0-5.0-261.0","go-nogo","true","0","","true","<div class = centerbox><div  id = stim2></div></div>","32","32","750","","test","go","261","adv","","",""
"","895","32","1227","0","test_block","poldrack-single-stim","276","388065","0.0-5.0-262.0","go-nogo","true","0","","true","<div class = centerbox><div  id = stim2></div></div>","32","32","750","","test","go","262","adv","","",""
"","544","32","1079","0","test_block","poldrack-single-stim","277","389156","0.0-5.0-263.0","go-nogo","true","0","","true","<div class = centerbox><div  id = stim2></div></div>","32","32","750","","test","go","263","adv","","",""
"","238","32","1321","0","test_block","poldrack-single-stim","278","390489","0.0-5.0-264.0","go-nogo","true","0","","true","<div class = centerbox><div  id = stim2></div></div>","32","32","750","","test","go","264","adv","","",""
"","598","32","1213","0","test_block","poldrack-single-stim","279","391715","0.0-5.0-265.0","go-nogo","true","0","","true","<div class = centerbox><div  id = stim2></div></div>","32","32","750","","test","go","265","adv","","",""
"","533","32","1238","0","test_block","poldrack-single-stim","280","392991","0.0-5.0-266.0","go-nogo","true","0","","true","<div class = centerbox><div  id = stim2></div></div>","32","32","750","","test","go","266","adv","","",""
"","392","32","1195","0","test_block","poldrack-single-stim","281","394200","0.0-5.0-267.0","go-nogo","true","0","","true","<div class = centerbox><div  id = stim2></div></div>","32","32","750","","test","go","267","adv","","",""
"","288","32","1232","0","test_block","poldrack-single-stim","282","395444","0.0-5.0-268.0","go-nogo","true","0","","true","<div class = centerbox><div  id = stim2></div></div>","32","32","750","","test","go","268","adv","","",""
"","825","32","1148","0","test_block","poldrack-single-stim","283","396600","0.0-5.0-269.0","go-nogo","true","0","","true","<div class = centerbox><div  id = stim2></div></div>","32","32","750","","test","go","269","adv","","",""
"","419","32","1069","0","test_block","poldrack-single-stim","284","397678","0.0-5.0-270.0","go-nogo","true","0","","true","<div class = centerbox><div  id = stim2></div></div>","32","32","750","","test","go","270","adv","","",""
"","80","32","1194","0","test_block","poldrack-single-stim","285","398886","0.0-5.0-271.0","go-nogo","true","0","","true","<div class = centerbox><div  id = stim2></div></div>","32","32","750","","test","go","271","adv","","",""
"","356","32","1146","0","test_block","poldrack-single-stim","286","400043","0.0-5.0-272.0","go-nogo","true","0","","true","<div class = centerbox><div  id = stim2></div></div>","32","32","750","","test","go","272","adv","","",""
"","187","32","1354","0","test_block","poldrack-single-stim","287","401419","0.0-5.0-273.0","go-nogo","true","0","","true","<div class = centerbox><div  id = stim2></div></div>","32","32","750","","test","go","273","adv","","",""
"","36","32","1311","0","test_block","poldrack-single-stim","288","402748","0.0-5.0-274.0","go-nogo","true","0","","true","<div class = centerbox><div  id = stim2></div></div>","32","32","750","","test","go","274","adv","","",""
"","572","32","1229","0","test_block","poldrack-single-stim","289","404069","0.0-5.0-275.0","go-nogo","true","0","","true","<div class = centerbox><div  id = stim2></div></div>","32","32","750","","test","go","275","adv","","",""
"","-1","-1","1080","0","test_block","poldrack-single-stim","290","405162","0.0-5.0-276.0","go-nogo","true","0","","false","<div class = centerbox><div  id = stim2></div></div>","32","32","750","","test","go","276","adv","","",""
"","803","32","1128","0","test_block","poldrack-single-stim","291","406305","0.0-5.0-277.0","go-nogo","true","0","","true","<div class = centerbox><div  id = stim2></div></div>","32","32","750","","test","go","277","adv","","",""
"","390","32","1383","0","test_block","poldrack-single-stim","292","407702","0.0-5.0-278.0","go-nogo","true","0","","false","<div class = centerbox><div  id = stim1></div></div>","-1","32","750","","test","nogo","278","adv","","",""
"","-1","-1","1137","0","test_block","poldrack-single-stim","293","408884","0.0-5.0-279.0","go-nogo","true","0","","true","<div class = centerbox><div  id = stim1></div></div>","-1","32","750","","test","nogo","279","adv","","",""
"","365","32","1194","0","test_block","poldrack-single-stim","294","410088","0.0-5.0-280.0","go-nogo","true","0","","true","<div class = centerbox><div  id = stim2></div></div>","32","32","750","","test","go","280","adv","","",""
"","369","32","1473","0","test_block","poldrack-single-stim","295","411572","0.0-5.0-281.0","go-nogo","true","0","","true","<div class = centerbox><div  id = stim2></div></div>","32","32","750","","test","go","281","adv","","",""
"","259","32","1391","0","test_block","poldrack-single-stim","296","412976","0.0-5.0-282.0","go-nogo","true","0","","true","<div class = centerbox><div  id = stim2></div></div>","32","32","750","","test","go","282","adv","","",""
"","450","32","1184","0","test_block","poldrack-single-stim","297","414169","0.0-5.0-283.0","go-nogo","true","0","","true","<div class = centerbox><div  id = stim2></div></div>","32","32","750","","test","go","283","adv","","",""
"","786","32","1210","0","test_block","poldrack-single-stim","298","415397","0.0-5.0-284.0","go-nogo","true","0","","false","<div class = centerbox><div  id = stim1></div></div>","-1","32","750","","test","nogo","284","adv","","",""
"","-1","-1","1141","0","test_block","poldrack-single-stim","299","416558","0.0-5.0-285.0","go-nogo","true","0","","true","<div class = centerbox><div  id = stim1></div></div>","-1","32","750","","test","nogo","285","adv","","",""
"","358","32","1005","0","test_block","poldrack-single-stim","300","417572","0.0-5.0-286.0","go-nogo","true","0","","true","<div class = centerbox><div  id = stim2></div></div>","32","32","750","","test","go","286","adv","","",""
"","368","32","1254","0","test_block","poldrack-single-stim","301","418843","0.0-5.0-287.0","go-nogo","true","0","","true","<div class = centerbox><div  id = stim2></div></div>","32","32","750","","test","go","287","adv","","",""
"","409","32","1399","0","test_block","poldrack-single-stim","302","420264","0.0-5.0-288.0","go-nogo","true","0","","true","<div class = centerbox><div  id = stim2></div></div>","32","32","750","","test","go","288","adv","","",""
"","295","32","1027","0","test_block","poldrack-single-stim","303","421304","0.0-5.0-289.0","go-nogo","true","0","","true","<div class = centerbox><div  id = stim2></div></div>","32","32","750","","test","go","289","adv","","",""
"","332","32","1415","0","test_block","poldrack-single-stim","304","422727","0.0-5.0-290.0","go-nogo","true","0","","false","<div class = centerbox><div  id = stim1></div></div>","-1","32","750","","test","nogo","290","adv","","",""
"","-1","-1","1091","0","test_block","poldrack-single-stim","305","423829","0.0-5.0-291.0","go-nogo","true","0","","true","<div class = centerbox><div  id = stim1></div></div>","-1","32","750","","test","nogo","291","adv","","",""
"","341","32","1421","0","test_block","poldrack-single-stim","306","425262","0.0-5.0-292.0","go-nogo","true","0","","true","<div class = centerbox><div  id = stim2></div></div>","32","32","750","","test","go","292","adv","","",""
"","500","32","1097","0","test_block","poldrack-single-stim","307","426371","0.0-5.0-293.0","go-nogo","true","0","","true","<div class = centerbox><div  id = stim2></div></div>","32","32","750","","test","go","293","adv","","",""
"","396","32","1490","0","test_block","poldrack-single-stim","308","427873","0.0-5.0-294.0","go-nogo","true","0","","true","<div class = centerbox><div  id = stim2></div></div>","32","32","750","","test","go","294","adv","","",""
"","-1","-1","1176","0","test_block","poldrack-single-stim","309","429057","0.0-5.0-295.0","go-nogo","true","0","","true","<div class = centerbox><div  id = stim1></div></div>","-1","32","750","","test","nogo","295","adv","","",""
"","573","32","1106","0","test_block","poldrack-single-stim","310","430178","0.0-5.0-296.0","go-nogo","true","0","","true","<div class = centerbox><div  id = stim2></div></div>","32","32","750","","test","go","296","adv","","",""
"","770","32","1018","0","test_block","poldrack-single-stim","311","431205","0.0-5.0-297.0","go-nogo","true","0","","true","<div class = centerbox><div  id = stim2></div></div>","32","32","750","","test","go","297","adv","","",""
"","1333","32","1352","0","test_block","poldrack-single-stim","312","432573","0.0-5.0-298.0","go-nogo","true","0","","true","<div class = centerbox><div  id = stim2></div></div>","32","32","750","","test","go","298","adv","","",""
"","-1","-1","1119","0","test_block","poldrack-single-stim","313","433700","0.0-5.0-299.0","go-nogo","true","0","","false","<div class = centerbox><div  id = stim2></div></div>","32","32","750","","test","go","299","adv","","",""
"","332","32","1497","0","test_block","poldrack-single-stim","314","435208","0.0-5.0-300.0","go-nogo","true","0","","true","<div class = centerbox><div  id = stim2></div></div>","32","32","750","","test","go","300","adv","","",""
"","747","32","1284","0","test_block","poldrack-single-stim","315","436511","0.0-5.0-301.0","go-nogo","true","0","","false","<div class = centerbox><div  id = stim1></div></div>","-1","32","750","","test","nogo","301","adv","","",""
"","-1","-1","1094","0","test_block","poldrack-single-stim","316","437634","0.0-5.0-302.0","go-nogo","true","0","","true","<div class = centerbox><div  id = stim1></div></div>","-1","32","750","","test","nogo","302","adv","","",""
"","725","32","1260","0","test_block","poldrack-single-stim","317","438907","0.0-5.0-303.0","go-nogo","true","0","","true","<div class = centerbox><div  id = stim2></div></div>","32","32","750","","test","go","303","adv","","",""
"","484","32","1331","0","test_block","poldrack-single-stim","318","440260","0.0-5.0-304.0","go-nogo","true","0","","true","<div class = centerbox><div  id = stim2></div></div>","32","32","750","","test","go","304","adv","","",""
"","339","32","1274","0","test_block","poldrack-single-stim","319","441558","0.0-5.0-305.0","go-nogo","true","0","","true","<div class = centerbox><div  id = stim2></div></div>","32","32","750","","test","go","305","adv","","",""
"","402","32","1152","0","test_block","poldrack-single-stim","320","442723","0.0-5.0-306.0","go-nogo","true","0","","true","<div class = centerbox><div  id = stim2></div></div>","32","32","750","","test","go","306","adv","","",""
"","621","32","1178","0","test_block","poldrack-single-stim","321","443912","0.0-5.0-307.0","go-nogo","true","0","","false","<div class = centerbox><div  id = stim1></div></div>","-1","32","750","","test","nogo","307","adv","","",""
"","-1","-1","1262","0","test_block","poldrack-single-stim","322","445182","0.0-5.0-308.0","go-nogo","true","0","","false","<div class = centerbox><div  id = stim2></div></div>","32","32","750","","test","go","308","adv","","",""
"","522","32","1287","0","test_block","poldrack-single-stim","323","446480","0.0-5.0-309.0","go-nogo","true","0","","true","<div class = centerbox><div  id = stim2></div></div>","32","32","750","","test","go","309","adv","","",""
"","336","32","1251","0","test_block","poldrack-single-stim","324","447745","0.0-5.0-310.0","go-nogo","true","0","","true","<div class = centerbox><div  id = stim2></div></div>","32","32","750","","test","go","310","adv","","",""
"","305","32","1144","0","test_block","poldrack-single-stim","325","448901","0.0-5.0-311.0","go-nogo","true","0","","true","<div class = centerbox><div  id = stim2></div></div>","32","32","750","","test","go","311","adv","","",""
"","326","32","1002","0","test_block","poldrack-single-stim","326","449913","0.0-5.0-312.0","go-nogo","true","0","","true","<div class = centerbox><div  id = stim2></div></div>","32","32","750","","test","go","312","adv","","",""
"","353","32","1152","0","test_block","poldrack-single-stim","327","451075","0.0-5.0-313.0","go-nogo","true","0","","true","<div class = centerbox><div  id = stim2></div></div>","32","32","750","","test","go","313","adv","","",""
"","341","32","1311","0","test_block","poldrack-single-stim","328","452394","0.0-5.0-314.0","go-nogo","true","0","","true","<div class = centerbox><div  id = stim2></div></div>","32","32","750","","test","go","314","adv","","",""
"","417","32","1187","0","test_block","poldrack-single-stim","329","453589","0.0-5.0-315.0","go-nogo","true","0","","true","<div class = centerbox><div  id = stim2></div></div>","32","32","750","","test","go","315","adv","","",""
"","322","32","1128","0","test_block","poldrack-single-stim","330","454729","0.0-5.0-316.0","go-nogo","true","0","","true","<div class = centerbox><div  id = stim2></div></div>","32","32","750","","test","go","316","adv","","",""
"","306","32","1170","0","test_block","poldrack-single-stim","331","455915","0.0-5.0-317.0","go-nogo","true","0","","true","<div class = centerbox><div  id = stim2></div></div>","32","32","750","","test","go","317","adv","","",""
"","336","32","1180","0","test_block","poldrack-single-stim","332","457106","0.0-5.0-318.0","go-nogo","true","0","","true","<div class = centerbox><div  id = stim2></div></div>","32","32","750","","test","go","318","adv","","",""
"","365","32","1005","0","test_block","poldrack-single-stim","333","458125","0.0-5.0-319.0","go-nogo","true","0","","true","<div class = centerbox><div  id = stim2></div></div>","32","32","750","","test","go","319","adv","","",""
"","311","32","1426","0","test_block","poldrack-single-stim","334","459562","0.0-5.0-320.0","go-nogo","true","0","","true","<div class = centerbox><div  id = stim2></div></div>","32","32","750","","test","go","320","adv","","",""
"","360","32","1471","0","test_block","poldrack-single-stim","335","461044","0.0-5.0-321.0","go-nogo","true","0","","true","<div class = centerbox><div  id = stim2></div></div>","32","32","750","","test","go","321","adv","","",""
"","340","32","1115","0","test_block","poldrack-single-stim","336","462193","0.0-5.0-322.0","go-nogo","true","0","","true","<div class = centerbox><div  id = stim2></div></div>","32","32","750","","test","go","322","adv","","",""
"","389","32","1064","0","test_block","poldrack-single-stim","337","463271","0.0-5.0-323.0","go-nogo","true","0","","true","<div class = centerbox><div  id = stim2></div></div>","32","32","750","","test","go","323","adv","","",""
"","365","32","1061","0","test_block","poldrack-single-stim","338","464339","0.0-5.0-324.0","go-nogo","true","0","","true","<div class = centerbox><div  id = stim2></div></div>","32","32","750","","test","go","324","adv","","",""
"","340","32","1188","0","test_block","poldrack-single-stim","339","465545","0.0-5.0-325.0","go-nogo","true","0","","true","<div class = centerbox><div  id = stim2></div></div>","32","32","750","","test","go","325","adv","","",""
"","315","32","1248","0","test_block","poldrack-single-stim","340","466802","0.0-5.0-326.0","go-nogo","true","0","","true","<div class = centerbox><div  id = stim2></div></div>","32","32","750","","test","go","326","adv","","",""
"","335","32","1363","0","test_block","poldrack-single-stim","341","468177","0.0-5.0-327.0","go-nogo","true","0","","true","<div class = centerbox><div  id = stim2></div></div>","32","32","750","","test","go","327","adv","","",""
"","320","32","1333","0","test_block","poldrack-single-stim","342","469522","0.0-5.0-328.0","go-nogo","true","0","","true","<div class = centerbox><div  id = stim2></div></div>","32","32","750","","test","go","328","adv","","",""
"","336","32","1288","0","test_block","poldrack-single-stim","343","470860","0.0-5.0-329.0","go-nogo","true","0","","true","<div class = centerbox><div  id = stim2></div></div>","32","32","750","","test","go","329","adv","","",""
"","357","32","1161","0","test_block","poldrack-single-stim","344","472031","0.0-5.0-330.0","go-nogo","true","0","","true","<div class = centerbox><div  id = stim2></div></div>","32","32","750","","test","go","330","adv","","",""
"","322","32","1099","0","test_block","poldrack-single-stim","345","473141","0.0-5.0-331.0","go-nogo","true","0","","true","<div class = centerbox><div  id = stim2></div></div>","32","32","750","","test","go","331","adv","","",""
"","299","32","1274","0","test_block","poldrack-single-stim","346","474437","0.0-5.0-332.0","go-nogo","true","0","","true","<div class = centerbox><div  id = stim2></div></div>","32","32","750","","test","go","332","adv","","",""
"","366","32","1352","0","test_block","poldrack-single-stim","347","475808","0.0-5.0-333.0","go-nogo","true","0","","true","<div class = centerbox><div  id = stim2></div></div>","32","32","750","","test","go","333","adv","","",""
"","327","32","1227","0","test_block","poldrack-single-stim","348","477042","0.0-5.0-334.0","go-nogo","true","0","","true","<div class = centerbox><div  id = stim2></div></div>","32","32","750","","test","go","334","adv","","",""
"","339","32","1330","0","test_block","poldrack-single-stim","349","478380","0.0-5.0-335.0","go-nogo","true","0","","true","<div class = centerbox><div  id = stim2></div></div>","32","32","750","","test","go","335","adv","","",""
"","-1","-1","1264","0","test_block","poldrack-single-stim","350","479664","0.0-5.0-336.0","go-nogo","true","0","","false","<div class = centerbox><div  id = stim2></div></div>","32","32","750","","test","go","336","adv","","",""
"","1292","32","1392","0","test_block","poldrack-single-stim","351","481068","0.0-5.0-337.0","go-nogo","true","0","","true","<div class = centerbox><div  id = stim2></div></div>","32","32","750","","test","go","337","adv","","",""
"","1074","32","1266","0","test_block","poldrack-single-stim","352","482399","0.0-5.0-338.0","go-nogo","true","0","","true","<div class = centerbox><div  id = stim2></div></div>","32","32","750","","test","go","338","adv","","",""
"","990","32","1371","0","test_block","poldrack-single-stim","353","483781","0.0-5.0-339.0","go-nogo","true","0","","true","<div class = centerbox><div  id = stim2></div></div>","32","32","750","","test","go","339","adv","","",""
"","393","32","1040","0","test_block","poldrack-single-stim","354","484852","0.0-5.0-340.0","go-nogo","true","0","","true","<div class = centerbox><div  id = stim2></div></div>","32","32","750","","test","go","340","adv","","",""
"","-1","-1","1010","0","test_block","poldrack-single-stim","355","485874","0.0-5.0-341.0","go-nogo","true","0","","false","<div class = centerbox><div  id = stim2></div></div>","32","32","750","","test","go","341","adv","","",""
"","-1","-1","1064","0","test_block","poldrack-single-stim","356","486966","0.0-5.0-342.0","go-nogo","true","0","","false","<div class = centerbox><div  id = stim2></div></div>","32","32","750","","test","go","342","adv","","",""
"","-1","-1","1184","0","test_block","poldrack-single-stim","357","488169","0.0-5.0-343.0","go-nogo","true","0","","false","<div class = centerbox><div  id = stim2></div></div>","32","32","750","","test","go","343","adv","","",""
"","786","32","1481","0","test_block","poldrack-single-stim","358","489661","0.0-5.0-344.0","go-nogo","true","0","","true","<div class = centerbox><div  id = stim2></div></div>","32","32","750","","test","go","344","adv","","",""
"","428","32","1359","0","test_block","poldrack-single-stim","359","491038","0.0-5.0-345.0","go-nogo","true","0","","true","<div class = centerbox><div  id = stim2></div></div>","32","32","750","","test","go","345","adv","","",""
"","-1","-1","1352","0","test_block","poldrack-single-stim","360","492398","0.0-5.0-346.0","go-nogo","true","0","","false","<div class = centerbox><div  id = stim2></div></div>","32","32","750","","test","go","346","adv","","",""
"","1220","32","1439","0","test_block","poldrack-single-stim","361","493847","0.0-5.0-347.0","go-nogo","true","0","","true","<div class = centerbox><div  id = stim2></div></div>","32","32","750","","test","go","347","adv","","",""
"","325","32","1217","0","test_block","poldrack-single-stim","362","495073","0.0-5.0-348.0","go-nogo","true","0","","true","<div class = centerbox><div  id = stim2></div></div>","32","32","750","","test","go","348","adv","","",""
"","653","32","1464","0","test_block","poldrack-single-stim","363","496553","0.0-5.0-349.0","go-nogo","true","0","","true","<div class = centerbox><div  id = stim2></div></div>","32","32","750","","test","go","349","adv","","",""
"","119606","","","","post task questions","survey-text","364","616183","0.0-7.0","go-nogo","true","0","","","","","","","","","","","","{""Q0"":""I PRESS SPACE BUTTON AT BLUE"",""Q1"":""great""}","",""
"<div class = centerbox><p class = center-block-text>Thanks for completing this task!</p><p class = center-block-text>Insert the following code to collect your payment at Amazon Mechanical Turk:</p><p class = center-block-text>515962317</p><p class = center-block-text>Press <strong>enter</strong> to continue.</p></div>","33358","13","33358","0","end","poldrack-text","365","650543","0.0-8.0","go-nogo","true","1","","","","","","","","","","","","","515962317","true"
