"text","rt","key_press","block_duration","timing_post_trial","trial_id","trial_type","trial_index","time_elapsed","internal_node_id","exp_id","full_screen","focus_shifts","view_history","correct","stimulus","correct_response","possible_responses","stim_duration","feedback_duration","exp_stage","condition","trial_num","mode","responses","payment_id","credit_var"
"<div class = centerbox><p class = center-block-text>Welcome to the experiment. This task will take around 10 minutes. Press <strong>enter</strong> to begin.</p></div>","2866","13","2866","0","instruction","poldrack-text","0","2867","0.0-0.0-0.0","go-nogo","true","0","","","","","","","","","","","","","",""
"","26484","","","","instruction","poldrack-instructions","1","29351","0.0-0.0-1.0","go-nogo","true","0","[{""page_index"":0,""viewing_time"":26483}]","","","","","","","","","","","","",""
"","601","32","1282","250","practice","poldrack-categorize","2","32646","0.0-1.0-0.0","go-nogo","true","0","","true","<div class = centerbox><div  id = stim1></div></div>","32","32","750","1000","practice","go","0","adv","","",""
"","-1","-1","1467","250","practice","poldrack-categorize","3","35369","0.0-1.0-1.0","go-nogo","true","0","","true","<div class = centerbox><div id = stim2></div></div>","-1","32","750","1000","practice","nogo","1","adv","","",""
"","-1","-1","1079","250","practice","poldrack-categorize","4","37711","0.0-1.0-2.0","go-nogo","true","0","","true","<div class = centerbox><div id = stim2></div></div>","-1","32","750","1000","practice","nogo","2","adv","","",""
"","-1","-1","1040","250","practice","poldrack-categorize","5","40012","0.0-1.0-3.0","go-nogo","true","0","","true","<div class = centerbox><div id = stim2></div></div>","-1","32","750","1000","practice","nogo","3","adv","","",""
"","580","32","1334","250","practice","poldrack-categorize","6","42607","0.0-1.0-4.0","go-nogo","true","0","","true","<div class = centerbox><div  id = stim1></div></div>","32","32","750","1000","practice","go","4","adv","","",""
"","504","32","1390","250","practice","poldrack-categorize","7","45259","0.0-1.0-5.0","go-nogo","true","0","","true","<div class = centerbox><div  id = stim1></div></div>","32","32","750","1000","practice","go","5","adv","","",""
"","577","32","1008","250","practice","poldrack-categorize","8","47528","0.0-1.0-6.0","go-nogo","true","0","","true","<div class = centerbox><div  id = stim1></div></div>","32","32","750","1000","practice","go","6","adv","","",""
"","-1","-1","1132","250","practice","poldrack-categorize","9","49923","0.0-1.0-7.0","go-nogo","true","0","","true","<div class = centerbox><div id = stim2></div></div>","-1","32","750","1000","practice","nogo","7","adv","","",""
"","-1","-1","1202","250","practice","poldrack-categorize","10","52384","0.0-1.0-8.0","go-nogo","true","0","","true","<div class = centerbox><div id = stim2></div></div>","-1","32","750","1000","practice","nogo","8","adv","","",""
"","458","32","1161","250","practice","poldrack-categorize","11","54809","0.0-1.0-9.0","go-nogo","true","0","","true","<div class = centerbox><div  id = stim1></div></div>","32","32","750","1000","practice","go","9","adv","","",""
"","","","","","reset_trial","call-function","12","55062","0.0-3.0","go-nogo","true","0","","","","","","","","","","","","","",""
"<div class = centerbox><p class = block-text>Practice is over, we will now begin the experiment. You will no longer get feedback about your responses.</p><p class = block-text>Remember, if you see the <font color=""orange"">orange</font> square you should <strong> respond by pressing the spacebar as quickly as possible</strong>. If you see the <font color=""blue"">blue</font> square you should <strong> not respond</strong>. Press <strong>enter</strong> to begin.</p></div>","9263","13","9263","1000","test_intro","poldrack-text","13","64326","0.0-4.0","go-nogo","true","0","","","","","","","","","","","","","",""
"","469","32","1360","0","test_block","poldrack-single-stim","14","66696","0.0-5.0-0.0","go-nogo","true","0","","true","<div class = centerbox><div  id = stim1></div></div>","32","32","750","","test","go","0","adv","","",""
"","570","32","1169","0","test_block","poldrack-single-stim","15","67909","0.0-5.0-1.0","go-nogo","true","0","","true","<div class = centerbox><div  id = stim1></div></div>","32","32","750","","test","go","1","adv","","",""
"","414","32","1470","0","test_block","poldrack-single-stim","16","69413","0.0-5.0-2.0","go-nogo","true","0","","true","<div class = centerbox><div  id = stim1></div></div>","32","32","750","","test","go","2","adv","","",""
"","429","32","1255","0","test_block","poldrack-single-stim","17","70701","0.0-5.0-3.0","go-nogo","true","0","","true","<div class = centerbox><div  id = stim1></div></div>","32","32","750","","test","go","3","adv","","",""
"","459","32","1391","0","test_block","poldrack-single-stim","18","72123","0.0-5.0-4.0","go-nogo","true","0","","true","<div class = centerbox><div  id = stim1></div></div>","32","32","750","","test","go","4","adv","","",""
"","452","32","1142","0","test_block","poldrack-single-stim","19","73299","0.0-5.0-5.0","go-nogo","true","0","","true","<div class = centerbox><div  id = stim1></div></div>","32","32","750","","test","go","5","adv","","",""
"","527","32","1013","0","test_block","poldrack-single-stim","20","74344","0.0-5.0-6.0","go-nogo","true","0","","true","<div class = centerbox><div  id = stim1></div></div>","32","32","750","","test","go","6","adv","","",""
"","616","32","1406","0","test_block","poldrack-single-stim","21","75785","0.0-5.0-7.0","go-nogo","true","0","","true","<div class = centerbox><div  id = stim1></div></div>","32","32","750","","test","go","7","adv","","",""
"","449","32","1092","0","test_block","poldrack-single-stim","22","76907","0.0-5.0-8.0","go-nogo","true","0","","true","<div class = centerbox><div  id = stim1></div></div>","32","32","750","","test","go","8","adv","","",""
"","541","32","1282","0","test_block","poldrack-single-stim","23","78222","0.0-5.0-9.0","go-nogo","true","0","","true","<div class = centerbox><div  id = stim1></div></div>","32","32","750","","test","go","9","adv","","",""
"","362","32","1205","0","test_block","poldrack-single-stim","24","79460","0.0-5.0-10.0","go-nogo","true","0","","true","<div class = centerbox><div  id = stim1></div></div>","32","32","750","","test","go","10","adv","","",""
"","393","32","1213","0","test_block","poldrack-single-stim","25","80708","0.0-5.0-11.0","go-nogo","true","0","","true","<div class = centerbox><div  id = stim1></div></div>","32","32","750","","test","go","11","adv","","",""
"","456","32","1228","0","test_block","poldrack-single-stim","26","81967","0.0-5.0-12.0","go-nogo","true","0","","true","<div class = centerbox><div  id = stim1></div></div>","32","32","750","","test","go","12","adv","","",""
"","442","32","1019","0","test_block","poldrack-single-stim","27","83020","0.0-5.0-13.0","go-nogo","true","0","","true","<div class = centerbox><div  id = stim1></div></div>","32","32","750","","test","go","13","adv","","",""
"","438","32","1206","0","test_block","poldrack-single-stim","28","84258","0.0-5.0-14.0","go-nogo","true","0","","true","<div class = centerbox><div  id = stim1></div></div>","32","32","750","","test","go","14","adv","","",""
"","353","32","1203","0","test_block","poldrack-single-stim","29","85495","0.0-5.0-15.0","go-nogo","true","0","","true","<div class = centerbox><div  id = stim1></div></div>","32","32","750","","test","go","15","adv","","",""
"","327","32","1070","0","test_block","poldrack-single-stim","30","86594","0.0-5.0-16.0","go-nogo","true","0","","true","<div class = centerbox><div  id = stim1></div></div>","32","32","750","","test","go","16","adv","","",""
"","318","32","1465","0","test_block","poldrack-single-stim","31","88087","0.0-5.0-17.0","go-nogo","true","0","","true","<div class = centerbox><div  id = stim1></div></div>","32","32","750","","test","go","17","adv","","",""
"","423","32","1076","0","test_block","poldrack-single-stim","32","89195","0.0-5.0-18.0","go-nogo","true","0","","true","<div class = centerbox><div  id = stim1></div></div>","32","32","750","","test","go","18","adv","","",""
"","418","32","1029","0","test_block","poldrack-single-stim","33","90253","0.0-5.0-19.0","go-nogo","true","0","","true","<div class = centerbox><div  id = stim1></div></div>","32","32","750","","test","go","19","adv","","",""
"","428","32","1404","0","test_block","poldrack-single-stim","34","91687","0.0-5.0-20.0","go-nogo","true","0","","true","<div class = centerbox><div  id = stim1></div></div>","32","32","750","","test","go","20","adv","","",""
"","333","32","1191","0","test_block","poldrack-single-stim","35","92907","0.0-5.0-21.0","go-nogo","true","0","","true","<div class = centerbox><div  id = stim1></div></div>","32","32","750","","test","go","21","adv","","",""
"","326","32","1290","0","test_block","poldrack-single-stim","36","94230","0.0-5.0-22.0","go-nogo","true","0","","true","<div class = centerbox><div  id = stim1></div></div>","32","32","750","","test","go","22","adv","","",""
"","343","32","1128","0","test_block","poldrack-single-stim","37","95390","0.0-5.0-23.0","go-nogo","true","0","","true","<div class = centerbox><div  id = stim1></div></div>","32","32","750","","test","go","23","adv","","",""
"","356","32","1257","0","test_block","poldrack-single-stim","38","96675","0.0-5.0-24.0","go-nogo","true","0","","true","<div class = centerbox><div  id = stim1></div></div>","32","32","750","","test","go","24","adv","","",""
"","318","32","1109","0","test_block","poldrack-single-stim","39","97814","0.0-5.0-25.0","go-nogo","true","0","","true","<div class = centerbox><div  id = stim1></div></div>","32","32","750","","test","go","25","adv","","",""
"","292","32","1273","0","test_block","poldrack-single-stim","40","99116","0.0-5.0-26.0","go-nogo","true","0","","true","<div class = centerbox><div  id = stim1></div></div>","32","32","750","","test","go","26","adv","","",""
"","285","32","1177","0","test_block","poldrack-single-stim","41","100323","0.0-5.0-27.0","go-nogo","true","0","","true","<div class = centerbox><div  id = stim1></div></div>","32","32","750","","test","go","27","adv","","",""
"","325","32","1241","0","test_block","poldrack-single-stim","42","101596","0.0-5.0-28.0","go-nogo","true","0","","true","<div class = centerbox><div  id = stim1></div></div>","32","32","750","","test","go","28","adv","","",""
"","258","32","1173","0","test_block","poldrack-single-stim","43","102799","0.0-5.0-29.0","go-nogo","true","0","","true","<div class = centerbox><div  id = stim1></div></div>","32","32","750","","test","go","29","adv","","",""
"","293","32","1256","0","test_block","poldrack-single-stim","44","104084","0.0-5.0-30.0","go-nogo","true","0","","true","<div class = centerbox><div  id = stim1></div></div>","32","32","750","","test","go","30","adv","","",""
"","323","32","1414","0","test_block","poldrack-single-stim","45","105527","0.0-5.0-31.0","go-nogo","true","0","","true","<div class = centerbox><div  id = stim1></div></div>","32","32","750","","test","go","31","adv","","",""
"","310","32","1335","0","test_block","poldrack-single-stim","46","106890","0.0-5.0-32.0","go-nogo","true","0","","true","<div class = centerbox><div  id = stim1></div></div>","32","32","750","","test","go","32","adv","","",""
"","331","32","1417","0","test_block","poldrack-single-stim","47","108335","0.0-5.0-33.0","go-nogo","true","0","","true","<div class = centerbox><div  id = stim1></div></div>","32","32","750","","test","go","33","adv","","",""
"","313","32","1072","0","test_block","poldrack-single-stim","48","109437","0.0-5.0-34.0","go-nogo","true","0","","true","<div class = centerbox><div  id = stim1></div></div>","32","32","750","","test","go","34","adv","","",""
"","416","32","1483","0","test_block","poldrack-single-stim","49","110949","0.0-5.0-35.0","go-nogo","true","0","","true","<div class = centerbox><div  id = stim1></div></div>","32","32","750","","test","go","35","adv","","",""
"","344","32","1336","0","test_block","poldrack-single-stim","50","112313","0.0-5.0-36.0","go-nogo","true","0","","true","<div class = centerbox><div  id = stim1></div></div>","32","32","750","","test","go","36","adv","","",""
"","273","32","1027","0","test_block","poldrack-single-stim","51","113367","0.0-5.0-37.0","go-nogo","true","0","","true","<div class = centerbox><div  id = stim1></div></div>","32","32","750","","test","go","37","adv","","",""
"","399","32","1365","0","test_block","poldrack-single-stim","52","114763","0.0-5.0-38.0","go-nogo","true","0","","true","<div class = centerbox><div  id = stim1></div></div>","32","32","750","","test","go","38","adv","","",""
"","288","32","1005","0","test_block","poldrack-single-stim","53","115793","0.0-5.0-39.0","go-nogo","true","0","","true","<div class = centerbox><div  id = stim1></div></div>","32","32","750","","test","go","39","adv","","",""
"","406","32","1128","0","test_block","poldrack-single-stim","54","116950","0.0-5.0-40.0","go-nogo","true","0","","true","<div class = centerbox><div  id = stim1></div></div>","32","32","750","","test","go","40","adv","","",""
"","398","32","1426","0","test_block","poldrack-single-stim","55","118404","0.0-5.0-41.0","go-nogo","true","0","","true","<div class = centerbox><div  id = stim1></div></div>","32","32","750","","test","go","41","adv","","",""
"","291","32","1227","0","test_block","poldrack-single-stim","56","119658","0.0-5.0-42.0","go-nogo","true","0","","true","<div class = centerbox><div  id = stim1></div></div>","32","32","750","","test","go","42","adv","","",""
"","296","32","1016","0","test_block","poldrack-single-stim","57","120701","0.0-5.0-43.0","go-nogo","true","0","","true","<div class = centerbox><div  id = stim1></div></div>","32","32","750","","test","go","43","adv","","",""
"","457","32","1181","0","test_block","poldrack-single-stim","58","121910","0.0-5.0-44.0","go-nogo","true","0","","true","<div class = centerbox><div  id = stim1></div></div>","32","32","750","","test","go","44","adv","","",""
"","295","32","1017","0","test_block","poldrack-single-stim","59","122958","0.0-5.0-45.0","go-nogo","true","0","","true","<div class = centerbox><div  id = stim1></div></div>","32","32","750","","test","go","45","adv","","",""
"","326","32","1002","0","test_block","poldrack-single-stim","60","123991","0.0-5.0-46.0","go-nogo","true","0","","true","<div class = centerbox><div  id = stim1></div></div>","32","32","750","","test","go","46","adv","","",""
"","342","32","1322","0","test_block","poldrack-single-stim","61","125340","0.0-5.0-47.0","go-nogo","true","0","","true","<div class = centerbox><div  id = stim1></div></div>","32","32","750","","test","go","47","adv","","",""
"","299","32","1343","0","test_block","poldrack-single-stim","62","126711","0.0-5.0-48.0","go-nogo","true","0","","true","<div class = centerbox><div  id = stim1></div></div>","32","32","750","","test","go","48","adv","","",""
"","310","32","1071","0","test_block","poldrack-single-stim","63","127808","0.0-5.0-49.0","go-nogo","true","0","","true","<div class = centerbox><div  id = stim1></div></div>","32","32","750","","test","go","49","adv","","",""
"","362","32","1210","0","test_block","poldrack-single-stim","64","129045","0.0-5.0-50.0","go-nogo","true","0","","true","<div class = centerbox><div  id = stim1></div></div>","32","32","750","","test","go","50","adv","","",""
"","384","32","1195","0","test_block","poldrack-single-stim","65","130265","0.0-5.0-51.0","go-nogo","true","0","","true","<div class = centerbox><div  id = stim1></div></div>","32","32","750","","test","go","51","adv","","",""
"","369","32","1482","0","test_block","poldrack-single-stim","66","131773","0.0-5.0-52.0","go-nogo","true","0","","true","<div class = centerbox><div  id = stim1></div></div>","32","32","750","","test","go","52","adv","","",""
"","381","32","1275","0","test_block","poldrack-single-stim","67","133075","0.0-5.0-53.0","go-nogo","true","0","","true","<div class = centerbox><div  id = stim1></div></div>","32","32","750","","test","go","53","adv","","",""
"","394","32","1055","0","test_block","poldrack-single-stim","68","134158","0.0-5.0-54.0","go-nogo","true","0","","true","<div class = centerbox><div  id = stim1></div></div>","32","32","750","","test","go","54","adv","","",""
"","391","32","1433","0","test_block","poldrack-single-stim","69","135615","0.0-5.0-55.0","go-nogo","true","0","","true","<div class = centerbox><div  id = stim1></div></div>","32","32","750","","test","go","55","adv","","",""
"","302","32","1256","0","test_block","poldrack-single-stim","70","136902","0.0-5.0-56.0","go-nogo","true","0","","true","<div class = centerbox><div  id = stim1></div></div>","32","32","750","","test","go","56","adv","","",""
"","324","32","1423","0","test_block","poldrack-single-stim","71","138353","0.0-5.0-57.0","go-nogo","true","0","","true","<div class = centerbox><div  id = stim1></div></div>","32","32","750","","test","go","57","adv","","",""
"","356","32","1295","0","test_block","poldrack-single-stim","72","139678","0.0-5.0-58.0","go-nogo","true","0","","true","<div class = centerbox><div  id = stim1></div></div>","32","32","750","","test","go","58","adv","","",""
"","347","32","1162","0","test_block","poldrack-single-stim","73","140870","0.0-5.0-59.0","go-nogo","true","0","","true","<div class = centerbox><div  id = stim1></div></div>","32","32","750","","test","go","59","adv","","",""
"","326","32","1440","0","test_block","poldrack-single-stim","74","142340","0.0-5.0-60.0","go-nogo","true","0","","true","<div class = centerbox><div  id = stim1></div></div>","32","32","750","","test","go","60","adv","","",""
"","454","32","1319","0","test_block","poldrack-single-stim","75","143688","0.0-5.0-61.0","go-nogo","true","0","","true","<div class = centerbox><div  id = stim1></div></div>","32","32","750","","test","go","61","adv","","",""
"","321","32","1030","0","test_block","poldrack-single-stim","76","144745","0.0-5.0-62.0","go-nogo","true","0","","true","<div class = centerbox><div  id = stim1></div></div>","32","32","750","","test","go","62","adv","","",""
"","365","32","1017","0","test_block","poldrack-single-stim","77","145791","0.0-5.0-63.0","go-nogo","true","0","","true","<div class = centerbox><div  id = stim1></div></div>","32","32","750","","test","go","63","adv","","",""
"","398","32","1472","0","test_block","poldrack-single-stim","78","147295","0.0-5.0-64.0","go-nogo","true","0","","true","<div class = centerbox><div  id = stim1></div></div>","32","32","750","","test","go","64","adv","","",""
"","393","32","1312","0","test_block","poldrack-single-stim","79","148633","0.0-5.0-65.0","go-nogo","true","0","","true","<div class = centerbox><div  id = stim1></div></div>","32","32","750","","test","go","65","adv","","",""
"","346","32","1463","0","test_block","poldrack-single-stim","80","150128","0.0-5.0-66.0","go-nogo","true","0","","true","<div class = centerbox><div  id = stim1></div></div>","32","32","750","","test","go","66","adv","","",""
"","318","32","1236","0","test_block","poldrack-single-stim","81","151392","0.0-5.0-67.0","go-nogo","true","0","","true","<div class = centerbox><div  id = stim1></div></div>","32","32","750","","test","go","67","adv","","",""
"","325","32","1451","0","test_block","poldrack-single-stim","82","152871","0.0-5.0-68.0","go-nogo","true","0","","true","<div class = centerbox><div  id = stim1></div></div>","32","32","750","","test","go","68","adv","","",""
"","284","32","1202","0","test_block","poldrack-single-stim","83","154101","0.0-5.0-69.0","go-nogo","true","0","","true","<div class = centerbox><div  id = stim1></div></div>","32","32","750","","test","go","69","adv","","",""
"","359","32","1244","0","test_block","poldrack-single-stim","84","155373","0.0-5.0-70.0","go-nogo","true","0","","true","<div class = centerbox><div  id = stim1></div></div>","32","32","750","","test","go","70","adv","","",""
"","313","32","1054","0","test_block","poldrack-single-stim","85","156456","0.0-5.0-71.0","go-nogo","true","0","","true","<div class = centerbox><div  id = stim1></div></div>","32","32","750","","test","go","71","adv","","",""
"","345","32","1041","0","test_block","poldrack-single-stim","86","157526","0.0-5.0-72.0","go-nogo","true","0","","true","<div class = centerbox><div  id = stim1></div></div>","32","32","750","","test","go","72","adv","","",""
"","342","32","1202","0","test_block","poldrack-single-stim","87","158758","0.0-5.0-73.0","go-nogo","true","0","","true","<div class = centerbox><div  id = stim1></div></div>","32","32","750","","test","go","73","adv","","",""
"","13","32","1283","0","test_block","poldrack-single-stim","88","160067","0.0-5.0-74.0","go-nogo","true","0","","true","<div class = centerbox><div  id = stim1></div></div>","32","32","750","","test","go","74","adv","","",""
"","569","32","1093","0","test_block","poldrack-single-stim","89","161188","0.0-5.0-75.0","go-nogo","true","0","","true","<div class = centerbox><div  id = stim1></div></div>","32","32","750","","test","go","75","adv","","",""
"","-1","-1","1302","0","test_block","poldrack-single-stim","90","162518","0.0-5.0-76.0","go-nogo","true","0","","false","<div class = centerbox><div  id = stim1></div></div>","32","32","750","","test","go","76","adv","","",""
"","393","32","1182","0","test_block","poldrack-single-stim","91","163726","0.0-5.0-77.0","go-nogo","true","0","","true","<div class = centerbox><div  id = stim1></div></div>","32","32","750","","test","go","77","adv","","",""
"","-1","-1","1484","0","test_block","poldrack-single-stim","92","165239","0.0-5.0-78.0","go-nogo","true","0","","true","<div class = centerbox><div  id = stim2></div></div>","-1","32","750","","test","nogo","78","adv","","",""
"","450","32","1307","0","test_block","poldrack-single-stim","93","166575","0.0-5.0-79.0","go-nogo","true","0","","true","<div class = centerbox><div  id = stim1></div></div>","32","32","750","","test","go","79","adv","","",""
"","-1","-1","1310","0","test_block","poldrack-single-stim","94","167911","0.0-5.0-80.0","go-nogo","true","0","","true","<div class = centerbox><div  id = stim2></div></div>","-1","32","750","","test","nogo","80","adv","","",""
"","419","32","1214","0","test_block","poldrack-single-stim","95","169157","0.0-5.0-81.0","go-nogo","true","0","","true","<div class = centerbox><div  id = stim1></div></div>","32","32","750","","test","go","81","adv","","",""
"","-1","-1","1250","0","test_block","poldrack-single-stim","96","170437","0.0-5.0-82.0","go-nogo","true","0","","true","<div class = centerbox><div  id = stim2></div></div>","-1","32","750","","test","nogo","82","adv","","",""
"","304","32","1227","0","test_block","poldrack-single-stim","97","171690","0.0-5.0-83.0","go-nogo","true","0","","true","<div class = centerbox><div  id = stim1></div></div>","32","32","750","","test","go","83","adv","","",""
"","895","32","1183","0","test_block","poldrack-single-stim","98","172901","0.0-5.0-84.0","go-nogo","true","0","","true","<div class = centerbox><div  id = stim1></div></div>","32","32","750","","test","go","84","adv","","",""
"","494","32","1206","0","test_block","poldrack-single-stim","99","174136","0.0-5.0-85.0","go-nogo","true","0","","true","<div class = centerbox><div  id = stim1></div></div>","32","32","750","","test","go","85","adv","","",""
"","351","32","1231","0","test_block","poldrack-single-stim","100","175395","0.0-5.0-86.0","go-nogo","true","0","","true","<div class = centerbox><div  id = stim1></div></div>","32","32","750","","test","go","86","adv","","",""
"","307","32","1218","0","test_block","poldrack-single-stim","101","176640","0.0-5.0-87.0","go-nogo","true","0","","true","<div class = centerbox><div  id = stim1></div></div>","32","32","750","","test","go","87","adv","","",""
"","300","32","1376","0","test_block","poldrack-single-stim","102","178043","0.0-5.0-88.0","go-nogo","true","0","","true","<div class = centerbox><div  id = stim1></div></div>","32","32","750","","test","go","88","adv","","",""
"","314","32","1419","0","test_block","poldrack-single-stim","103","179491","0.0-5.0-89.0","go-nogo","true","0","","true","<div class = centerbox><div  id = stim1></div></div>","32","32","750","","test","go","89","adv","","",""
"","329","32","1310","0","test_block","poldrack-single-stim","104","180827","0.0-5.0-90.0","go-nogo","true","0","","true","<div class = centerbox><div  id = stim1></div></div>","32","32","750","","test","go","90","adv","","",""
"","332","32","1468","0","test_block","poldrack-single-stim","105","182320","0.0-5.0-91.0","go-nogo","true","0","","true","<div class = centerbox><div  id = stim1></div></div>","32","32","750","","test","go","91","adv","","",""
"","313","32","1101","0","test_block","poldrack-single-stim","106","183446","0.0-5.0-92.0","go-nogo","true","0","","true","<div class = centerbox><div  id = stim1></div></div>","32","32","750","","test","go","92","adv","","",""
"","401","32","1374","0","test_block","poldrack-single-stim","107","184849","0.0-5.0-93.0","go-nogo","true","0","","true","<div class = centerbox><div  id = stim1></div></div>","32","32","750","","test","go","93","adv","","",""
"","294","32","1338","0","test_block","poldrack-single-stim","108","186212","0.0-5.0-94.0","go-nogo","true","0","","true","<div class = centerbox><div  id = stim1></div></div>","32","32","750","","test","go","94","adv","","",""
"","301","32","1007","0","test_block","poldrack-single-stim","109","187245","0.0-5.0-95.0","go-nogo","true","0","","true","<div class = centerbox><div  id = stim1></div></div>","32","32","750","","test","go","95","adv","","",""
"","482","32","1143","0","test_block","poldrack-single-stim","110","188416","0.0-5.0-96.0","go-nogo","true","0","","true","<div class = centerbox><div  id = stim1></div></div>","32","32","750","","test","go","96","adv","","",""
"","347","32","1298","0","test_block","poldrack-single-stim","111","189743","0.0-5.0-97.0","go-nogo","true","0","","true","<div class = centerbox><div  id = stim1></div></div>","32","32","750","","test","go","97","adv","","",""
"","338","32","1054","0","test_block","poldrack-single-stim","112","190822","0.0-5.0-98.0","go-nogo","true","0","","true","<div class = centerbox><div  id = stim1></div></div>","32","32","750","","test","go","98","adv","","",""
"","430","32","1261","0","test_block","poldrack-single-stim","113","192109","0.0-5.0-99.0","go-nogo","true","0","","true","<div class = centerbox><div  id = stim1></div></div>","32","32","750","","test","go","99","adv","","",""
"","389","32","1317","0","test_block","poldrack-single-stim","114","193453","0.0-5.0-100.0","go-nogo","true","0","","true","<div class = centerbox><div  id = stim1></div></div>","32","32","750","","test","go","100","adv","","",""
"","316","32","1278","0","test_block","poldrack-single-stim","115","194760","0.0-5.0-101.0","go-nogo","true","0","","true","<div class = centerbox><div  id = stim1></div></div>","32","32","750","","test","go","101","adv","","",""
"","359","32","1173","0","test_block","poldrack-single-stim","116","195962","0.0-5.0-102.0","go-nogo","true","0","","true","<div class = centerbox><div  id = stim1></div></div>","32","32","750","","test","go","102","adv","","",""
"","340","32","1110","0","test_block","poldrack-single-stim","117","197099","0.0-5.0-103.0","go-nogo","true","0","","true","<div class = centerbox><div  id = stim1></div></div>","32","32","750","","test","go","103","adv","","",""
"","339","32","1165","0","test_block","poldrack-single-stim","118","198291","0.0-5.0-104.0","go-nogo","true","0","","true","<div class = centerbox><div  id = stim1></div></div>","32","32","750","","test","go","104","adv","","",""
"","385","32","1355","0","test_block","poldrack-single-stim","119","199672","0.0-5.0-105.0","go-nogo","true","0","","true","<div class = centerbox><div  id = stim1></div></div>","32","32","750","","test","go","105","adv","","",""
"","296","32","1498","0","test_block","poldrack-single-stim","120","201197","0.0-5.0-106.0","go-nogo","true","0","","true","<div class = centerbox><div  id = stim1></div></div>","32","32","750","","test","go","106","adv","","",""
"","301","32","1429","0","test_block","poldrack-single-stim","121","202653","0.0-5.0-107.0","go-nogo","true","0","","true","<div class = centerbox><div  id = stim1></div></div>","32","32","750","","test","go","107","adv","","",""
"","309","32","1114","0","test_block","poldrack-single-stim","122","203794","0.0-5.0-108.0","go-nogo","true","0","","true","<div class = centerbox><div  id = stim1></div></div>","32","32","750","","test","go","108","adv","","",""
"","371","32","1373","0","test_block","poldrack-single-stim","123","205196","0.0-5.0-109.0","go-nogo","true","0","","true","<div class = centerbox><div  id = stim1></div></div>","32","32","750","","test","go","109","adv","","",""
"","307","32","1472","0","test_block","poldrack-single-stim","124","206697","0.0-5.0-110.0","go-nogo","true","0","","true","<div class = centerbox><div  id = stim1></div></div>","32","32","750","","test","go","110","adv","","",""
"","314","32","1391","0","test_block","poldrack-single-stim","125","208116","0.0-5.0-111.0","go-nogo","true","0","","true","<div class = centerbox><div  id = stim1></div></div>","32","32","750","","test","go","111","adv","","",""
"","334","32","1002","0","test_block","poldrack-single-stim","126","209146","0.0-5.0-112.0","go-nogo","true","0","","true","<div class = centerbox><div  id = stim1></div></div>","32","32","750","","test","go","112","adv","","",""
"","521","32","1223","0","test_block","poldrack-single-stim","127","210396","0.0-5.0-113.0","go-nogo","true","0","","true","<div class = centerbox><div  id = stim1></div></div>","32","32","750","","test","go","113","adv","","",""
"","438","32","1243","0","test_block","poldrack-single-stim","128","211667","0.0-5.0-114.0","go-nogo","true","0","","true","<div class = centerbox><div  id = stim1></div></div>","32","32","750","","test","go","114","adv","","",""
"","262","32","1323","0","test_block","poldrack-single-stim","129","213017","0.0-5.0-115.0","go-nogo","true","0","","true","<div class = centerbox><div  id = stim1></div></div>","32","32","750","","test","go","115","adv","","",""
"","306","32","1059","0","test_block","poldrack-single-stim","130","214103","0.0-5.0-116.0","go-nogo","true","0","","true","<div class = centerbox><div  id = stim1></div></div>","32","32","750","","test","go","116","adv","","",""
"","331","32","1483","0","test_block","poldrack-single-stim","131","215617","0.0-5.0-117.0","go-nogo","true","0","","true","<div class = centerbox><div  id = stim1></div></div>","32","32","750","","test","go","117","adv","","",""
"","304","32","1111","0","test_block","poldrack-single-stim","132","216757","0.0-5.0-118.0","go-nogo","true","0","","true","<div class = centerbox><div  id = stim1></div></div>","32","32","750","","test","go","118","adv","","",""
"","369","32","1008","0","test_block","poldrack-single-stim","133","217789","0.0-5.0-119.0","go-nogo","true","0","","true","<div class = centerbox><div  id = stim1></div></div>","32","32","750","","test","go","119","adv","","",""
"","440","32","1267","0","test_block","poldrack-single-stim","134","219083","0.0-5.0-120.0","go-nogo","true","0","","true","<div class = centerbox><div  id = stim1></div></div>","32","32","750","","test","go","120","adv","","",""
"","316","32","1137","0","test_block","poldrack-single-stim","135","220248","0.0-5.0-121.0","go-nogo","true","0","","true","<div class = centerbox><div  id = stim1></div></div>","32","32","750","","test","go","121","adv","","",""
"","321","32","1044","0","test_block","poldrack-single-stim","136","221320","0.0-5.0-122.0","go-nogo","true","0","","true","<div class = centerbox><div  id = stim1></div></div>","32","32","750","","test","go","122","adv","","",""
"","565","32","1019","0","test_block","poldrack-single-stim","137","222365","0.0-5.0-123.0","go-nogo","true","0","","true","<div class = centerbox><div  id = stim1></div></div>","32","32","750","","test","go","123","adv","","",""
"","645","32","1176","0","test_block","poldrack-single-stim","138","223567","0.0-5.0-124.0","go-nogo","true","0","","true","<div class = centerbox><div  id = stim1></div></div>","32","32","750","","test","go","124","adv","","",""
"","780","32","1320","0","test_block","poldrack-single-stim","139","224915","0.0-5.0-125.0","go-nogo","true","0","","true","<div class = centerbox><div  id = stim1></div></div>","32","32","750","","test","go","125","adv","","",""
"","456","32","1036","0","test_block","poldrack-single-stim","140","225980","0.0-5.0-126.0","go-nogo","true","0","","true","<div class = centerbox><div  id = stim1></div></div>","32","32","750","","test","go","126","adv","","",""
"","608","32","1372","0","test_block","poldrack-single-stim","141","227377","0.0-5.0-127.0","go-nogo","true","0","","true","<div class = centerbox><div  id = stim1></div></div>","32","32","750","","test","go","127","adv","","",""
"","358","32","1239","0","test_block","poldrack-single-stim","142","228644","0.0-5.0-128.0","go-nogo","true","0","","true","<div class = centerbox><div  id = stim1></div></div>","32","32","750","","test","go","128","adv","","",""
"","340","32","1129","0","test_block","poldrack-single-stim","143","229799","0.0-5.0-129.0","go-nogo","true","0","","true","<div class = centerbox><div  id = stim1></div></div>","32","32","750","","test","go","129","adv","","",""
"","424","32","1238","0","test_block","poldrack-single-stim","144","231062","0.0-5.0-130.0","go-nogo","true","0","","true","<div class = centerbox><div  id = stim1></div></div>","32","32","750","","test","go","130","adv","","",""
"","383","32","1378","0","test_block","poldrack-single-stim","145","232468","0.0-5.0-131.0","go-nogo","true","0","","true","<div class = centerbox><div  id = stim1></div></div>","32","32","750","","test","go","131","adv","","",""
"","398","32","1058","0","test_block","poldrack-single-stim","146","233551","0.0-5.0-132.0","go-nogo","true","0","","true","<div class = centerbox><div  id = stim1></div></div>","32","32","750","","test","go","132","adv","","",""
"","394","32","1250","0","test_block","poldrack-single-stim","147","234828","0.0-5.0-133.0","go-nogo","true","0","","true","<div class = centerbox><div  id = stim1></div></div>","32","32","750","","test","go","133","adv","","",""
"","331","32","1054","0","test_block","poldrack-single-stim","148","235909","0.0-5.0-134.0","go-nogo","true","0","","true","<div class = centerbox><div  id = stim1></div></div>","32","32","750","","test","go","134","adv","","",""
"","399","32","1323","0","test_block","poldrack-single-stim","149","237258","0.0-5.0-135.0","go-nogo","true","0","","true","<div class = centerbox><div  id = stim1></div></div>","32","32","750","","test","go","135","adv","","",""
"","287","32","1018","0","test_block","poldrack-single-stim","150","238304","0.0-5.0-136.0","go-nogo","true","0","","true","<div class = centerbox><div  id = stim1></div></div>","32","32","750","","test","go","136","adv","","",""
"","479","32","1124","0","test_block","poldrack-single-stim","151","239453","0.0-5.0-137.0","go-nogo","true","0","","true","<div class = centerbox><div  id = stim1></div></div>","32","32","750","","test","go","137","adv","","",""
"","-1","-1","1030","0","test_block","poldrack-single-stim","152","240509","0.0-5.0-138.0","go-nogo","true","0","","true","<div class = centerbox><div  id = stim2></div></div>","-1","32","750","","test","nogo","138","adv","","",""
"","343","32","1391","0","test_block","poldrack-single-stim","153","241928","0.0-5.0-139.0","go-nogo","true","0","","true","<div class = centerbox><div  id = stim1></div></div>","32","32","750","","test","go","139","adv","","",""
"","555","32","1415","0","test_block","poldrack-single-stim","154","243371","0.0-5.0-140.0","go-nogo","true","0","","true","<div class = centerbox><div  id = stim1></div></div>","32","32","750","","test","go","140","adv","","",""
"","418","32","1132","0","test_block","poldrack-single-stim","155","244529","0.0-5.0-141.0","go-nogo","true","0","","true","<div class = centerbox><div  id = stim1></div></div>","32","32","750","","test","go","141","adv","","",""
"","431","32","1376","0","test_block","poldrack-single-stim","156","245931","0.0-5.0-142.0","go-nogo","true","0","","true","<div class = centerbox><div  id = stim1></div></div>","32","32","750","","test","go","142","adv","","",""
"","366","32","1411","0","test_block","poldrack-single-stim","157","247367","0.0-5.0-143.0","go-nogo","true","0","","true","<div class = centerbox><div  id = stim1></div></div>","32","32","750","","test","go","143","adv","","",""
"","327","32","1338","0","test_block","poldrack-single-stim","158","248732","0.0-5.0-144.0","go-nogo","true","0","","true","<div class = centerbox><div  id = stim1></div></div>","32","32","750","","test","go","144","adv","","",""
"","346","32","1161","0","test_block","poldrack-single-stim","159","249918","0.0-5.0-145.0","go-nogo","true","0","","true","<div class = centerbox><div  id = stim1></div></div>","32","32","750","","test","go","145","adv","","",""
"","351","32","1341","0","test_block","poldrack-single-stim","160","251286","0.0-5.0-146.0","go-nogo","true","0","","false","<div class = centerbox><div  id = stim2></div></div>","-1","32","750","","test","nogo","146","adv","","",""
"","345","32","1269","0","test_block","poldrack-single-stim","161","252583","0.0-5.0-147.0","go-nogo","true","0","","false","<div class = centerbox><div  id = stim2></div></div>","-1","32","750","","test","nogo","147","adv","","",""
"","-1","-1","1482","0","test_block","poldrack-single-stim","162","254092","0.0-5.0-148.0","go-nogo","true","0","","true","<div class = centerbox><div  id = stim2></div></div>","-1","32","750","","test","nogo","148","adv","","",""
"","509","32","1100","0","test_block","poldrack-single-stim","163","255218","0.0-5.0-149.0","go-nogo","true","0","","true","<div class = centerbox><div  id = stim1></div></div>","32","32","750","","test","go","149","adv","","",""
"","576","32","1236","0","test_block","poldrack-single-stim","164","256481","0.0-5.0-150.0","go-nogo","true","0","","true","<div class = centerbox><div  id = stim1></div></div>","32","32","750","","test","go","150","adv","","",""
"","470","32","1339","0","test_block","poldrack-single-stim","165","257847","0.0-5.0-151.0","go-nogo","true","0","","true","<div class = centerbox><div  id = stim1></div></div>","32","32","750","","test","go","151","adv","","",""
"","421","32","1066","0","test_block","poldrack-single-stim","166","258936","0.0-5.0-152.0","go-nogo","true","0","","true","<div class = centerbox><div  id = stim1></div></div>","32","32","750","","test","go","152","adv","","",""
"","478","32","1156","0","test_block","poldrack-single-stim","167","260123","0.0-5.0-153.0","go-nogo","true","0","","true","<div class = centerbox><div  id = stim1></div></div>","32","32","750","","test","go","153","adv","","",""
"","452","32","1276","0","test_block","poldrack-single-stim","168","261424","0.0-5.0-154.0","go-nogo","true","0","","true","<div class = centerbox><div  id = stim1></div></div>","32","32","750","","test","go","154","adv","","",""
"","-1","-1","1248","0","test_block","poldrack-single-stim","169","262699","0.0-5.0-155.0","go-nogo","true","0","","true","<div class = centerbox><div  id = stim2></div></div>","-1","32","750","","test","nogo","155","adv","","",""
"","362","32","1296","0","test_block","poldrack-single-stim","170","264022","0.0-5.0-156.0","go-nogo","true","0","","true","<div class = centerbox><div  id = stim1></div></div>","32","32","750","","test","go","156","adv","","",""
"","602","32","1284","0","test_block","poldrack-single-stim","171","265334","0.0-5.0-157.0","go-nogo","true","0","","true","<div class = centerbox><div  id = stim1></div></div>","32","32","750","","test","go","157","adv","","",""
"","473","32","1072","0","test_block","poldrack-single-stim","172","266433","0.0-5.0-158.0","go-nogo","true","0","","true","<div class = centerbox><div  id = stim1></div></div>","32","32","750","","test","go","158","adv","","",""
"","441","32","1295","0","test_block","poldrack-single-stim","173","267756","0.0-5.0-159.0","go-nogo","true","0","","true","<div class = centerbox><div  id = stim1></div></div>","32","32","750","","test","go","159","adv","","",""
"","337","32","1477","0","test_block","poldrack-single-stim","174","269260","0.0-5.0-160.0","go-nogo","true","0","","true","<div class = centerbox><div  id = stim1></div></div>","32","32","750","","test","go","160","adv","","",""
"","335","32","1482","0","test_block","poldrack-single-stim","175","270768","0.0-5.0-161.0","go-nogo","true","0","","true","<div class = centerbox><div  id = stim1></div></div>","32","32","750","","test","go","161","adv","","",""
"","304","32","1144","0","test_block","poldrack-single-stim","176","271937","0.0-5.0-162.0","go-nogo","true","0","","true","<div class = centerbox><div  id = stim1></div></div>","32","32","750","","test","go","162","adv","","",""
"","428","32","1007","0","test_block","poldrack-single-stim","177","272969","0.0-5.0-163.0","go-nogo","true","0","","true","<div class = centerbox><div  id = stim1></div></div>","32","32","750","","test","go","163","adv","","",""
"","734","32","1264","0","test_block","poldrack-single-stim","178","274260","0.0-5.0-164.0","go-nogo","true","0","","true","<div class = centerbox><div  id = stim1></div></div>","32","32","750","","test","go","164","adv","","",""
"","-1","-1","1093","0","test_block","poldrack-single-stim","179","275380","0.0-5.0-165.0","go-nogo","true","0","","true","<div class = centerbox><div  id = stim2></div></div>","-1","32","750","","test","nogo","165","adv","","",""
"","583","32","1258","0","test_block","poldrack-single-stim","180","276666","0.0-5.0-166.0","go-nogo","true","0","","true","<div class = centerbox><div  id = stim1></div></div>","32","32","750","","test","go","166","adv","","",""
"","379","32","1095","0","test_block","poldrack-single-stim","181","277789","0.0-5.0-167.0","go-nogo","true","0","","true","<div class = centerbox><div  id = stim1></div></div>","32","32","750","","test","go","167","adv","","",""
"","381","32","1129","0","test_block","poldrack-single-stim","182","278946","0.0-5.0-168.0","go-nogo","true","0","","true","<div class = centerbox><div  id = stim1></div></div>","32","32","750","","test","go","168","adv","","",""
"","394","32","1488","0","test_block","poldrack-single-stim","183","280461","0.0-5.0-169.0","go-nogo","true","0","","true","<div class = centerbox><div  id = stim1></div></div>","32","32","750","","test","go","169","adv","","",""
"","352","32","1002","0","test_block","poldrack-single-stim","184","281488","0.0-5.0-170.0","go-nogo","true","0","","true","<div class = centerbox><div  id = stim1></div></div>","32","32","750","","test","go","170","adv","","",""
"","507","32","1386","0","test_block","poldrack-single-stim","185","282901","0.0-5.0-171.0","go-nogo","true","0","","true","<div class = centerbox><div  id = stim1></div></div>","32","32","750","","test","go","171","adv","","",""
"","557","32","1205","0","test_block","poldrack-single-stim","186","284134","0.0-5.0-172.0","go-nogo","true","0","","true","<div class = centerbox><div  id = stim1></div></div>","32","32","750","","test","go","172","adv","","",""
"","426","32","1253","0","test_block","poldrack-single-stim","187","285414","0.0-5.0-173.0","go-nogo","true","0","","true","<div class = centerbox><div  id = stim1></div></div>","32","32","750","","test","go","173","adv","","",""
"","621","32","1023","0","test_block","poldrack-single-stim","188","286464","0.0-5.0-174.0","go-nogo","true","0","","true","<div class = centerbox><div  id = stim1></div></div>","32","32","750","","test","go","174","adv","","",""
"","502","32","1134","0","test_block","poldrack-single-stim","189","287625","0.0-5.0-175.0","go-nogo","true","0","","true","<div class = centerbox><div  id = stim1></div></div>","32","32","750","","test","go","175","adv","","",""
"","-1","-1","1320","0","test_block","poldrack-single-stim","190","288975","0.0-5.0-176.0","go-nogo","true","0","","true","<div class = centerbox><div  id = stim2></div></div>","-1","32","750","","test","nogo","176","adv","","",""
"","401","32","1229","0","test_block","poldrack-single-stim","191","290230","0.0-5.0-177.0","go-nogo","true","0","","true","<div class = centerbox><div  id = stim1></div></div>","32","32","750","","test","go","177","adv","","",""
"","393","32","1489","0","test_block","poldrack-single-stim","192","291748","0.0-5.0-178.0","go-nogo","true","0","","true","<div class = centerbox><div  id = stim1></div></div>","32","32","750","","test","go","178","adv","","",""
"","306","32","1037","0","test_block","poldrack-single-stim","193","292812","0.0-5.0-179.0","go-nogo","true","0","","true","<div class = centerbox><div  id = stim1></div></div>","32","32","750","","test","go","179","adv","","",""
"","430","32","1492","0","test_block","poldrack-single-stim","194","294335","0.0-5.0-180.0","go-nogo","true","0","","true","<div class = centerbox><div  id = stim1></div></div>","32","32","750","","test","go","180","adv","","",""
"","372","32","1310","0","test_block","poldrack-single-stim","195","295674","0.0-5.0-181.0","go-nogo","true","0","","true","<div class = centerbox><div  id = stim1></div></div>","32","32","750","","test","go","181","adv","","",""
"","417","32","1374","0","test_block","poldrack-single-stim","196","297075","0.0-5.0-182.0","go-nogo","true","0","","true","<div class = centerbox><div  id = stim1></div></div>","32","32","750","","test","go","182","adv","","",""
"","535","32","1200","0","test_block","poldrack-single-stim","197","298303","0.0-5.0-183.0","go-nogo","true","0","","true","<div class = centerbox><div  id = stim1></div></div>","32","32","750","","test","go","183","adv","","",""
"","477","32","1158","0","test_block","poldrack-single-stim","198","299487","0.0-5.0-184.0","go-nogo","true","0","","true","<div class = centerbox><div  id = stim1></div></div>","32","32","750","","test","go","184","adv","","",""
"","305","32","1194","0","test_block","poldrack-single-stim","199","300709","0.0-5.0-185.0","go-nogo","true","0","","true","<div class = centerbox><div  id = stim1></div></div>","32","32","750","","test","go","185","adv","","",""
"","345","32","1111","0","test_block","poldrack-single-stim","200","301845","0.0-5.0-186.0","go-nogo","true","0","","false","<div class = centerbox><div  id = stim2></div></div>","-1","32","750","","test","nogo","186","adv","","",""
"","-1","-1","1479","0","test_block","poldrack-single-stim","201","303349","0.0-5.0-187.0","go-nogo","true","0","","true","<div class = centerbox><div  id = stim2></div></div>","-1","32","750","","test","nogo","187","adv","","",""
"","460","32","1094","0","test_block","poldrack-single-stim","202","304469","0.0-5.0-188.0","go-nogo","true","0","","true","<div class = centerbox><div  id = stim1></div></div>","32","32","750","","test","go","188","adv","","",""
"","409","32","1454","0","test_block","poldrack-single-stim","203","305950","0.0-5.0-189.0","go-nogo","true","0","","true","<div class = centerbox><div  id = stim1></div></div>","32","32","750","","test","go","189","adv","","",""
"","424","32","1123","0","test_block","poldrack-single-stim","204","307099","0.0-5.0-190.0","go-nogo","true","0","","true","<div class = centerbox><div  id = stim1></div></div>","32","32","750","","test","go","190","adv","","",""
"","500","32","1381","0","test_block","poldrack-single-stim","205","308507","0.0-5.0-191.0","go-nogo","true","0","","true","<div class = centerbox><div  id = stim1></div></div>","32","32","750","","test","go","191","adv","","",""
"","387","32","1258","0","test_block","poldrack-single-stim","206","309793","0.0-5.0-192.0","go-nogo","true","0","","false","<div class = centerbox><div  id = stim2></div></div>","-1","32","750","","test","nogo","192","adv","","",""
"","-1","-1","1143","0","test_block","poldrack-single-stim","207","310963","0.0-5.0-193.0","go-nogo","true","0","","true","<div class = centerbox><div  id = stim2></div></div>","-1","32","750","","test","nogo","193","adv","","",""
"","384","32","1464","0","test_block","poldrack-single-stim","208","312454","0.0-5.0-194.0","go-nogo","true","0","","true","<div class = centerbox><div  id = stim1></div></div>","32","32","750","","test","go","194","adv","","",""
"","333","32","1042","0","test_block","poldrack-single-stim","209","313524","0.0-5.0-195.0","go-nogo","true","0","","true","<div class = centerbox><div  id = stim1></div></div>","32","32","750","","test","go","195","adv","","",""
"","625","32","1027","0","test_block","poldrack-single-stim","210","314577","0.0-5.0-196.0","go-nogo","true","0","","true","<div class = centerbox><div  id = stim1></div></div>","32","32","750","","test","go","196","adv","","",""
"","-1","-1","1336","0","test_block","poldrack-single-stim","211","315940","0.0-5.0-197.0","go-nogo","true","0","","true","<div class = centerbox><div  id = stim2></div></div>","-1","32","750","","test","nogo","197","adv","","",""
"","413","32","1201","0","test_block","poldrack-single-stim","212","317167","0.0-5.0-198.0","go-nogo","true","0","","true","<div class = centerbox><div  id = stim1></div></div>","32","32","750","","test","go","198","adv","","",""
"","536","32","1492","0","test_block","poldrack-single-stim","213","318685","0.0-5.0-199.0","go-nogo","true","0","","true","<div class = centerbox><div  id = stim1></div></div>","32","32","750","","test","go","199","adv","","",""
"","425","32","1405","0","test_block","poldrack-single-stim","214","320117","0.0-5.0-200.0","go-nogo","true","0","","true","<div class = centerbox><div  id = stim1></div></div>","32","32","750","","test","go","200","adv","","",""
"","420","32","1459","0","test_block","poldrack-single-stim","215","321605","0.0-5.0-201.0","go-nogo","true","0","","true","<div class = centerbox><div  id = stim1></div></div>","32","32","750","","test","go","201","adv","","",""
"","-1","-1","1413","0","test_block","poldrack-single-stim","216","323045","0.0-5.0-202.0","go-nogo","true","0","","true","<div class = centerbox><div  id = stim2></div></div>","-1","32","750","","test","nogo","202","adv","","",""
"","395","32","1380","0","test_block","poldrack-single-stim","217","324453","0.0-5.0-203.0","go-nogo","true","0","","true","<div class = centerbox><div  id = stim1></div></div>","32","32","750","","test","go","203","adv","","",""
"","516","32","1164","0","test_block","poldrack-single-stim","218","325646","0.0-5.0-204.0","go-nogo","true","0","","true","<div class = centerbox><div  id = stim1></div></div>","32","32","750","","test","go","204","adv","","",""
"","416","32","1123","0","test_block","poldrack-single-stim","219","326795","0.0-5.0-205.0","go-nogo","true","0","","true","<div class = centerbox><div  id = stim1></div></div>","32","32","750","","test","go","205","adv","","",""
"","380","32","1097","0","test_block","poldrack-single-stim","220","327919","0.0-5.0-206.0","go-nogo","true","0","","true","<div class = centerbox><div  id = stim1></div></div>","32","32","750","","test","go","206","adv","","",""
"","493","32","1088","0","test_block","poldrack-single-stim","221","329033","0.0-5.0-207.0","go-nogo","true","0","","true","<div class = centerbox><div  id = stim1></div></div>","32","32","750","","test","go","207","adv","","",""
"","536","32","1189","0","test_block","poldrack-single-stim","222","330247","0.0-5.0-208.0","go-nogo","true","0","","true","<div class = centerbox><div  id = stim1></div></div>","32","32","750","","test","go","208","adv","","",""
"","469","32","1084","0","test_block","poldrack-single-stim","223","331352","0.0-5.0-209.0","go-nogo","true","0","","true","<div class = centerbox><div  id = stim1></div></div>","32","32","750","","test","go","209","adv","","",""
"","609","32","1149","0","test_block","poldrack-single-stim","224","332527","0.0-5.0-210.0","go-nogo","true","0","","true","<div class = centerbox><div  id = stim1></div></div>","32","32","750","","test","go","210","adv","","",""
"","391","32","1372","0","test_block","poldrack-single-stim","225","333922","0.0-5.0-211.0","go-nogo","true","0","","false","<div class = centerbox><div  id = stim2></div></div>","-1","32","750","","test","nogo","211","adv","","",""
"","343","32","1144","0","test_block","poldrack-single-stim","226","335091","0.0-5.0-212.0","go-nogo","true","0","","false","<div class = centerbox><div  id = stim2></div></div>","-1","32","750","","test","nogo","212","adv","","",""
"","-1","-1","1045","0","test_block","poldrack-single-stim","227","336163","0.0-5.0-213.0","go-nogo","true","0","","true","<div class = centerbox><div  id = stim2></div></div>","-1","32","750","","test","nogo","213","adv","","",""
"","373","32","1331","0","test_block","poldrack-single-stim","228","337519","0.0-5.0-214.0","go-nogo","true","0","","true","<div class = centerbox><div  id = stim1></div></div>","32","32","750","","test","go","214","adv","","",""
"","432","32","1071","0","test_block","poldrack-single-stim","229","338617","0.0-5.0-215.0","go-nogo","true","0","","true","<div class = centerbox><div  id = stim1></div></div>","32","32","750","","test","go","215","adv","","",""
"","583","32","1473","0","test_block","poldrack-single-stim","230","340115","0.0-5.0-216.0","go-nogo","true","0","","true","<div class = centerbox><div  id = stim1></div></div>","32","32","750","","test","go","216","adv","","",""
"","501","32","1113","0","test_block","poldrack-single-stim","231","341255","0.0-5.0-217.0","go-nogo","true","0","","true","<div class = centerbox><div  id = stim1></div></div>","32","32","750","","test","go","217","adv","","",""
"","417","32","1333","0","test_block","poldrack-single-stim","232","342614","0.0-5.0-218.0","go-nogo","true","0","","true","<div class = centerbox><div  id = stim1></div></div>","32","32","750","","test","go","218","adv","","",""
"","528","32","1245","0","test_block","poldrack-single-stim","233","343887","0.0-5.0-219.0","go-nogo","true","0","","true","<div class = centerbox><div  id = stim1></div></div>","32","32","750","","test","go","219","adv","","",""
"","347","32","1348","0","test_block","poldrack-single-stim","234","345264","0.0-5.0-220.0","go-nogo","true","0","","false","<div class = centerbox><div  id = stim2></div></div>","-1","32","750","","test","nogo","220","adv","","",""
"","310","32","1271","0","test_block","poldrack-single-stim","235","346562","0.0-5.0-221.0","go-nogo","true","0","","false","<div class = centerbox><div  id = stim2></div></div>","-1","32","750","","test","nogo","221","adv","","",""
"","-1","-1","1220","0","test_block","poldrack-single-stim","236","347809","0.0-5.0-222.0","go-nogo","true","0","","true","<div class = centerbox><div  id = stim2></div></div>","-1","32","750","","test","nogo","222","adv","","",""
"","385","32","1421","0","test_block","poldrack-single-stim","237","349257","0.0-5.0-223.0","go-nogo","true","0","","true","<div class = centerbox><div  id = stim1></div></div>","32","32","750","","test","go","223","adv","","",""
"","691","32","1414","0","test_block","poldrack-single-stim","238","350697","0.0-5.0-224.0","go-nogo","true","0","","true","<div class = centerbox><div  id = stim1></div></div>","32","32","750","","test","go","224","adv","","",""
"","353","32","1130","0","test_block","poldrack-single-stim","239","351854","0.0-5.0-225.0","go-nogo","true","0","","true","<div class = centerbox><div  id = stim1></div></div>","32","32","750","","test","go","225","adv","","",""
"","478","32","1490","0","test_block","poldrack-single-stim","240","353371","0.0-5.0-226.0","go-nogo","true","0","","true","<div class = centerbox><div  id = stim1></div></div>","32","32","750","","test","go","226","adv","","",""
"","355","32","1065","0","test_block","poldrack-single-stim","241","354464","0.0-5.0-227.0","go-nogo","true","0","","true","<div class = centerbox><div  id = stim1></div></div>","32","32","750","","test","go","227","adv","","",""
"","544","32","1112","0","test_block","poldrack-single-stim","242","355602","0.0-5.0-228.0","go-nogo","true","0","","true","<div class = centerbox><div  id = stim1></div></div>","32","32","750","","test","go","228","adv","","",""
"","419","32","1148","0","test_block","poldrack-single-stim","243","356778","0.0-5.0-229.0","go-nogo","true","0","","true","<div class = centerbox><div  id = stim1></div></div>","32","32","750","","test","go","229","adv","","",""
"","379","32","1115","0","test_block","poldrack-single-stim","244","357918","0.0-5.0-230.0","go-nogo","true","0","","true","<div class = centerbox><div  id = stim1></div></div>","32","32","750","","test","go","230","adv","","",""
"","1071","32","1085","0","test_block","poldrack-single-stim","245","359028","0.0-5.0-231.0","go-nogo","true","0","","false","<div class = centerbox><div  id = stim2></div></div>","-1","32","750","","test","nogo","231","adv","","",""
"","-1","-1","1002","0","test_block","poldrack-single-stim","246","360055","0.0-5.0-232.0","go-nogo","true","0","","true","<div class = centerbox><div  id = stim2></div></div>","-1","32","750","","test","nogo","232","adv","","",""
"","363","32","1049","0","test_block","poldrack-single-stim","247","361132","0.0-5.0-233.0","go-nogo","true","0","","true","<div class = centerbox><div  id = stim1></div></div>","32","32","750","","test","go","233","adv","","",""
"","468","32","1141","0","test_block","poldrack-single-stim","248","362300","0.0-5.0-234.0","go-nogo","true","0","","true","<div class = centerbox><div  id = stim1></div></div>","32","32","750","","test","go","234","adv","","",""
"","537","32","1390","0","test_block","poldrack-single-stim","249","363716","0.0-5.0-235.0","go-nogo","true","0","","true","<div class = centerbox><div  id = stim1></div></div>","32","32","750","","test","go","235","adv","","",""
"","370","32","1402","0","test_block","poldrack-single-stim","250","365146","0.0-5.0-236.0","go-nogo","true","0","","true","<div class = centerbox><div  id = stim1></div></div>","32","32","750","","test","go","236","adv","","",""
"","-1","-1","1331","0","test_block","poldrack-single-stim","251","366503","0.0-5.0-237.0","go-nogo","true","0","","true","<div class = centerbox><div  id = stim2></div></div>","-1","32","750","","test","nogo","237","adv","","",""
"","439","32","1153","0","test_block","poldrack-single-stim","252","367684","0.0-5.0-238.0","go-nogo","true","0","","true","<div class = centerbox><div  id = stim1></div></div>","32","32","750","","test","go","238","adv","","",""
"","541","32","1378","0","test_block","poldrack-single-stim","253","369089","0.0-5.0-239.0","go-nogo","true","0","","true","<div class = centerbox><div  id = stim1></div></div>","32","32","750","","test","go","239","adv","","",""
"","418","32","1193","0","test_block","poldrack-single-stim","254","370308","0.0-5.0-240.0","go-nogo","true","0","","true","<div class = centerbox><div  id = stim1></div></div>","32","32","750","","test","go","240","adv","","",""
"","426","32","1493","0","test_block","poldrack-single-stim","255","371828","0.0-5.0-241.0","go-nogo","true","0","","true","<div class = centerbox><div  id = stim1></div></div>","32","32","750","","test","go","241","adv","","",""
"","368","32","1410","0","test_block","poldrack-single-stim","256","373266","0.0-5.0-242.0","go-nogo","true","0","","true","<div class = centerbox><div  id = stim1></div></div>","32","32","750","","test","go","242","adv","","",""
"","360","32","1260","0","test_block","poldrack-single-stim","257","374551","0.0-5.0-243.0","go-nogo","true","0","","true","<div class = centerbox><div  id = stim1></div></div>","32","32","750","","test","go","243","adv","","",""
"","344","32","1384","0","test_block","poldrack-single-stim","258","375961","0.0-5.0-244.0","go-nogo","true","0","","false","<div class = centerbox><div  id = stim2></div></div>","-1","32","750","","test","nogo","244","adv","","",""
"","-1","-1","1476","0","test_block","poldrack-single-stim","259","377466","0.0-5.0-245.0","go-nogo","true","0","","true","<div class = centerbox><div  id = stim2></div></div>","-1","32","750","","test","nogo","245","adv","","",""
"","321","32","1375","0","test_block","poldrack-single-stim","260","378868","0.0-5.0-246.0","go-nogo","true","0","","true","<div class = centerbox><div  id = stim1></div></div>","32","32","750","","test","go","246","adv","","",""
"","324","32","1307","0","test_block","poldrack-single-stim","261","380202","0.0-5.0-247.0","go-nogo","true","0","","true","<div class = centerbox><div  id = stim1></div></div>","32","32","750","","test","go","247","adv","","",""
"","364","32","1104","0","test_block","poldrack-single-stim","262","381333","0.0-5.0-248.0","go-nogo","true","0","","true","<div class = centerbox><div  id = stim1></div></div>","32","32","750","","test","go","248","adv","","",""
"","638","32","1018","0","test_block","poldrack-single-stim","263","382378","0.0-5.0-249.0","go-nogo","true","0","","true","<div class = centerbox><div  id = stim1></div></div>","32","32","750","","test","go","249","adv","","",""
"","-1","-1","1462","0","test_block","poldrack-single-stim","264","383865","0.0-5.0-250.0","go-nogo","true","0","","true","<div class = centerbox><div  id = stim2></div></div>","-1","32","750","","test","nogo","250","adv","","",""
"","458","32","1028","0","test_block","poldrack-single-stim","265","384919","0.0-5.0-251.0","go-nogo","true","0","","true","<div class = centerbox><div  id = stim1></div></div>","32","32","750","","test","go","251","adv","","",""
"","652","32","1070","0","test_block","poldrack-single-stim","266","386015","0.0-5.0-252.0","go-nogo","true","0","","true","<div class = centerbox><div  id = stim1></div></div>","32","32","750","","test","go","252","adv","","",""
"","491","32","1494","0","test_block","poldrack-single-stim","267","387535","0.0-5.0-253.0","go-nogo","true","0","","true","<div class = centerbox><div  id = stim1></div></div>","32","32","750","","test","go","253","adv","","",""
"","374","32","1441","0","test_block","poldrack-single-stim","268","389005","0.0-5.0-254.0","go-nogo","true","0","","true","<div class = centerbox><div  id = stim1></div></div>","32","32","750","","test","go","254","adv","","",""
"","582","32","1298","0","test_block","poldrack-single-stim","269","390331","0.0-5.0-255.0","go-nogo","true","0","","true","<div class = centerbox><div  id = stim1></div></div>","32","32","750","","test","go","255","adv","","",""
"","415","32","1494","0","test_block","poldrack-single-stim","270","391854","0.0-5.0-256.0","go-nogo","true","0","","true","<div class = centerbox><div  id = stim1></div></div>","32","32","750","","test","go","256","adv","","",""
"","-1","-1","1341","0","test_block","poldrack-single-stim","271","393230","0.0-5.0-257.0","go-nogo","true","0","","true","<div class = centerbox><div  id = stim2></div></div>","-1","32","750","","test","nogo","257","adv","","",""
"","407","32","1383","0","test_block","poldrack-single-stim","272","394639","0.0-5.0-258.0","go-nogo","true","0","","true","<div class = centerbox><div  id = stim1></div></div>","32","32","750","","test","go","258","adv","","",""
"","372","32","1162","0","test_block","poldrack-single-stim","273","395827","0.0-5.0-259.0","go-nogo","true","0","","true","<div class = centerbox><div  id = stim1></div></div>","32","32","750","","test","go","259","adv","","",""
"","669","32","1405","0","test_block","poldrack-single-stim","274","397260","0.0-5.0-260.0","go-nogo","true","0","","true","<div class = centerbox><div  id = stim1></div></div>","32","32","750","","test","go","260","adv","","",""
"","371","32","1053","0","test_block","poldrack-single-stim","275","398339","0.0-5.0-261.0","go-nogo","true","0","","true","<div class = centerbox><div  id = stim1></div></div>","32","32","750","","test","go","261","adv","","",""
"","394","32","1242","0","test_block","poldrack-single-stim","276","399609","0.0-5.0-262.0","go-nogo","true","0","","true","<div class = centerbox><div  id = stim1></div></div>","32","32","750","","test","go","262","adv","","",""
"","328","32","1187","0","test_block","poldrack-single-stim","277","400822","0.0-5.0-263.0","go-nogo","true","0","","true","<div class = centerbox><div  id = stim1></div></div>","32","32","750","","test","go","263","adv","","",""
"","317","32","1277","0","test_block","poldrack-single-stim","278","402129","0.0-5.0-264.0","go-nogo","true","0","","true","<div class = centerbox><div  id = stim1></div></div>","32","32","750","","test","go","264","adv","","",""
"","317","32","1048","0","test_block","poldrack-single-stim","279","403204","0.0-5.0-265.0","go-nogo","true","0","","true","<div class = centerbox><div  id = stim1></div></div>","32","32","750","","test","go","265","adv","","",""
"","334","32","1033","0","test_block","poldrack-single-stim","280","404262","0.0-5.0-266.0","go-nogo","true","0","","true","<div class = centerbox><div  id = stim1></div></div>","32","32","750","","test","go","266","adv","","",""
"","334","32","1481","0","test_block","poldrack-single-stim","281","405770","0.0-5.0-267.0","go-nogo","true","0","","true","<div class = centerbox><div  id = stim1></div></div>","32","32","750","","test","go","267","adv","","",""
"","333","32","1269","0","test_block","poldrack-single-stim","282","407066","0.0-5.0-268.0","go-nogo","true","0","","false","<div class = centerbox><div  id = stim2></div></div>","-1","32","750","","test","nogo","268","adv","","",""
"","-1","-1","1251","0","test_block","poldrack-single-stim","283","408343","0.0-5.0-269.0","go-nogo","true","0","","true","<div class = centerbox><div  id = stim2></div></div>","-1","32","750","","test","nogo","269","adv","","",""
"","392","32","1483","0","test_block","poldrack-single-stim","284","409853","0.0-5.0-270.0","go-nogo","true","0","","true","<div class = centerbox><div  id = stim1></div></div>","32","32","750","","test","go","270","adv","","",""
"","345","32","1352","0","test_block","poldrack-single-stim","285","411231","0.0-5.0-271.0","go-nogo","true","0","","true","<div class = centerbox><div  id = stim1></div></div>","32","32","750","","test","go","271","adv","","",""
"","373","32","1312","0","test_block","poldrack-single-stim","286","412571","0.0-5.0-272.0","go-nogo","true","0","","true","<div class = centerbox><div  id = stim1></div></div>","32","32","750","","test","go","272","adv","","",""
"","-1","-1","1275","0","test_block","poldrack-single-stim","287","413872","0.0-5.0-273.0","go-nogo","true","0","","true","<div class = centerbox><div  id = stim2></div></div>","-1","32","750","","test","nogo","273","adv","","",""
"","353","32","1111","0","test_block","poldrack-single-stim","288","415011","0.0-5.0-274.0","go-nogo","true","0","","true","<div class = centerbox><div  id = stim1></div></div>","32","32","750","","test","go","274","adv","","",""
"","610","32","1447","0","test_block","poldrack-single-stim","289","416486","0.0-5.0-275.0","go-nogo","true","0","","true","<div class = centerbox><div  id = stim1></div></div>","32","32","750","","test","go","275","adv","","",""
"","473","32","1107","0","test_block","poldrack-single-stim","290","417619","0.0-5.0-276.0","go-nogo","true","0","","true","<div class = centerbox><div  id = stim1></div></div>","32","32","750","","test","go","276","adv","","",""
"","724","32","1126","0","test_block","poldrack-single-stim","291","418771","0.0-5.0-277.0","go-nogo","true","0","","true","<div class = centerbox><div  id = stim1></div></div>","32","32","750","","test","go","277","adv","","",""
"","664","32","1255","0","test_block","poldrack-single-stim","292","420054","0.0-5.0-278.0","go-nogo","true","0","","true","<div class = centerbox><div  id = stim1></div></div>","32","32","750","","test","go","278","adv","","",""
"","459","32","1175","0","test_block","poldrack-single-stim","293","421257","0.0-5.0-279.0","go-nogo","true","0","","true","<div class = centerbox><div  id = stim1></div></div>","32","32","750","","test","go","279","adv","","",""
"","-1","-1","1292","0","test_block","poldrack-single-stim","294","422575","0.0-5.0-280.0","go-nogo","true","0","","true","<div class = centerbox><div  id = stim2></div></div>","-1","32","750","","test","nogo","280","adv","","",""
"","357","32","1408","0","test_block","poldrack-single-stim","295","424012","0.0-5.0-281.0","go-nogo","true","0","","true","<div class = centerbox><div  id = stim1></div></div>","32","32","750","","test","go","281","adv","","",""
"","518","32","1213","0","test_block","poldrack-single-stim","296","425252","0.0-5.0-282.0","go-nogo","true","0","","true","<div class = centerbox><div  id = stim1></div></div>","32","32","750","","test","go","282","adv","","",""
"","470","32","1030","0","test_block","poldrack-single-stim","297","426308","0.0-5.0-283.0","go-nogo","true","0","","true","<div class = centerbox><div  id = stim1></div></div>","32","32","750","","test","go","283","adv","","",""
"","473","32","1352","0","test_block","poldrack-single-stim","298","427687","0.0-5.0-284.0","go-nogo","true","0","","true","<div class = centerbox><div  id = stim1></div></div>","32","32","750","","test","go","284","adv","","",""
"","444","32","1462","0","test_block","poldrack-single-stim","299","429175","0.0-5.0-285.0","go-nogo","true","0","","true","<div class = centerbox><div  id = stim1></div></div>","32","32","750","","test","go","285","adv","","",""
"","373","32","1053","0","test_block","poldrack-single-stim","300","430255","0.0-5.0-286.0","go-nogo","true","0","","true","<div class = centerbox><div  id = stim1></div></div>","32","32","750","","test","go","286","adv","","",""
"","824","32","1066","0","test_block","poldrack-single-stim","301","431346","0.0-5.0-287.0","go-nogo","true","0","","true","<div class = centerbox><div  id = stim1></div></div>","32","32","750","","test","go","287","adv","","",""
"","-1","-1","1408","0","test_block","poldrack-single-stim","302","432781","0.0-5.0-288.0","go-nogo","true","0","","false","<div class = centerbox><div  id = stim1></div></div>","32","32","750","","test","go","288","adv","","",""
"","480","32","1399","0","test_block","poldrack-single-stim","303","434208","0.0-5.0-289.0","go-nogo","true","0","","true","<div class = centerbox><div  id = stim1></div></div>","32","32","750","","test","go","289","adv","","",""
"","-1","-1","1250","0","test_block","poldrack-single-stim","304","435482","0.0-5.0-290.0","go-nogo","true","0","","true","<div class = centerbox><div  id = stim2></div></div>","-1","32","750","","test","nogo","290","adv","","",""
"","411","32","1431","0","test_block","poldrack-single-stim","305","436938","0.0-5.0-291.0","go-nogo","true","0","","true","<div class = centerbox><div  id = stim1></div></div>","32","32","750","","test","go","291","adv","","",""
"","397","32","1475","0","test_block","poldrack-single-stim","306","438437","0.0-5.0-292.0","go-nogo","true","0","","true","<div class = centerbox><div  id = stim1></div></div>","32","32","750","","test","go","292","adv","","",""
"","393","32","1298","0","test_block","poldrack-single-stim","307","439763","0.0-5.0-293.0","go-nogo","true","0","","true","<div class = centerbox><div  id = stim1></div></div>","32","32","750","","test","go","293","adv","","",""
"","-1","-1","1442","0","test_block","poldrack-single-stim","308","441232","0.0-5.0-294.0","go-nogo","true","0","","true","<div class = centerbox><div  id = stim2></div></div>","-1","32","750","","test","nogo","294","adv","","",""
"","423","32","1023","0","test_block","poldrack-single-stim","309","442281","0.0-5.0-295.0","go-nogo","true","0","","true","<div class = centerbox><div  id = stim1></div></div>","32","32","750","","test","go","295","adv","","",""
"","588","32","1245","0","test_block","poldrack-single-stim","310","443553","0.0-5.0-296.0","go-nogo","true","0","","true","<div class = centerbox><div  id = stim1></div></div>","32","32","750","","test","go","296","adv","","",""
"","375","32","1079","0","test_block","poldrack-single-stim","311","444657","0.0-5.0-297.0","go-nogo","true","0","","true","<div class = centerbox><div  id = stim1></div></div>","32","32","750","","test","go","297","adv","","",""
"","359","32","1305","0","test_block","poldrack-single-stim","312","445991","0.0-5.0-298.0","go-nogo","true","0","","true","<div class = centerbox><div  id = stim1></div></div>","32","32","750","","test","go","298","adv","","",""
"","367","32","1356","0","test_block","poldrack-single-stim","313","447372","0.0-5.0-299.0","go-nogo","true","0","","true","<div class = centerbox><div  id = stim1></div></div>","32","32","750","","test","go","299","adv","","",""
"","403","32","1079","0","test_block","poldrack-single-stim","314","448476","0.0-5.0-300.0","go-nogo","true","0","","true","<div class = centerbox><div  id = stim1></div></div>","32","32","750","","test","go","300","adv","","",""
"","525","32","1147","0","test_block","poldrack-single-stim","315","449650","0.0-5.0-301.0","go-nogo","true","0","","true","<div class = centerbox><div  id = stim1></div></div>","32","32","750","","test","go","301","adv","","",""
"","554","32","1491","0","test_block","poldrack-single-stim","316","451167","0.0-5.0-302.0","go-nogo","true","0","","true","<div class = centerbox><div  id = stim1></div></div>","32","32","750","","test","go","302","adv","","",""
"","634","32","1012","0","test_block","poldrack-single-stim","317","452205","0.0-5.0-303.0","go-nogo","true","0","","true","<div class = centerbox><div  id = stim1></div></div>","32","32","750","","test","go","303","adv","","",""
"","577","32","1143","0","test_block","poldrack-single-stim","318","453373","0.0-5.0-304.0","go-nogo","true","0","","true","<div class = centerbox><div  id = stim1></div></div>","32","32","750","","test","go","304","adv","","",""
"","421","32","1175","0","test_block","poldrack-single-stim","319","454573","0.0-5.0-305.0","go-nogo","true","0","","true","<div class = centerbox><div  id = stim1></div></div>","32","32","750","","test","go","305","adv","","",""
"","369","32","1480","0","test_block","poldrack-single-stim","320","456077","0.0-5.0-306.0","go-nogo","true","0","","true","<div class = centerbox><div  id = stim1></div></div>","32","32","750","","test","go","306","adv","","",""
"","394","32","1198","0","test_block","poldrack-single-stim","321","457301","0.0-5.0-307.0","go-nogo","true","0","","true","<div class = centerbox><div  id = stim1></div></div>","32","32","750","","test","go","307","adv","","",""
"","351","32","1090","0","test_block","poldrack-single-stim","322","458416","0.0-5.0-308.0","go-nogo","true","0","","true","<div class = centerbox><div  id = stim1></div></div>","32","32","750","","test","go","308","adv","","",""
"","316","32","1369","0","test_block","poldrack-single-stim","323","459811","0.0-5.0-309.0","go-nogo","true","0","","true","<div class = centerbox><div  id = stim1></div></div>","32","32","750","","test","go","309","adv","","",""
"","517","32","1388","0","test_block","poldrack-single-stim","324","461225","0.0-5.0-310.0","go-nogo","true","0","","true","<div class = centerbox><div  id = stim1></div></div>","32","32","750","","test","go","310","adv","","",""
"","-1","-1","1288","0","test_block","poldrack-single-stim","325","462536","0.0-5.0-311.0","go-nogo","true","1","","false","<div class = centerbox><div  id = stim1></div></div>","32","32","750","","test","go","311","adv","","",""
"","-1","-1","1450","0","test_block","poldrack-single-stim","326","464011","0.0-5.0-312.0","go-nogo","true","0","","false","<div class = centerbox><div  id = stim1></div></div>","32","32","750","","test","go","312","adv","","",""
"","-1","-1","1258","0","test_block","poldrack-single-stim","327","465296","0.0-5.0-313.0","go-nogo","true","0","","false","<div class = centerbox><div  id = stim1></div></div>","32","32","750","","test","go","313","adv","","",""
"","-1","-1","1112","0","test_block","poldrack-single-stim","328","466433","0.0-5.0-314.0","go-nogo","true","0","","false","<div class = centerbox><div  id = stim1></div></div>","32","32","750","","test","go","314","adv","","",""
"","-1","-1","1423","0","test_block","poldrack-single-stim","329","467881","0.0-5.0-315.0","go-nogo","true","0","","false","<div class = centerbox><div  id = stim1></div></div>","32","32","750","","test","go","315","adv","","",""
"","-1","-1","1235","0","test_block","poldrack-single-stim","330","469140","0.0-5.0-316.0","go-nogo","true","0","","false","<div class = centerbox><div  id = stim1></div></div>","32","32","750","","test","go","316","adv","","",""
"","-1","-1","1294","0","test_block","poldrack-single-stim","331","470461","0.0-5.0-317.0","go-nogo","true","0","","false","<div class = centerbox><div  id = stim1></div></div>","32","32","750","","test","go","317","adv","","",""
"","-1","-1","1322","0","test_block","poldrack-single-stim","332","471806","0.0-5.0-318.0","go-nogo","true","0","","false","<div class = centerbox><div  id = stim1></div></div>","32","32","750","","test","go","318","adv","","",""
"","-1","-1","1452","0","test_block","poldrack-single-stim","333","473285","0.0-5.0-319.0","go-nogo","true","0","","false","<div class = centerbox><div  id = stim1></div></div>","32","32","750","","test","go","319","adv","","",""
"","-1","-1","1234","0","test_block","poldrack-single-stim","334","474546","0.0-5.0-320.0","go-nogo","true","0","","false","<div class = centerbox><div  id = stim1></div></div>","32","32","750","","test","go","320","adv","","",""
"","-1","-1","1473","0","test_block","poldrack-single-stim","335","476045","0.0-5.0-321.0","go-nogo","true","0","","false","<div class = centerbox><div  id = stim1></div></div>","32","32","750","","test","go","321","adv","","",""
"","-1","-1","1143","0","test_block","poldrack-single-stim","336","477435","0.0-5.0-322.0","go-nogo","true","0","","false","<div class = centerbox><div  id = stim1></div></div>","32","32","750","","test","go","322","adv","","",""
"","-1","-1","1189","0","test_block","poldrack-single-stim","337","478728","0.0-5.0-323.0","go-nogo","true","0","","false","<div class = centerbox><div  id = stim1></div></div>","32","32","750","","test","go","323","adv","","",""
"","-1","-1","1493","0","test_block","poldrack-single-stim","338","480248","0.0-5.0-324.0","go-nogo","true","0","","false","<div class = centerbox><div  id = stim1></div></div>","32","32","750","","test","go","324","adv","","",""
"","-1","-1","1179","0","test_block","poldrack-single-stim","339","481454","0.0-5.0-325.0","go-nogo","true","0","","false","<div class = centerbox><div  id = stim1></div></div>","32","32","750","","test","go","325","adv","","",""
"","-1","-1","1161","0","test_block","poldrack-single-stim","340","482641","0.0-5.0-326.0","go-nogo","true","0","","false","<div class = centerbox><div  id = stim1></div></div>","32","32","750","","test","go","326","adv","","",""
"","324","32","1477","0","test_block","poldrack-single-stim","341","484145","0.0-5.0-327.0","go-nogo","true","0","","true","<div class = centerbox><div  id = stim1></div></div>","32","32","750","","test","go","327","adv","","",""
"","383","32","1497","0","test_block","poldrack-single-stim","342","485667","0.0-5.0-328.0","go-nogo","true","0","","true","<div class = centerbox><div  id = stim1></div></div>","32","32","750","","test","go","328","adv","","",""
"","390","32","1261","0","test_block","poldrack-single-stim","343","486956","0.0-5.0-329.0","go-nogo","true","0","","true","<div class = centerbox><div  id = stim1></div></div>","32","32","750","","test","go","329","adv","","",""
"","431","32","1258","0","test_block","poldrack-single-stim","344","488241","0.0-5.0-330.0","go-nogo","true","0","","true","<div class = centerbox><div  id = stim1></div></div>","32","32","750","","test","go","330","adv","","",""
"","528","32","1400","0","test_block","poldrack-single-stim","345","489668","0.0-5.0-331.0","go-nogo","true","0","","true","<div class = centerbox><div  id = stim1></div></div>","32","32","750","","test","go","331","adv","","",""
"","508","32","1439","0","test_block","poldrack-single-stim","346","491135","0.0-5.0-332.0","go-nogo","true","0","","true","<div class = centerbox><div  id = stim1></div></div>","32","32","750","","test","go","332","adv","","",""
"","301","32","1221","0","test_block","poldrack-single-stim","347","492382","0.0-5.0-333.0","go-nogo","true","0","","true","<div class = centerbox><div  id = stim1></div></div>","32","32","750","","test","go","333","adv","","",""
"","303","32","1163","0","test_block","poldrack-single-stim","348","493573","0.0-5.0-334.0","go-nogo","true","0","","true","<div class = centerbox><div  id = stim1></div></div>","32","32","750","","test","go","334","adv","","",""
"","329","32","1402","0","test_block","poldrack-single-stim","349","494999","0.0-5.0-335.0","go-nogo","true","0","","true","<div class = centerbox><div  id = stim1></div></div>","32","32","750","","test","go","335","adv","","",""
"","374","32","1073","0","test_block","poldrack-single-stim","350","496101","0.0-5.0-336.0","go-nogo","true","0","","true","<div class = centerbox><div  id = stim1></div></div>","32","32","750","","test","go","336","adv","","",""
"","466","32","1201","0","test_block","poldrack-single-stim","351","497327","0.0-5.0-337.0","go-nogo","true","0","","true","<div class = centerbox><div  id = stim1></div></div>","32","32","750","","test","go","337","adv","","",""
"","508","32","1203","0","test_block","poldrack-single-stim","352","498560","0.0-5.0-338.0","go-nogo","true","0","","true","<div class = centerbox><div  id = stim1></div></div>","32","32","750","","test","go","338","adv","","",""
"","391","32","1022","0","test_block","poldrack-single-stim","353","499608","0.0-5.0-339.0","go-nogo","true","0","","true","<div class = centerbox><div  id = stim1></div></div>","32","32","750","","test","go","339","adv","","",""
"","513","32","1446","0","test_block","poldrack-single-stim","354","501080","0.0-5.0-340.0","go-nogo","true","0","","true","<div class = centerbox><div  id = stim1></div></div>","32","32","750","","test","go","340","adv","","",""
"","368","32","1219","0","test_block","poldrack-single-stim","355","502328","0.0-5.0-341.0","go-nogo","true","0","","true","<div class = centerbox><div  id = stim1></div></div>","32","32","750","","test","go","341","adv","","",""
"","325","32","1041","0","test_block","poldrack-single-stim","356","503395","0.0-5.0-342.0","go-nogo","true","0","","true","<div class = centerbox><div  id = stim1></div></div>","32","32","750","","test","go","342","adv","","",""
"","458","32","1275","0","test_block","poldrack-single-stim","357","504698","0.0-5.0-343.0","go-nogo","true","0","","true","<div class = centerbox><div  id = stim1></div></div>","32","32","750","","test","go","343","adv","","",""
"","351","32","1290","0","test_block","poldrack-single-stim","358","506014","0.0-5.0-344.0","go-nogo","true","0","","true","<div class = centerbox><div  id = stim1></div></div>","32","32","750","","test","go","344","adv","","",""
"","341","32","1063","0","test_block","poldrack-single-stim","359","507102","0.0-5.0-345.0","go-nogo","true","0","","true","<div class = centerbox><div  id = stim1></div></div>","32","32","750","","test","go","345","adv","","",""
"","386","32","1395","0","test_block","poldrack-single-stim","360","508527","0.0-5.0-346.0","go-nogo","true","0","","true","<div class = centerbox><div  id = stim1></div></div>","32","32","750","","test","go","346","adv","","",""
"","292","32","1126","0","test_block","poldrack-single-stim","361","509679","0.0-5.0-347.0","go-nogo","true","0","","true","<div class = centerbox><div  id = stim1></div></div>","32","32","750","","test","go","347","adv","","",""
"","320","32","1064","0","test_block","poldrack-single-stim","362","510769","0.0-5.0-348.0","go-nogo","true","0","","true","<div class = centerbox><div  id = stim1></div></div>","32","32","750","","test","go","348","adv","","",""
"","433","32","1420","0","test_block","poldrack-single-stim","363","512215","0.0-5.0-349.0","go-nogo","true","0","","true","<div class = centerbox><div  id = stim1></div></div>","32","32","750","","test","go","349","adv","","",""
"","135161","","","","post task questions","survey-text","364","647402","0.0-7.0","go-nogo","true","0","","","","","","","","","","","","{""Q0"":""press spacebar when orange square appeared. \ndon't press spacebar when blue square appeared."",""Q1"":""something odd happened about 7/8 way through. I heard an woman's voice saying OK Cindy. It was preceded by a hang in the action. \n\nI now need to give my eyes a nice long break from orange!""}","",""
"<div class = centerbox><p class = center-block-text>Thanks for completing this task!</p><p class = center-block-text>Insert the following code to collect your payment at Amazon Mechanical Turk:</p><p class = center-block-text>657192317</p><p class = center-block-text>Press <strong>enter</strong> to continue.</p></div>","22944","13","22944","0","end","poldrack-text","365","671351","0.0-8.0","go-nogo","true","0","","","","","","","","","","","","","657192317","true"
