"text","rt","key_press","block_duration","timing_post_trial","trial_id","trial_type","trial_index","time_elapsed","internal_node_id","exp_id","full_screen","focus_shifts","view_history","correct","stimulus","correct_response","possible_responses","stim_duration","feedback_duration","exp_stage","condition","trial_num","mode","responses","payment_id","credit_var"
"<div class = centerbox><p class = center-block-text>Welcome to the experiment. This task will take around 10 minutes. Press <strong>enter</strong> to begin.</p></div>","2998","13","2998","0","instruction","poldrack-text","0","2998","0.0-0.0-0.0","go-nogo","true","0","","","","","","","","","","","","","",""
"","6263","","","","instruction","poldrack-instructions","1","9262","0.0-0.0-1.0","go-nogo","true","0","[{""page_index"":0,""viewing_time"":6263}]","","","","","","","","","","","","",""
"","-1","-1","1095","250","practice","poldrack-categorize","2","12371","0.0-1.0-0.0","go-nogo","true","0","","true","<div class = centerbox><div id = stim1></div></div>","-1","32","750","1000","practice","nogo","0","adv","","",""
"","385","32","1258","250","practice","poldrack-categorize","3","14886","0.0-1.0-1.0","go-nogo","true","0","","true","<div class = centerbox><div  id = stim2></div></div>","32","32","750","1000","practice","go","1","adv","","",""
"","-1","-1","1089","250","practice","poldrack-categorize","4","17234","0.0-1.0-2.0","go-nogo","true","0","","true","<div class = centerbox><div id = stim1></div></div>","-1","32","750","1000","practice","nogo","2","adv","","",""
"","-1","-1","1123","250","practice","poldrack-categorize","5","19618","0.0-1.0-3.0","go-nogo","true","0","","true","<div class = centerbox><div id = stim1></div></div>","-1","32","750","1000","practice","nogo","3","adv","","",""
"","503","32","1101","250","practice","poldrack-categorize","6","21974","0.0-1.0-4.0","go-nogo","true","0","","true","<div class = centerbox><div  id = stim2></div></div>","32","32","750","1000","practice","go","4","adv","","",""
"","443","32","1018","250","practice","poldrack-categorize","7","24253","0.0-1.0-5.0","go-nogo","true","0","","true","<div class = centerbox><div  id = stim2></div></div>","32","32","750","1000","practice","go","5","adv","","",""
"","383","32","1146","250","practice","poldrack-categorize","8","26658","0.0-1.0-6.0","go-nogo","true","0","","true","<div class = centerbox><div  id = stim2></div></div>","32","32","750","1000","practice","go","6","adv","","",""
"","-1","-1","1384","250","practice","poldrack-categorize","9","29306","0.0-1.0-7.0","go-nogo","true","0","","true","<div class = centerbox><div id = stim1></div></div>","-1","32","750","1000","practice","nogo","7","adv","","",""
"","437","32","1152","250","practice","poldrack-categorize","10","31716","0.0-1.0-8.0","go-nogo","true","0","","true","<div class = centerbox><div  id = stim2></div></div>","32","32","750","1000","practice","go","8","adv","","",""
"","-1","-1","1326","250","practice","poldrack-categorize","11","34301","0.0-1.0-9.0","go-nogo","true","0","","true","<div class = centerbox><div id = stim1></div></div>","-1","32","750","1000","practice","nogo","9","adv","","",""
"","","","","","reset_trial","call-function","12","34553","0.0-3.0","go-nogo","true","0","","","","","","","","","","","","","",""
"<div class = centerbox><p class = block-text>Practice is over, we will now begin the experiment. You will no longer get feedback about your responses.</p><p class = block-text>Remember, if you see the <font color=""blue"">blue</font> square you should <strong> respond by pressing the spacebar as quickly as possible</strong>. If you see the <font color=""orange"">orange</font> square you should <strong> not respond</strong>. Press <strong>enter</strong> to begin.</p></div>","8972","13","8972","1000","test_intro","poldrack-text","13","43526","0.0-4.0","go-nogo","true","0","","","","","","","","","","","","","",""
"","366","32","1036","0","test_block","poldrack-single-stim","14","45572","0.0-5.0-0.0","go-nogo","true","0","","true","<div class = centerbox><div  id = stim2></div></div>","32","32","750","","test","go","0","adv","","",""
"","422","32","1265","0","test_block","poldrack-single-stim","15","46905","0.0-5.0-1.0","go-nogo","true","0","","true","<div class = centerbox><div  id = stim2></div></div>","32","32","750","","test","go","1","adv","","",""
"","360","32","1422","0","test_block","poldrack-single-stim","16","48366","0.0-5.0-2.0","go-nogo","true","0","","true","<div class = centerbox><div  id = stim2></div></div>","32","32","750","","test","go","2","adv","","",""
"","366","32","1012","0","test_block","poldrack-single-stim","17","49420","0.0-5.0-3.0","go-nogo","true","0","","true","<div class = centerbox><div  id = stim2></div></div>","32","32","750","","test","go","3","adv","","",""
"","416","32","1249","0","test_block","poldrack-single-stim","18","50704","0.0-5.0-4.0","go-nogo","true","0","","true","<div class = centerbox><div  id = stim2></div></div>","32","32","750","","test","go","4","adv","","",""
"","357","32","1241","0","test_block","poldrack-single-stim","19","51981","0.0-5.0-5.0","go-nogo","true","0","","true","<div class = centerbox><div  id = stim2></div></div>","32","32","750","","test","go","5","adv","","",""
"","349","32","1227","0","test_block","poldrack-single-stim","20","53245","0.0-5.0-6.0","go-nogo","true","0","","true","<div class = centerbox><div  id = stim2></div></div>","32","32","750","","test","go","6","adv","","",""
"","372","32","1392","0","test_block","poldrack-single-stim","21","54674","0.0-5.0-7.0","go-nogo","true","0","","true","<div class = centerbox><div  id = stim2></div></div>","32","32","750","","test","go","7","adv","","",""
"","358","32","1033","0","test_block","poldrack-single-stim","22","55742","0.0-5.0-8.0","go-nogo","true","0","","true","<div class = centerbox><div  id = stim2></div></div>","32","32","750","","test","go","8","adv","","",""
"","353","32","1077","0","test_block","poldrack-single-stim","23","56853","0.0-5.0-9.0","go-nogo","true","0","","true","<div class = centerbox><div  id = stim2></div></div>","32","32","750","","test","go","9","adv","","",""
"","406","32","1035","0","test_block","poldrack-single-stim","24","57929","0.0-5.0-10.0","go-nogo","true","0","","true","<div class = centerbox><div  id = stim2></div></div>","32","32","750","","test","go","10","adv","","",""
"","367","32","1044","0","test_block","poldrack-single-stim","25","59018","0.0-5.0-11.0","go-nogo","true","0","","true","<div class = centerbox><div  id = stim2></div></div>","32","32","750","","test","go","11","adv","","",""
"","376","32","1201","0","test_block","poldrack-single-stim","26","60258","0.0-5.0-12.0","go-nogo","true","0","","true","<div class = centerbox><div  id = stim2></div></div>","32","32","750","","test","go","12","adv","","",""
"","345","32","1407","0","test_block","poldrack-single-stim","27","61705","0.0-5.0-13.0","go-nogo","true","0","","true","<div class = centerbox><div  id = stim2></div></div>","32","32","750","","test","go","13","adv","","",""
"","383","32","1457","0","test_block","poldrack-single-stim","28","63200","0.0-5.0-14.0","go-nogo","true","0","","true","<div class = centerbox><div  id = stim2></div></div>","32","32","750","","test","go","14","adv","","",""
"","313","32","1260","0","test_block","poldrack-single-stim","29","64500","0.0-5.0-15.0","go-nogo","true","0","","true","<div class = centerbox><div  id = stim2></div></div>","32","32","750","","test","go","15","adv","","",""
"","283","32","1035","0","test_block","poldrack-single-stim","30","65574","0.0-5.0-16.0","go-nogo","true","0","","true","<div class = centerbox><div  id = stim2></div></div>","32","32","750","","test","go","16","adv","","",""
"","431","32","1420","0","test_block","poldrack-single-stim","31","67029","0.0-5.0-17.0","go-nogo","true","0","","true","<div class = centerbox><div  id = stim2></div></div>","32","32","750","","test","go","17","adv","","",""
"","324","32","1241","0","test_block","poldrack-single-stim","32","68305","0.0-5.0-18.0","go-nogo","true","0","","true","<div class = centerbox><div  id = stim2></div></div>","32","32","750","","test","go","18","adv","","",""
"","346","32","1291","0","test_block","poldrack-single-stim","33","69625","0.0-5.0-19.0","go-nogo","true","0","","true","<div class = centerbox><div  id = stim2></div></div>","32","32","750","","test","go","19","adv","","",""
"","306","32","1414","0","test_block","poldrack-single-stim","34","71076","0.0-5.0-20.0","go-nogo","true","0","","true","<div class = centerbox><div  id = stim2></div></div>","32","32","750","","test","go","20","adv","","",""
"","330","32","1404","0","test_block","poldrack-single-stim","35","72516","0.0-5.0-21.0","go-nogo","true","0","","true","<div class = centerbox><div  id = stim2></div></div>","32","32","750","","test","go","21","adv","","",""
"","325","32","1063","0","test_block","poldrack-single-stim","36","73614","0.0-5.0-22.0","go-nogo","true","0","","true","<div class = centerbox><div  id = stim2></div></div>","32","32","750","","test","go","22","adv","","",""
"","386","32","1331","0","test_block","poldrack-single-stim","37","74979","0.0-5.0-23.0","go-nogo","true","0","","true","<div class = centerbox><div  id = stim2></div></div>","32","32","750","","test","go","23","adv","","",""
"","344","32","1383","0","test_block","poldrack-single-stim","38","76393","0.0-5.0-24.0","go-nogo","true","0","","true","<div class = centerbox><div  id = stim2></div></div>","32","32","750","","test","go","24","adv","","",""
"","330","32","1074","0","test_block","poldrack-single-stim","39","77504","0.0-5.0-25.0","go-nogo","true","0","","true","<div class = centerbox><div  id = stim2></div></div>","32","32","750","","test","go","25","adv","","",""
"","466","32","1259","0","test_block","poldrack-single-stim","40","78799","0.0-5.0-26.0","go-nogo","true","0","","true","<div class = centerbox><div  id = stim2></div></div>","32","32","750","","test","go","26","adv","","",""
"","340","32","1399","0","test_block","poldrack-single-stim","41","80229","0.0-5.0-27.0","go-nogo","true","0","","true","<div class = centerbox><div  id = stim2></div></div>","32","32","750","","test","go","27","adv","","",""
"","330","32","1492","0","test_block","poldrack-single-stim","42","81759","0.0-5.0-28.0","go-nogo","true","0","","true","<div class = centerbox><div  id = stim2></div></div>","32","32","750","","test","go","28","adv","","",""
"","347","32","1056","0","test_block","poldrack-single-stim","43","82851","0.0-5.0-29.0","go-nogo","true","0","","true","<div class = centerbox><div  id = stim2></div></div>","32","32","750","","test","go","29","adv","","",""
"","375","32","1415","0","test_block","poldrack-single-stim","44","84302","0.0-5.0-30.0","go-nogo","true","0","","true","<div class = centerbox><div  id = stim2></div></div>","32","32","750","","test","go","30","adv","","",""
"","379","32","1007","0","test_block","poldrack-single-stim","45","85343","0.0-5.0-31.0","go-nogo","true","0","","true","<div class = centerbox><div  id = stim2></div></div>","32","32","750","","test","go","31","adv","","",""
"","413","32","1135","0","test_block","poldrack-single-stim","46","86509","0.0-5.0-32.0","go-nogo","true","0","","true","<div class = centerbox><div  id = stim2></div></div>","32","32","750","","test","go","32","adv","","",""
"","391","32","1382","0","test_block","poldrack-single-stim","47","87924","0.0-5.0-33.0","go-nogo","true","0","","true","<div class = centerbox><div  id = stim2></div></div>","32","32","750","","test","go","33","adv","","",""
"","342","32","1229","0","test_block","poldrack-single-stim","48","89193","0.0-5.0-34.0","go-nogo","true","0","","true","<div class = centerbox><div  id = stim2></div></div>","32","32","750","","test","go","34","adv","","",""
"","339","32","1176","0","test_block","poldrack-single-stim","49","90408","0.0-5.0-35.0","go-nogo","true","0","","true","<div class = centerbox><div  id = stim2></div></div>","32","32","750","","test","go","35","adv","","",""
"","310","32","1068","0","test_block","poldrack-single-stim","50","91508","0.0-5.0-36.0","go-nogo","true","0","","true","<div class = centerbox><div  id = stim2></div></div>","32","32","750","","test","go","36","adv","","",""
"","314","32","1467","0","test_block","poldrack-single-stim","51","93006","0.0-5.0-37.0","go-nogo","true","0","","true","<div class = centerbox><div  id = stim2></div></div>","32","32","750","","test","go","37","adv","","",""
"","308","32","1154","0","test_block","poldrack-single-stim","52","94190","0.0-5.0-38.0","go-nogo","true","0","","true","<div class = centerbox><div  id = stim2></div></div>","32","32","750","","test","go","38","adv","","",""
"","331","32","1165","0","test_block","poldrack-single-stim","53","95388","0.0-5.0-39.0","go-nogo","true","0","","true","<div class = centerbox><div  id = stim2></div></div>","32","32","750","","test","go","39","adv","","",""
"","319","32","1405","0","test_block","poldrack-single-stim","54","96825","0.0-5.0-40.0","go-nogo","true","0","","true","<div class = centerbox><div  id = stim2></div></div>","32","32","750","","test","go","40","adv","","",""
"","343","32","1415","0","test_block","poldrack-single-stim","55","98270","0.0-5.0-41.0","go-nogo","true","0","","true","<div class = centerbox><div  id = stim2></div></div>","32","32","750","","test","go","41","adv","","",""
"","304","32","1092","0","test_block","poldrack-single-stim","56","99395","0.0-5.0-42.0","go-nogo","true","0","","true","<div class = centerbox><div  id = stim2></div></div>","32","32","750","","test","go","42","adv","","",""
"","416","32","1324","0","test_block","poldrack-single-stim","57","100750","0.0-5.0-43.0","go-nogo","true","0","","true","<div class = centerbox><div  id = stim2></div></div>","32","32","750","","test","go","43","adv","","",""
"","336","32","1223","0","test_block","poldrack-single-stim","58","102003","0.0-5.0-44.0","go-nogo","true","0","","true","<div class = centerbox><div  id = stim2></div></div>","32","32","750","","test","go","44","adv","","",""
"","386","32","1018","0","test_block","poldrack-single-stim","59","103053","0.0-5.0-45.0","go-nogo","true","0","","true","<div class = centerbox><div  id = stim2></div></div>","32","32","750","","test","go","45","adv","","",""
"","381","32","1250","0","test_block","poldrack-single-stim","60","104338","0.0-5.0-46.0","go-nogo","true","0","","true","<div class = centerbox><div  id = stim2></div></div>","32","32","750","","test","go","46","adv","","",""
"","340","32","1276","0","test_block","poldrack-single-stim","61","105644","0.0-5.0-47.0","go-nogo","true","0","","true","<div class = centerbox><div  id = stim2></div></div>","32","32","750","","test","go","47","adv","","",""
"","323","32","1085","0","test_block","poldrack-single-stim","62","106748","0.0-5.0-48.0","go-nogo","true","0","","true","<div class = centerbox><div  id = stim2></div></div>","32","32","750","","test","go","48","adv","","",""
"","398","32","1362","0","test_block","poldrack-single-stim","63","108144","0.0-5.0-49.0","go-nogo","true","0","","true","<div class = centerbox><div  id = stim2></div></div>","32","32","750","","test","go","49","adv","","",""
"","305","32","1019","0","test_block","poldrack-single-stim","64","109195","0.0-5.0-50.0","go-nogo","true","0","","true","<div class = centerbox><div  id = stim2></div></div>","32","32","750","","test","go","50","adv","","",""
"","472","32","1018","0","test_block","poldrack-single-stim","65","110247","0.0-5.0-51.0","go-nogo","true","0","","true","<div class = centerbox><div  id = stim2></div></div>","32","32","750","","test","go","51","adv","","",""
"","304","32","1040","0","test_block","poldrack-single-stim","66","111316","0.0-5.0-52.0","go-nogo","true","0","","true","<div class = centerbox><div  id = stim2></div></div>","32","32","750","","test","go","52","adv","","",""
"","845","32","1446","0","test_block","poldrack-single-stim","67","112793","0.0-5.0-53.0","go-nogo","true","0","","true","<div class = centerbox><div  id = stim2></div></div>","32","32","750","","test","go","53","adv","","",""
"","356","32","1173","0","test_block","poldrack-single-stim","68","114004","0.0-5.0-54.0","go-nogo","true","0","","true","<div class = centerbox><div  id = stim2></div></div>","32","32","750","","test","go","54","adv","","",""
"","293","32","1104","0","test_block","poldrack-single-stim","69","115142","0.0-5.0-55.0","go-nogo","true","0","","true","<div class = centerbox><div  id = stim2></div></div>","32","32","750","","test","go","55","adv","","",""
"","299","32","1075","0","test_block","poldrack-single-stim","70","116249","0.0-5.0-56.0","go-nogo","true","0","","true","<div class = centerbox><div  id = stim2></div></div>","32","32","750","","test","go","56","adv","","",""
"","247","32","1236","0","test_block","poldrack-single-stim","71","117527","0.0-5.0-57.0","go-nogo","true","0","","true","<div class = centerbox><div  id = stim2></div></div>","32","32","750","","test","go","57","adv","","",""
"","327","32","1244","0","test_block","poldrack-single-stim","72","118804","0.0-5.0-58.0","go-nogo","true","0","","true","<div class = centerbox><div  id = stim2></div></div>","32","32","750","","test","go","58","adv","","",""
"","354","32","1383","0","test_block","poldrack-single-stim","73","120222","0.0-5.0-59.0","go-nogo","true","0","","true","<div class = centerbox><div  id = stim2></div></div>","32","32","750","","test","go","59","adv","","",""
"","277","32","1308","0","test_block","poldrack-single-stim","74","121561","0.0-5.0-60.0","go-nogo","true","0","","true","<div class = centerbox><div  id = stim2></div></div>","32","32","750","","test","go","60","adv","","",""
"","302","32","1228","0","test_block","poldrack-single-stim","75","122822","0.0-5.0-61.0","go-nogo","true","0","","true","<div class = centerbox><div  id = stim2></div></div>","32","32","750","","test","go","61","adv","","",""
"","305","32","1136","0","test_block","poldrack-single-stim","76","123992","0.0-5.0-62.0","go-nogo","true","0","","true","<div class = centerbox><div  id = stim2></div></div>","32","32","750","","test","go","62","adv","","",""
"","328","32","1203","0","test_block","poldrack-single-stim","77","125225","0.0-5.0-63.0","go-nogo","true","0","","true","<div class = centerbox><div  id = stim2></div></div>","32","32","750","","test","go","63","adv","","",""
"","253","32","1019","0","test_block","poldrack-single-stim","78","126276","0.0-5.0-64.0","go-nogo","true","0","","true","<div class = centerbox><div  id = stim2></div></div>","32","32","750","","test","go","64","adv","","",""
"","253","32","1464","0","test_block","poldrack-single-stim","79","127768","0.0-5.0-65.0","go-nogo","true","0","","true","<div class = centerbox><div  id = stim2></div></div>","32","32","750","","test","go","65","adv","","",""
"","293","32","1399","0","test_block","poldrack-single-stim","80","129199","0.0-5.0-66.0","go-nogo","true","0","","true","<div class = centerbox><div  id = stim2></div></div>","32","32","750","","test","go","66","adv","","",""
"","286","32","1220","0","test_block","poldrack-single-stim","81","130451","0.0-5.0-67.0","go-nogo","true","0","","true","<div class = centerbox><div  id = stim2></div></div>","32","32","750","","test","go","67","adv","","",""
"","309","32","1258","0","test_block","poldrack-single-stim","82","131730","0.0-5.0-68.0","go-nogo","true","0","","true","<div class = centerbox><div  id = stim2></div></div>","32","32","750","","test","go","68","adv","","",""
"","308","32","1336","0","test_block","poldrack-single-stim","83","133098","0.0-5.0-69.0","go-nogo","true","0","","true","<div class = centerbox><div  id = stim2></div></div>","32","32","750","","test","go","69","adv","","",""
"","289","32","1389","0","test_block","poldrack-single-stim","84","134518","0.0-5.0-70.0","go-nogo","true","0","","true","<div class = centerbox><div  id = stim2></div></div>","32","32","750","","test","go","70","adv","","",""
"","235","32","1359","0","test_block","poldrack-single-stim","85","135908","0.0-5.0-71.0","go-nogo","true","0","","true","<div class = centerbox><div  id = stim2></div></div>","32","32","750","","test","go","71","adv","","",""
"","35","32","1356","0","test_block","poldrack-single-stim","86","137295","0.0-5.0-72.0","go-nogo","true","0","","true","<div class = centerbox><div  id = stim2></div></div>","32","32","750","","test","go","72","adv","","",""
"","93","32","1261","0","test_block","poldrack-single-stim","87","138585","0.0-5.0-73.0","go-nogo","true","0","","true","<div class = centerbox><div  id = stim2></div></div>","32","32","750","","test","go","73","adv","","",""
"","353","32","1321","0","test_block","poldrack-single-stim","88","139942","0.0-5.0-74.0","go-nogo","true","0","","true","<div class = centerbox><div  id = stim2></div></div>","32","32","750","","test","go","74","adv","","",""
"","464","32","1239","0","test_block","poldrack-single-stim","89","141220","0.0-5.0-75.0","go-nogo","true","0","","true","<div class = centerbox><div  id = stim2></div></div>","32","32","750","","test","go","75","adv","","",""
"","504","32","1458","0","test_block","poldrack-single-stim","90","142711","0.0-5.0-76.0","go-nogo","true","0","","true","<div class = centerbox><div  id = stim2></div></div>","32","32","750","","test","go","76","adv","","",""
"","421","32","1345","0","test_block","poldrack-single-stim","91","144096","0.0-5.0-77.0","go-nogo","true","0","","true","<div class = centerbox><div  id = stim2></div></div>","32","32","750","","test","go","77","adv","","",""
"","422","32","1216","0","test_block","poldrack-single-stim","92","145348","0.0-5.0-78.0","go-nogo","true","0","","true","<div class = centerbox><div  id = stim2></div></div>","32","32","750","","test","go","78","adv","","",""
"","673","32","1114","0","test_block","poldrack-single-stim","93","146489","0.0-5.0-79.0","go-nogo","true","0","","true","<div class = centerbox><div  id = stim2></div></div>","32","32","750","","test","go","79","adv","","",""
"","459","32","1105","0","test_block","poldrack-single-stim","94","147627","0.0-5.0-80.0","go-nogo","true","0","","true","<div class = centerbox><div  id = stim2></div></div>","32","32","750","","test","go","80","adv","","",""
"","402","32","1327","0","test_block","poldrack-single-stim","95","148989","0.0-5.0-81.0","go-nogo","true","0","","true","<div class = centerbox><div  id = stim2></div></div>","32","32","750","","test","go","81","adv","","",""
"","339","32","1343","0","test_block","poldrack-single-stim","96","150365","0.0-5.0-82.0","go-nogo","true","0","","true","<div class = centerbox><div  id = stim2></div></div>","32","32","750","","test","go","82","adv","","",""
"","286","32","1355","0","test_block","poldrack-single-stim","97","151751","0.0-5.0-83.0","go-nogo","true","0","","true","<div class = centerbox><div  id = stim2></div></div>","32","32","750","","test","go","83","adv","","",""
"","287","32","1009","0","test_block","poldrack-single-stim","98","152787","0.0-5.0-84.0","go-nogo","true","0","","true","<div class = centerbox><div  id = stim2></div></div>","32","32","750","","test","go","84","adv","","",""
"","351","32","1078","0","test_block","poldrack-single-stim","99","153897","0.0-5.0-85.0","go-nogo","true","0","","true","<div class = centerbox><div  id = stim2></div></div>","32","32","750","","test","go","85","adv","","",""
"","530","32","1429","0","test_block","poldrack-single-stim","100","155361","0.0-5.0-86.0","go-nogo","true","0","","true","<div class = centerbox><div  id = stim2></div></div>","32","32","750","","test","go","86","adv","","",""
"","326","32","1078","0","test_block","poldrack-single-stim","101","156469","0.0-5.0-87.0","go-nogo","true","0","","true","<div class = centerbox><div  id = stim2></div></div>","32","32","750","","test","go","87","adv","","",""
"","381","32","1233","0","test_block","poldrack-single-stim","102","157732","0.0-5.0-88.0","go-nogo","true","0","","true","<div class = centerbox><div  id = stim2></div></div>","32","32","750","","test","go","88","adv","","",""
"","358","32","1281","0","test_block","poldrack-single-stim","103","159043","0.0-5.0-89.0","go-nogo","true","0","","true","<div class = centerbox><div  id = stim2></div></div>","32","32","750","","test","go","89","adv","","",""
"","313","32","1164","0","test_block","poldrack-single-stim","104","160234","0.0-5.0-90.0","go-nogo","true","0","","true","<div class = centerbox><div  id = stim2></div></div>","32","32","750","","test","go","90","adv","","",""
"","335","32","1100","0","test_block","poldrack-single-stim","105","161363","0.0-5.0-91.0","go-nogo","true","0","","true","<div class = centerbox><div  id = stim2></div></div>","32","32","750","","test","go","91","adv","","",""
"","385","32","1435","0","test_block","poldrack-single-stim","106","162826","0.0-5.0-92.0","go-nogo","true","0","","true","<div class = centerbox><div  id = stim2></div></div>","32","32","750","","test","go","92","adv","","",""
"","798","32","1045","0","test_block","poldrack-single-stim","107","163900","0.0-5.0-93.0","go-nogo","true","0","","true","<div class = centerbox><div  id = stim2></div></div>","32","32","750","","test","go","93","adv","","",""
"","349","32","1498","0","test_block","poldrack-single-stim","108","165430","0.0-5.0-94.0","go-nogo","true","0","","true","<div class = centerbox><div  id = stim2></div></div>","32","32","750","","test","go","94","adv","","",""
"","269","32","1458","0","test_block","poldrack-single-stim","109","166921","0.0-5.0-95.0","go-nogo","true","0","","true","<div class = centerbox><div  id = stim2></div></div>","32","32","750","","test","go","95","adv","","",""
"","419","32","1435","0","test_block","poldrack-single-stim","110","168393","0.0-5.0-96.0","go-nogo","true","0","","true","<div class = centerbox><div  id = stim2></div></div>","32","32","750","","test","go","96","adv","","",""
"","494","32","1179","0","test_block","poldrack-single-stim","111","169607","0.0-5.0-97.0","go-nogo","true","0","","true","<div class = centerbox><div  id = stim2></div></div>","32","32","750","","test","go","97","adv","","",""
"","430","32","1080","0","test_block","poldrack-single-stim","112","170727","0.0-5.0-98.0","go-nogo","true","0","","true","<div class = centerbox><div  id = stim2></div></div>","32","32","750","","test","go","98","adv","","",""
"","428","32","1012","0","test_block","poldrack-single-stim","113","171780","0.0-5.0-99.0","go-nogo","true","0","","true","<div class = centerbox><div  id = stim2></div></div>","32","32","750","","test","go","99","adv","","",""
"","352","32","1453","0","test_block","poldrack-single-stim","114","173265","0.0-5.0-100.0","go-nogo","true","0","","true","<div class = centerbox><div  id = stim2></div></div>","32","32","750","","test","go","100","adv","","",""
"","309","32","1299","0","test_block","poldrack-single-stim","115","174596","0.0-5.0-101.0","go-nogo","true","0","","true","<div class = centerbox><div  id = stim2></div></div>","32","32","750","","test","go","101","adv","","",""
"","424","32","1380","0","test_block","poldrack-single-stim","116","176010","0.0-5.0-102.0","go-nogo","true","0","","true","<div class = centerbox><div  id = stim2></div></div>","32","32","750","","test","go","102","adv","","",""
"","344","32","1041","0","test_block","poldrack-single-stim","117","177084","0.0-5.0-103.0","go-nogo","true","0","","true","<div class = centerbox><div  id = stim2></div></div>","32","32","750","","test","go","103","adv","","",""
"","346","32","1323","0","test_block","poldrack-single-stim","118","178435","0.0-5.0-104.0","go-nogo","true","0","","true","<div class = centerbox><div  id = stim2></div></div>","32","32","750","","test","go","104","adv","","",""
"","250","32","1305","0","test_block","poldrack-single-stim","119","179762","0.0-5.0-105.0","go-nogo","true","0","","true","<div class = centerbox><div  id = stim2></div></div>","32","32","750","","test","go","105","adv","","",""
"","99","32","1207","0","test_block","poldrack-single-stim","120","181001","0.0-5.0-106.0","go-nogo","true","0","","true","<div class = centerbox><div  id = stim2></div></div>","32","32","750","","test","go","106","adv","","",""
"","396","32","1358","0","test_block","poldrack-single-stim","121","182386","0.0-5.0-107.0","go-nogo","true","0","","true","<div class = centerbox><div  id = stim2></div></div>","32","32","750","","test","go","107","adv","","",""
"","486","32","1332","0","test_block","poldrack-single-stim","122","183753","0.0-5.0-108.0","go-nogo","true","0","","true","<div class = centerbox><div  id = stim2></div></div>","32","32","750","","test","go","108","adv","","",""
"","395","32","1192","0","test_block","poldrack-single-stim","123","184979","0.0-5.0-109.0","go-nogo","true","0","","true","<div class = centerbox><div  id = stim2></div></div>","32","32","750","","test","go","109","adv","","",""
"","687","32","1092","0","test_block","poldrack-single-stim","124","186105","0.0-5.0-110.0","go-nogo","true","0","","true","<div class = centerbox><div  id = stim2></div></div>","32","32","750","","test","go","110","adv","","",""
"","479","32","1130","0","test_block","poldrack-single-stim","125","187266","0.0-5.0-111.0","go-nogo","true","0","","true","<div class = centerbox><div  id = stim2></div></div>","32","32","750","","test","go","111","adv","","",""
"","502","32","1171","0","test_block","poldrack-single-stim","126","188468","0.0-5.0-112.0","go-nogo","true","0","","true","<div class = centerbox><div  id = stim2></div></div>","32","32","750","","test","go","112","adv","","",""
"","377","32","1310","0","test_block","poldrack-single-stim","127","189812","0.0-5.0-113.0","go-nogo","true","0","","true","<div class = centerbox><div  id = stim2></div></div>","32","32","750","","test","go","113","adv","","",""
"","440","32","1222","0","test_block","poldrack-single-stim","128","191066","0.0-5.0-114.0","go-nogo","true","0","","true","<div class = centerbox><div  id = stim2></div></div>","32","32","750","","test","go","114","adv","","",""
"","277","32","1340","0","test_block","poldrack-single-stim","129","192444","0.0-5.0-115.0","go-nogo","true","0","","true","<div class = centerbox><div  id = stim2></div></div>","32","32","750","","test","go","115","adv","","",""
"","340","32","1211","0","test_block","poldrack-single-stim","130","193689","0.0-5.0-116.0","go-nogo","true","0","","true","<div class = centerbox><div  id = stim2></div></div>","32","32","750","","test","go","116","adv","","",""
"","387","32","1358","0","test_block","poldrack-single-stim","131","195081","0.0-5.0-117.0","go-nogo","true","0","","true","<div class = centerbox><div  id = stim2></div></div>","32","32","750","","test","go","117","adv","","",""
"","284","32","1250","0","test_block","poldrack-single-stim","132","196372","0.0-5.0-118.0","go-nogo","true","0","","true","<div class = centerbox><div  id = stim2></div></div>","32","32","750","","test","go","118","adv","","",""
"","335","32","1355","0","test_block","poldrack-single-stim","133","197767","0.0-5.0-119.0","go-nogo","true","0","","true","<div class = centerbox><div  id = stim2></div></div>","32","32","750","","test","go","119","adv","","",""
"","334","32","1180","0","test_block","poldrack-single-stim","134","198991","0.0-5.0-120.0","go-nogo","true","0","","true","<div class = centerbox><div  id = stim2></div></div>","32","32","750","","test","go","120","adv","","",""
"","342","32","1385","0","test_block","poldrack-single-stim","135","200409","0.0-5.0-121.0","go-nogo","true","0","","true","<div class = centerbox><div  id = stim2></div></div>","32","32","750","","test","go","121","adv","","",""
"","295","32","1351","0","test_block","poldrack-single-stim","136","201791","0.0-5.0-122.0","go-nogo","true","0","","true","<div class = centerbox><div  id = stim2></div></div>","32","32","750","","test","go","122","adv","","",""
"","322","32","1101","0","test_block","poldrack-single-stim","137","202928","0.0-5.0-123.0","go-nogo","true","0","","true","<div class = centerbox><div  id = stim2></div></div>","32","32","750","","test","go","123","adv","","",""
"","512","32","1388","0","test_block","poldrack-single-stim","138","204345","0.0-5.0-124.0","go-nogo","true","0","","true","<div class = centerbox><div  id = stim2></div></div>","32","32","750","","test","go","124","adv","","",""
"","395","32","1379","0","test_block","poldrack-single-stim","139","205759","0.0-5.0-125.0","go-nogo","true","0","","true","<div class = centerbox><div  id = stim2></div></div>","32","32","750","","test","go","125","adv","","",""
"","325","32","1089","0","test_block","poldrack-single-stim","140","206881","0.0-5.0-126.0","go-nogo","true","0","","true","<div class = centerbox><div  id = stim2></div></div>","32","32","750","","test","go","126","adv","","",""
"","481","32","1486","0","test_block","poldrack-single-stim","141","208400","0.0-5.0-127.0","go-nogo","true","0","","true","<div class = centerbox><div  id = stim2></div></div>","32","32","750","","test","go","127","adv","","",""
"","267","32","1432","0","test_block","poldrack-single-stim","142","209863","0.0-5.0-128.0","go-nogo","true","0","","true","<div class = centerbox><div  id = stim2></div></div>","32","32","750","","test","go","128","adv","","",""
"","284","32","1176","0","test_block","poldrack-single-stim","143","211069","0.0-5.0-129.0","go-nogo","true","0","","true","<div class = centerbox><div  id = stim2></div></div>","32","32","750","","test","go","129","adv","","",""
"","396","32","1025","0","test_block","poldrack-single-stim","144","212121","0.0-5.0-130.0","go-nogo","true","0","","true","<div class = centerbox><div  id = stim2></div></div>","32","32","750","","test","go","130","adv","","",""
"","590","32","1291","0","test_block","poldrack-single-stim","145","213446","0.0-5.0-131.0","go-nogo","true","0","","true","<div class = centerbox><div  id = stim2></div></div>","32","32","750","","test","go","131","adv","","",""
"","462","32","1293","0","test_block","poldrack-single-stim","146","214771","0.0-5.0-132.0","go-nogo","true","0","","true","<div class = centerbox><div  id = stim2></div></div>","32","32","750","","test","go","132","adv","","",""
"","453","32","1181","0","test_block","poldrack-single-stim","147","215984","0.0-5.0-133.0","go-nogo","true","0","","true","<div class = centerbox><div  id = stim2></div></div>","32","32","750","","test","go","133","adv","","",""
"","559","32","1398","0","test_block","poldrack-single-stim","148","217412","0.0-5.0-134.0","go-nogo","true","0","","true","<div class = centerbox><div  id = stim2></div></div>","32","32","750","","test","go","134","adv","","",""
"","470","32","1471","0","test_block","poldrack-single-stim","149","218915","0.0-5.0-135.0","go-nogo","true","0","","true","<div class = centerbox><div  id = stim2></div></div>","32","32","750","","test","go","135","adv","","",""
"","239","32","1204","0","test_block","poldrack-single-stim","150","220149","0.0-5.0-136.0","go-nogo","true","0","","true","<div class = centerbox><div  id = stim2></div></div>","32","32","750","","test","go","136","adv","","",""
"","195","32","1185","0","test_block","poldrack-single-stim","151","221367","0.0-5.0-137.0","go-nogo","true","0","","true","<div class = centerbox><div  id = stim2></div></div>","32","32","750","","test","go","137","adv","","",""
"","393","32","1438","0","test_block","poldrack-single-stim","152","224649","0.0-5.0-138.0","go-nogo","true","0","","true","<div class = centerbox><div  id = stim2></div></div>","32","32","750","","test","go","138","adv","","",""
"","460","32","1138","0","test_block","poldrack-single-stim","153","225834","0.0-5.0-139.0","go-nogo","true","0","","true","<div class = centerbox><div  id = stim2></div></div>","32","32","750","","test","go","139","adv","","",""
"","578","32","1395","0","test_block","poldrack-single-stim","154","227268","0.0-5.0-140.0","go-nogo","true","0","","true","<div class = centerbox><div  id = stim2></div></div>","32","32","750","","test","go","140","adv","","",""
"","567","32","1073","0","test_block","poldrack-single-stim","155","228368","0.0-5.0-141.0","go-nogo","true","0","","true","<div class = centerbox><div  id = stim2></div></div>","32","32","750","","test","go","141","adv","","",""
"","943","32","1180","0","test_block","poldrack-single-stim","156","229580","0.0-5.0-142.0","go-nogo","true","0","","true","<div class = centerbox><div  id = stim2></div></div>","32","32","750","","test","go","142","adv","","",""
"","305","32","1020","0","test_block","poldrack-single-stim","157","230634","0.0-5.0-143.0","go-nogo","true","0","","true","<div class = centerbox><div  id = stim2></div></div>","32","32","750","","test","go","143","adv","","",""
"","354","32","1049","0","test_block","poldrack-single-stim","158","231716","0.0-5.0-144.0","go-nogo","true","0","","true","<div class = centerbox><div  id = stim2></div></div>","32","32","750","","test","go","144","adv","","",""
"","406","32","1163","0","test_block","poldrack-single-stim","159","232911","0.0-5.0-145.0","go-nogo","true","0","","true","<div class = centerbox><div  id = stim2></div></div>","32","32","750","","test","go","145","adv","","",""
"","300","32","1379","0","test_block","poldrack-single-stim","160","234328","0.0-5.0-146.0","go-nogo","true","0","","true","<div class = centerbox><div  id = stim2></div></div>","32","32","750","","test","go","146","adv","","",""
"","386","32","1391","0","test_block","poldrack-single-stim","161","235748","0.0-5.0-147.0","go-nogo","true","0","","true","<div class = centerbox><div  id = stim2></div></div>","32","32","750","","test","go","147","adv","","",""
"","298","32","1128","0","test_block","poldrack-single-stim","162","236905","0.0-5.0-148.0","go-nogo","true","0","","true","<div class = centerbox><div  id = stim2></div></div>","32","32","750","","test","go","148","adv","","",""
"","405","32","1488","0","test_block","poldrack-single-stim","163","238420","0.0-5.0-149.0","go-nogo","true","0","","true","<div class = centerbox><div  id = stim2></div></div>","32","32","750","","test","go","149","adv","","",""
"","311","32","1040","0","test_block","poldrack-single-stim","164","239492","0.0-5.0-150.0","go-nogo","true","0","","true","<div class = centerbox><div  id = stim2></div></div>","32","32","750","","test","go","150","adv","","",""
"","419","32","1069","0","test_block","poldrack-single-stim","165","240594","0.0-5.0-151.0","go-nogo","true","0","","true","<div class = centerbox><div  id = stim2></div></div>","32","32","750","","test","go","151","adv","","",""
"","446","32","1230","0","test_block","poldrack-single-stim","166","241857","0.0-5.0-152.0","go-nogo","true","0","","true","<div class = centerbox><div  id = stim2></div></div>","32","32","750","","test","go","152","adv","","",""
"","338","32","1484","0","test_block","poldrack-single-stim","167","243375","0.0-5.0-153.0","go-nogo","true","0","","true","<div class = centerbox><div  id = stim2></div></div>","32","32","750","","test","go","153","adv","","",""
"","204","32","1041","0","test_block","poldrack-single-stim","168","244445","0.0-5.0-154.0","go-nogo","true","0","","true","<div class = centerbox><div  id = stim2></div></div>","32","32","750","","test","go","154","adv","","",""
"","262","32","1449","0","test_block","poldrack-single-stim","169","245921","0.0-5.0-155.0","go-nogo","true","0","","true","<div class = centerbox><div  id = stim2></div></div>","32","32","750","","test","go","155","adv","","",""
"","423","32","1038","0","test_block","poldrack-single-stim","170","246992","0.0-5.0-156.0","go-nogo","true","0","","true","<div class = centerbox><div  id = stim2></div></div>","32","32","750","","test","go","156","adv","","",""
"","368","32","1302","0","test_block","poldrack-single-stim","171","248327","0.0-5.0-157.0","go-nogo","true","0","","true","<div class = centerbox><div  id = stim2></div></div>","32","32","750","","test","go","157","adv","","",""
"","360","32","1318","0","test_block","poldrack-single-stim","172","249676","0.0-5.0-158.0","go-nogo","true","0","","true","<div class = centerbox><div  id = stim2></div></div>","32","32","750","","test","go","158","adv","","",""
"","331","32","1068","0","test_block","poldrack-single-stim","173","250777","0.0-5.0-159.0","go-nogo","true","0","","true","<div class = centerbox><div  id = stim2></div></div>","32","32","750","","test","go","159","adv","","",""
"","-1","-1","1196","0","test_block","poldrack-single-stim","174","252009","0.0-5.0-160.0","go-nogo","true","0","","true","<div class = centerbox><div  id = stim1></div></div>","-1","32","750","","test","nogo","160","adv","","",""
"","381","32","1318","0","test_block","poldrack-single-stim","175","253362","0.0-5.0-161.0","go-nogo","true","0","","true","<div class = centerbox><div  id = stim2></div></div>","32","32","750","","test","go","161","adv","","",""
"","397","32","1043","0","test_block","poldrack-single-stim","176","254441","0.0-5.0-162.0","go-nogo","true","0","","true","<div class = centerbox><div  id = stim2></div></div>","32","32","750","","test","go","162","adv","","",""
"","652","32","1452","0","test_block","poldrack-single-stim","177","255929","0.0-5.0-163.0","go-nogo","true","0","","true","<div class = centerbox><div  id = stim2></div></div>","32","32","750","","test","go","163","adv","","",""
"","413","32","1166","0","test_block","poldrack-single-stim","178","257129","0.0-5.0-164.0","go-nogo","true","0","","true","<div class = centerbox><div  id = stim2></div></div>","32","32","750","","test","go","164","adv","","",""
"","374","32","1358","0","test_block","poldrack-single-stim","179","258521","0.0-5.0-165.0","go-nogo","true","0","","false","<div class = centerbox><div  id = stim1></div></div>","-1","32","750","","test","nogo","165","adv","","",""
"","411","32","1234","0","test_block","poldrack-single-stim","180","259785","0.0-5.0-166.0","go-nogo","true","0","","true","<div class = centerbox><div  id = stim2></div></div>","32","32","750","","test","go","166","adv","","",""
"","540","32","1336","0","test_block","poldrack-single-stim","181","261156","0.0-5.0-167.0","go-nogo","true","0","","true","<div class = centerbox><div  id = stim2></div></div>","32","32","750","","test","go","167","adv","","",""
"","-1","-1","1364","0","test_block","poldrack-single-stim","182","262553","0.0-5.0-168.0","go-nogo","true","0","","true","<div class = centerbox><div  id = stim1></div></div>","-1","32","750","","test","nogo","168","adv","","",""
"","374","32","1392","0","test_block","poldrack-single-stim","183","263979","0.0-5.0-169.0","go-nogo","true","0","","true","<div class = centerbox><div  id = stim2></div></div>","32","32","750","","test","go","169","adv","","",""
"","491","32","1190","0","test_block","poldrack-single-stim","184","265196","0.0-5.0-170.0","go-nogo","true","0","","true","<div class = centerbox><div  id = stim2></div></div>","32","32","750","","test","go","170","adv","","",""
"","695","32","1131","0","test_block","poldrack-single-stim","185","266359","0.0-5.0-171.0","go-nogo","true","0","","true","<div class = centerbox><div  id = stim2></div></div>","32","32","750","","test","go","171","adv","","",""
"","-1","-1","1187","0","test_block","poldrack-single-stim","186","267578","0.0-5.0-172.0","go-nogo","true","0","","true","<div class = centerbox><div  id = stim1></div></div>","-1","32","750","","test","nogo","172","adv","","",""
"","427","32","1345","0","test_block","poldrack-single-stim","187","268953","0.0-5.0-173.0","go-nogo","true","0","","true","<div class = centerbox><div  id = stim2></div></div>","32","32","750","","test","go","173","adv","","",""
"","406","32","1245","0","test_block","poldrack-single-stim","188","270226","0.0-5.0-174.0","go-nogo","true","0","","true","<div class = centerbox><div  id = stim2></div></div>","32","32","750","","test","go","174","adv","","",""
"","554","32","1121","0","test_block","poldrack-single-stim","189","271381","0.0-5.0-175.0","go-nogo","true","0","","true","<div class = centerbox><div  id = stim2></div></div>","32","32","750","","test","go","175","adv","","",""
"","1055","32","1160","0","test_block","poldrack-single-stim","190","272579","0.0-5.0-176.0","go-nogo","true","0","","true","<div class = centerbox><div  id = stim2></div></div>","32","32","750","","test","go","176","adv","","",""
"","398","32","1475","0","test_block","poldrack-single-stim","191","274079","0.0-5.0-177.0","go-nogo","true","0","","true","<div class = centerbox><div  id = stim2></div></div>","32","32","750","","test","go","177","adv","","",""
"","511","32","1154","0","test_block","poldrack-single-stim","192","275264","0.0-5.0-178.0","go-nogo","true","0","","true","<div class = centerbox><div  id = stim2></div></div>","32","32","750","","test","go","178","adv","","",""
"","-1","-1","1468","0","test_block","poldrack-single-stim","193","276762","0.0-5.0-179.0","go-nogo","true","0","","true","<div class = centerbox><div  id = stim1></div></div>","-1","32","750","","test","nogo","179","adv","","",""
"","326","32","1218","0","test_block","poldrack-single-stim","194","278013","0.0-5.0-180.0","go-nogo","true","0","","true","<div class = centerbox><div  id = stim2></div></div>","32","32","750","","test","go","180","adv","","",""
"","463","32","1497","0","test_block","poldrack-single-stim","195","279546","0.0-5.0-181.0","go-nogo","true","0","","true","<div class = centerbox><div  id = stim2></div></div>","32","32","750","","test","go","181","adv","","",""
"","311","32","1038","0","test_block","poldrack-single-stim","196","280621","0.0-5.0-182.0","go-nogo","true","0","","true","<div class = centerbox><div  id = stim2></div></div>","32","32","750","","test","go","182","adv","","",""
"","470","32","1392","0","test_block","poldrack-single-stim","197","282047","0.0-5.0-183.0","go-nogo","true","0","","true","<div class = centerbox><div  id = stim2></div></div>","32","32","750","","test","go","183","adv","","",""
"","491","32","1489","0","test_block","poldrack-single-stim","198","283569","0.0-5.0-184.0","go-nogo","true","0","","true","<div class = centerbox><div  id = stim2></div></div>","32","32","750","","test","go","184","adv","","",""
"","373","32","1307","0","test_block","poldrack-single-stim","199","284912","0.0-5.0-185.0","go-nogo","true","0","","true","<div class = centerbox><div  id = stim2></div></div>","32","32","750","","test","go","185","adv","","",""
"","361","32","1137","0","test_block","poldrack-single-stim","200","286079","0.0-5.0-186.0","go-nogo","true","0","","true","<div class = centerbox><div  id = stim2></div></div>","32","32","750","","test","go","186","adv","","",""
"","404","32","1356","0","test_block","poldrack-single-stim","201","287466","0.0-5.0-187.0","go-nogo","true","0","","true","<div class = centerbox><div  id = stim2></div></div>","32","32","750","","test","go","187","adv","","",""
"","-1","-1","1270","0","test_block","poldrack-single-stim","202","288768","0.0-5.0-188.0","go-nogo","true","0","","true","<div class = centerbox><div  id = stim1></div></div>","-1","32","750","","test","nogo","188","adv","","",""
"","301","32","1492","0","test_block","poldrack-single-stim","203","290287","0.0-5.0-189.0","go-nogo","true","0","","true","<div class = centerbox><div  id = stim2></div></div>","32","32","750","","test","go","189","adv","","",""
"","23","32","1353","0","test_block","poldrack-single-stim","204","291672","0.0-5.0-190.0","go-nogo","true","0","","true","<div class = centerbox><div  id = stim2></div></div>","32","32","750","","test","go","190","adv","","",""
"","311","32","1238","0","test_block","poldrack-single-stim","205","292941","0.0-5.0-191.0","go-nogo","true","0","","true","<div class = centerbox><div  id = stim2></div></div>","32","32","750","","test","go","191","adv","","",""
"","472","32","1025","0","test_block","poldrack-single-stim","206","293997","0.0-5.0-192.0","go-nogo","true","0","","true","<div class = centerbox><div  id = stim2></div></div>","32","32","750","","test","go","192","adv","","",""
"","523","32","1171","0","test_block","poldrack-single-stim","207","295199","0.0-5.0-193.0","go-nogo","true","0","","true","<div class = centerbox><div  id = stim2></div></div>","32","32","750","","test","go","193","adv","","",""
"","378","32","1068","0","test_block","poldrack-single-stim","208","296292","0.0-5.0-194.0","go-nogo","true","0","","true","<div class = centerbox><div  id = stim2></div></div>","32","32","750","","test","go","194","adv","","",""
"","399","32","1082","0","test_block","poldrack-single-stim","209","297404","0.0-5.0-195.0","go-nogo","true","0","","true","<div class = centerbox><div  id = stim2></div></div>","32","32","750","","test","go","195","adv","","",""
"","448","32","1028","0","test_block","poldrack-single-stim","210","298463","0.0-5.0-196.0","go-nogo","true","0","","true","<div class = centerbox><div  id = stim2></div></div>","32","32","750","","test","go","196","adv","","",""
"","-1","-1","1394","0","test_block","poldrack-single-stim","211","299889","0.0-5.0-197.0","go-nogo","true","0","","true","<div class = centerbox><div  id = stim1></div></div>","-1","32","750","","test","nogo","197","adv","","",""
"","366","32","1236","0","test_block","poldrack-single-stim","212","301157","0.0-5.0-198.0","go-nogo","true","0","","true","<div class = centerbox><div  id = stim2></div></div>","32","32","750","","test","go","198","adv","","",""
"","426","32","1168","0","test_block","poldrack-single-stim","213","302351","0.0-5.0-199.0","go-nogo","true","0","","true","<div class = centerbox><div  id = stim2></div></div>","32","32","750","","test","go","199","adv","","",""
"","643","32","1327","0","test_block","poldrack-single-stim","214","303709","0.0-5.0-200.0","go-nogo","true","0","","true","<div class = centerbox><div  id = stim2></div></div>","32","32","750","","test","go","200","adv","","",""
"","515","32","1457","0","test_block","poldrack-single-stim","215","305192","0.0-5.0-201.0","go-nogo","true","0","","true","<div class = centerbox><div  id = stim2></div></div>","32","32","750","","test","go","201","adv","","",""
"","350","32","1013","0","test_block","poldrack-single-stim","216","306240","0.0-5.0-202.0","go-nogo","true","0","","true","<div class = centerbox><div  id = stim2></div></div>","32","32","750","","test","go","202","adv","","",""
"","498","32","1480","0","test_block","poldrack-single-stim","217","307754","0.0-5.0-203.0","go-nogo","true","0","","true","<div class = centerbox><div  id = stim2></div></div>","32","32","750","","test","go","203","adv","","",""
"","328","32","1345","0","test_block","poldrack-single-stim","218","309136","0.0-5.0-204.0","go-nogo","true","0","","true","<div class = centerbox><div  id = stim2></div></div>","32","32","750","","test","go","204","adv","","",""
"","297","32","1039","0","test_block","poldrack-single-stim","219","310202","0.0-5.0-205.0","go-nogo","true","0","","true","<div class = centerbox><div  id = stim2></div></div>","32","32","750","","test","go","205","adv","","",""
"","414","32","1482","0","test_block","poldrack-single-stim","220","311716","0.0-5.0-206.0","go-nogo","true","0","","true","<div class = centerbox><div  id = stim2></div></div>","32","32","750","","test","go","206","adv","","",""
"","462","32","1045","0","test_block","poldrack-single-stim","221","312804","0.0-5.0-207.0","go-nogo","true","0","","true","<div class = centerbox><div  id = stim2></div></div>","32","32","750","","test","go","207","adv","","",""
"","-1","-1","1081","0","test_block","poldrack-single-stim","222","313916","0.0-5.0-208.0","go-nogo","true","0","","true","<div class = centerbox><div  id = stim1></div></div>","-1","32","750","","test","nogo","208","adv","","",""
"","367","32","1314","0","test_block","poldrack-single-stim","223","315263","0.0-5.0-209.0","go-nogo","true","0","","true","<div class = centerbox><div  id = stim2></div></div>","32","32","750","","test","go","209","adv","","",""
"","322","32","1205","0","test_block","poldrack-single-stim","224","316499","0.0-5.0-210.0","go-nogo","true","0","","true","<div class = centerbox><div  id = stim2></div></div>","32","32","750","","test","go","210","adv","","",""
"","355","32","1499","0","test_block","poldrack-single-stim","225","318026","0.0-5.0-211.0","go-nogo","true","0","","true","<div class = centerbox><div  id = stim2></div></div>","32","32","750","","test","go","211","adv","","",""
"","349","32","1437","0","test_block","poldrack-single-stim","226","319495","0.0-5.0-212.0","go-nogo","true","0","","true","<div class = centerbox><div  id = stim2></div></div>","32","32","750","","test","go","212","adv","","",""
"","355","32","1281","0","test_block","poldrack-single-stim","227","320803","0.0-5.0-213.0","go-nogo","true","0","","true","<div class = centerbox><div  id = stim2></div></div>","32","32","750","","test","go","213","adv","","",""
"","414","32","1355","0","test_block","poldrack-single-stim","228","322191","0.0-5.0-214.0","go-nogo","true","0","","true","<div class = centerbox><div  id = stim2></div></div>","32","32","750","","test","go","214","adv","","",""
"","380","32","1070","0","test_block","poldrack-single-stim","229","323292","0.0-5.0-215.0","go-nogo","true","0","","true","<div class = centerbox><div  id = stim2></div></div>","32","32","750","","test","go","215","adv","","",""
"","507","32","1078","0","test_block","poldrack-single-stim","230","324404","0.0-5.0-216.0","go-nogo","true","0","","true","<div class = centerbox><div  id = stim2></div></div>","32","32","750","","test","go","216","adv","","",""
"","903","32","1093","0","test_block","poldrack-single-stim","231","325529","0.0-5.0-217.0","go-nogo","true","0","","true","<div class = centerbox><div  id = stim2></div></div>","32","32","750","","test","go","217","adv","","",""
"","320","32","1420","0","test_block","poldrack-single-stim","232","326977","0.0-5.0-218.0","go-nogo","true","0","","true","<div class = centerbox><div  id = stim2></div></div>","32","32","750","","test","go","218","adv","","",""
"","-1","-1","1270","0","test_block","poldrack-single-stim","233","328269","0.0-5.0-219.0","go-nogo","true","0","","true","<div class = centerbox><div  id = stim1></div></div>","-1","32","750","","test","nogo","219","adv","","",""
"","333","32","1285","0","test_block","poldrack-single-stim","234","329586","0.0-5.0-220.0","go-nogo","true","0","","true","<div class = centerbox><div  id = stim2></div></div>","32","32","750","","test","go","220","adv","","",""
"","390","32","1257","0","test_block","poldrack-single-stim","235","330876","0.0-5.0-221.0","go-nogo","true","0","","true","<div class = centerbox><div  id = stim2></div></div>","32","32","750","","test","go","221","adv","","",""
"","480","32","1005","0","test_block","poldrack-single-stim","236","331908","0.0-5.0-222.0","go-nogo","true","0","","true","<div class = centerbox><div  id = stim2></div></div>","32","32","750","","test","go","222","adv","","",""
"","969","32","1216","0","test_block","poldrack-single-stim","237","333156","0.0-5.0-223.0","go-nogo","true","0","","true","<div class = centerbox><div  id = stim2></div></div>","32","32","750","","test","go","223","adv","","",""
"","-1","-1","1435","0","test_block","poldrack-single-stim","238","334626","0.0-5.0-224.0","go-nogo","true","0","","false","<div class = centerbox><div  id = stim2></div></div>","32","32","750","","test","go","224","adv","","",""
"","760","32","1378","0","test_block","poldrack-single-stim","239","336042","0.0-5.0-225.0","go-nogo","true","0","","true","<div class = centerbox><div  id = stim2></div></div>","32","32","750","","test","go","225","adv","","",""
"","-1","-1","1050","0","test_block","poldrack-single-stim","240","337128","0.0-5.0-226.0","go-nogo","true","0","","true","<div class = centerbox><div  id = stim1></div></div>","-1","32","750","","test","nogo","226","adv","","",""
"","392","32","1355","0","test_block","poldrack-single-stim","241","338518","0.0-5.0-227.0","go-nogo","true","0","","true","<div class = centerbox><div  id = stim2></div></div>","32","32","750","","test","go","227","adv","","",""
"","-1","-1","1373","0","test_block","poldrack-single-stim","242","339919","0.0-5.0-228.0","go-nogo","true","0","","true","<div class = centerbox><div  id = stim1></div></div>","-1","32","750","","test","nogo","228","adv","","",""
"","342","32","1391","0","test_block","poldrack-single-stim","243","341341","0.0-5.0-229.0","go-nogo","true","0","","true","<div class = centerbox><div  id = stim2></div></div>","32","32","750","","test","go","229","adv","","",""
"","-1","-1","1157","0","test_block","poldrack-single-stim","244","342527","0.0-5.0-230.0","go-nogo","true","0","","true","<div class = centerbox><div  id = stim1></div></div>","-1","32","750","","test","nogo","230","adv","","",""
"","313","32","1366","0","test_block","poldrack-single-stim","245","343924","0.0-5.0-231.0","go-nogo","true","0","","true","<div class = centerbox><div  id = stim2></div></div>","32","32","750","","test","go","231","adv","","",""
"","-1","-1","1130","0","test_block","poldrack-single-stim","246","345087","0.0-5.0-232.0","go-nogo","true","0","","true","<div class = centerbox><div  id = stim1></div></div>","-1","32","750","","test","nogo","232","adv","","",""
"","351","32","1460","0","test_block","poldrack-single-stim","247","346578","0.0-5.0-233.0","go-nogo","true","0","","true","<div class = centerbox><div  id = stim2></div></div>","32","32","750","","test","go","233","adv","","",""
"","319","32","1221","0","test_block","poldrack-single-stim","248","347829","0.0-5.0-234.0","go-nogo","true","0","","false","<div class = centerbox><div  id = stim1></div></div>","-1","32","750","","test","nogo","234","adv","","",""
"","-1","-1","1176","0","test_block","poldrack-single-stim","249","349034","0.0-5.0-235.0","go-nogo","true","0","","true","<div class = centerbox><div  id = stim1></div></div>","-1","32","750","","test","nogo","235","adv","","",""
"","394","32","1464","0","test_block","poldrack-single-stim","250","350527","0.0-5.0-236.0","go-nogo","true","0","","true","<div class = centerbox><div  id = stim2></div></div>","32","32","750","","test","go","236","adv","","",""
"","-1","-1","1177","0","test_block","poldrack-single-stim","251","351738","0.0-5.0-237.0","go-nogo","true","0","","true","<div class = centerbox><div  id = stim1></div></div>","-1","32","750","","test","nogo","237","adv","","",""
"","430","32","1109","0","test_block","poldrack-single-stim","252","352879","0.0-5.0-238.0","go-nogo","true","0","","true","<div class = centerbox><div  id = stim2></div></div>","32","32","750","","test","go","238","adv","","",""
"","-1","-1","1459","0","test_block","poldrack-single-stim","253","354367","0.0-5.0-239.0","go-nogo","true","0","","true","<div class = centerbox><div  id = stim1></div></div>","-1","32","750","","test","nogo","239","adv","","",""
"","406","32","1372","0","test_block","poldrack-single-stim","254","355770","0.0-5.0-240.0","go-nogo","true","0","","true","<div class = centerbox><div  id = stim2></div></div>","32","32","750","","test","go","240","adv","","",""
"","390","32","1276","0","test_block","poldrack-single-stim","255","357080","0.0-5.0-241.0","go-nogo","true","0","","true","<div class = centerbox><div  id = stim2></div></div>","32","32","750","","test","go","241","adv","","",""
"","378","32","1133","0","test_block","poldrack-single-stim","256","358244","0.0-5.0-242.0","go-nogo","true","0","","true","<div class = centerbox><div  id = stim2></div></div>","32","32","750","","test","go","242","adv","","",""
"","-1","-1","1082","0","test_block","poldrack-single-stim","257","359354","0.0-5.0-243.0","go-nogo","true","0","","true","<div class = centerbox><div  id = stim1></div></div>","-1","32","750","","test","nogo","243","adv","","",""
"","374","32","1477","0","test_block","poldrack-single-stim","258","360867","0.0-5.0-244.0","go-nogo","true","0","","true","<div class = centerbox><div  id = stim2></div></div>","32","32","750","","test","go","244","adv","","",""
"","327","32","1203","0","test_block","poldrack-single-stim","259","362106","0.0-5.0-245.0","go-nogo","true","0","","true","<div class = centerbox><div  id = stim2></div></div>","32","32","750","","test","go","245","adv","","",""
"","346","32","1449","0","test_block","poldrack-single-stim","260","363589","0.0-5.0-246.0","go-nogo","true","0","","true","<div class = centerbox><div  id = stim2></div></div>","32","32","750","","test","go","246","adv","","",""
"","471","32","1402","0","test_block","poldrack-single-stim","261","365029","0.0-5.0-247.0","go-nogo","true","0","","true","<div class = centerbox><div  id = stim2></div></div>","32","32","750","","test","go","247","adv","","",""
"","-1","-1","1234","0","test_block","poldrack-single-stim","262","366292","0.0-5.0-248.0","go-nogo","true","0","","true","<div class = centerbox><div  id = stim1></div></div>","-1","32","750","","test","nogo","248","adv","","",""
"","478","32","1124","0","test_block","poldrack-single-stim","263","367448","0.0-5.0-249.0","go-nogo","true","0","","true","<div class = centerbox><div  id = stim2></div></div>","32","32","750","","test","go","249","adv","","",""
"","330","32","1493","0","test_block","poldrack-single-stim","264","368972","0.0-5.0-250.0","go-nogo","true","0","","true","<div class = centerbox><div  id = stim2></div></div>","32","32","750","","test","go","250","adv","","",""
"","129","32","1273","0","test_block","poldrack-single-stim","265","370276","0.0-5.0-251.0","go-nogo","true","0","","true","<div class = centerbox><div  id = stim2></div></div>","32","32","750","","test","go","251","adv","","",""
"","313","32","1274","0","test_block","poldrack-single-stim","266","371583","0.0-5.0-252.0","go-nogo","true","0","","true","<div class = centerbox><div  id = stim2></div></div>","32","32","750","","test","go","252","adv","","",""
"","323","32","1428","0","test_block","poldrack-single-stim","267","373040","0.0-5.0-253.0","go-nogo","true","0","","true","<div class = centerbox><div  id = stim2></div></div>","32","32","750","","test","go","253","adv","","",""
"","352","32","1127","0","test_block","poldrack-single-stim","268","374197","0.0-5.0-254.0","go-nogo","true","0","","true","<div class = centerbox><div  id = stim2></div></div>","32","32","750","","test","go","254","adv","","",""
"","318","32","1335","0","test_block","poldrack-single-stim","269","375561","0.0-5.0-255.0","go-nogo","true","0","","false","<div class = centerbox><div  id = stim1></div></div>","-1","32","750","","test","nogo","255","adv","","",""
"","-1","-1","1399","0","test_block","poldrack-single-stim","270","376991","0.0-5.0-256.0","go-nogo","true","0","","true","<div class = centerbox><div  id = stim1></div></div>","-1","32","750","","test","nogo","256","adv","","",""
"","554","32","1261","0","test_block","poldrack-single-stim","271","378281","0.0-5.0-257.0","go-nogo","true","0","","true","<div class = centerbox><div  id = stim2></div></div>","32","32","750","","test","go","257","adv","","",""
"","430","32","1020","0","test_block","poldrack-single-stim","272","379335","0.0-5.0-258.0","go-nogo","true","0","","true","<div class = centerbox><div  id = stim2></div></div>","32","32","750","","test","go","258","adv","","",""
"","912","32","1398","0","test_block","poldrack-single-stim","273","380767","0.0-5.0-259.0","go-nogo","true","0","","true","<div class = centerbox><div  id = stim2></div></div>","32","32","750","","test","go","259","adv","","",""
"","-1","-1","1090","0","test_block","poldrack-single-stim","274","381886","0.0-5.0-260.0","go-nogo","true","0","","true","<div class = centerbox><div  id = stim1></div></div>","-1","32","750","","test","nogo","260","adv","","",""
"","605","32","1175","0","test_block","poldrack-single-stim","275","383093","0.0-5.0-261.0","go-nogo","true","0","","true","<div class = centerbox><div  id = stim2></div></div>","32","32","750","","test","go","261","adv","","",""
"","935","32","1471","0","test_block","poldrack-single-stim","276","384592","0.0-5.0-262.0","go-nogo","true","0","","true","<div class = centerbox><div  id = stim2></div></div>","32","32","750","","test","go","262","adv","","",""
"","445","32","1023","0","test_block","poldrack-single-stim","277","385642","0.0-5.0-263.0","go-nogo","true","0","","true","<div class = centerbox><div  id = stim2></div></div>","32","32","750","","test","go","263","adv","","",""
"","565","32","1411","0","test_block","poldrack-single-stim","278","387086","0.0-5.0-264.0","go-nogo","true","0","","true","<div class = centerbox><div  id = stim2></div></div>","32","32","750","","test","go","264","adv","","",""
"","-1","-1","1194","0","test_block","poldrack-single-stim","279","388317","0.0-5.0-265.0","go-nogo","true","0","","true","<div class = centerbox><div  id = stim1></div></div>","-1","32","750","","test","nogo","265","adv","","",""
"","295","32","1001","0","test_block","poldrack-single-stim","280","389354","0.0-5.0-266.0","go-nogo","true","0","","true","<div class = centerbox><div  id = stim2></div></div>","32","32","750","","test","go","266","adv","","",""
"","459","32","1197","0","test_block","poldrack-single-stim","281","390581","0.0-5.0-267.0","go-nogo","true","0","","true","<div class = centerbox><div  id = stim2></div></div>","32","32","750","","test","go","267","adv","","",""
"","398","32","1247","0","test_block","poldrack-single-stim","282","391865","0.0-5.0-268.0","go-nogo","true","0","","true","<div class = centerbox><div  id = stim2></div></div>","32","32","750","","test","go","268","adv","","",""
"","332","32","1206","0","test_block","poldrack-single-stim","283","393104","0.0-5.0-269.0","go-nogo","true","0","","true","<div class = centerbox><div  id = stim2></div></div>","32","32","750","","test","go","269","adv","","",""
"","373","32","1472","0","test_block","poldrack-single-stim","284","394608","0.0-5.0-270.0","go-nogo","true","0","","true","<div class = centerbox><div  id = stim2></div></div>","32","32","750","","test","go","270","adv","","",""
"","339","32","1370","0","test_block","poldrack-single-stim","285","396011","0.0-5.0-271.0","go-nogo","true","0","","true","<div class = centerbox><div  id = stim2></div></div>","32","32","750","","test","go","271","adv","","",""
"","242","32","1327","0","test_block","poldrack-single-stim","286","397364","0.0-5.0-272.0","go-nogo","true","0","","false","<div class = centerbox><div  id = stim1></div></div>","-1","32","750","","test","nogo","272","adv","","",""
"","-1","-1","1368","0","test_block","poldrack-single-stim","287","398765","0.0-5.0-273.0","go-nogo","true","0","","true","<div class = centerbox><div  id = stim1></div></div>","-1","32","750","","test","nogo","273","adv","","",""
"","351","32","1240","0","test_block","poldrack-single-stim","288","400037","0.0-5.0-274.0","go-nogo","true","0","","true","<div class = centerbox><div  id = stim2></div></div>","32","32","750","","test","go","274","adv","","",""
"","374","32","1207","0","test_block","poldrack-single-stim","289","401270","0.0-5.0-275.0","go-nogo","true","0","","true","<div class = centerbox><div  id = stim2></div></div>","32","32","750","","test","go","275","adv","","",""
"","324","32","1159","0","test_block","poldrack-single-stim","290","402461","0.0-5.0-276.0","go-nogo","true","0","","true","<div class = centerbox><div  id = stim2></div></div>","32","32","750","","test","go","276","adv","","",""
"","-1","-1","1109","0","test_block","poldrack-single-stim","291","403599","0.0-5.0-277.0","go-nogo","true","0","","true","<div class = centerbox><div  id = stim1></div></div>","-1","32","750","","test","nogo","277","adv","","",""
"","317","32","1301","0","test_block","poldrack-single-stim","292","404930","0.0-5.0-278.0","go-nogo","true","0","","true","<div class = centerbox><div  id = stim2></div></div>","32","32","750","","test","go","278","adv","","",""
"","449","32","1011","0","test_block","poldrack-single-stim","293","405974","0.0-5.0-279.0","go-nogo","true","0","","true","<div class = centerbox><div  id = stim2></div></div>","32","32","750","","test","go","279","adv","","",""
"","-1","-1","1089","0","test_block","poldrack-single-stim","294","407093","0.0-5.0-280.0","go-nogo","true","0","","false","<div class = centerbox><div  id = stim2></div></div>","32","32","750","","test","go","280","adv","","",""
"","225","32","1149","0","test_block","poldrack-single-stim","295","408272","0.0-5.0-281.0","go-nogo","true","0","","true","<div class = centerbox><div  id = stim2></div></div>","32","32","750","","test","go","281","adv","","",""
"","422","32","1493","0","test_block","poldrack-single-stim","296","409796","0.0-5.0-282.0","go-nogo","true","0","","true","<div class = centerbox><div  id = stim2></div></div>","32","32","750","","test","go","282","adv","","",""
"","470","32","1154","0","test_block","poldrack-single-stim","297","410980","0.0-5.0-283.0","go-nogo","true","0","","true","<div class = centerbox><div  id = stim2></div></div>","32","32","750","","test","go","283","adv","","",""
"","-1","-1","1247","0","test_block","poldrack-single-stim","298","412261","0.0-5.0-284.0","go-nogo","true","0","","true","<div class = centerbox><div  id = stim1></div></div>","-1","32","750","","test","nogo","284","adv","","",""
"","363","32","1129","0","test_block","poldrack-single-stim","299","413422","0.0-5.0-285.0","go-nogo","true","0","","true","<div class = centerbox><div  id = stim2></div></div>","32","32","750","","test","go","285","adv","","",""
"","446","32","1021","0","test_block","poldrack-single-stim","300","414475","0.0-5.0-286.0","go-nogo","true","0","","true","<div class = centerbox><div  id = stim2></div></div>","32","32","750","","test","go","286","adv","","",""
"","612","32","1189","0","test_block","poldrack-single-stim","301","415701","0.0-5.0-287.0","go-nogo","true","0","","true","<div class = centerbox><div  id = stim2></div></div>","32","32","750","","test","go","287","adv","","",""
"","-1","-1","1414","0","test_block","poldrack-single-stim","302","417149","0.0-5.0-288.0","go-nogo","true","0","","true","<div class = centerbox><div  id = stim1></div></div>","-1","32","750","","test","nogo","288","adv","","",""
"","619","32","1268","0","test_block","poldrack-single-stim","303","418448","0.0-5.0-289.0","go-nogo","true","0","","true","<div class = centerbox><div  id = stim2></div></div>","32","32","750","","test","go","289","adv","","",""
"","379","32","1277","0","test_block","poldrack-single-stim","304","419760","0.0-5.0-290.0","go-nogo","true","0","","true","<div class = centerbox><div  id = stim2></div></div>","32","32","750","","test","go","290","adv","","",""
"","327","32","1027","0","test_block","poldrack-single-stim","305","420826","0.0-5.0-291.0","go-nogo","true","0","","true","<div class = centerbox><div  id = stim2></div></div>","32","32","750","","test","go","291","adv","","",""
"","459","32","1351","0","test_block","poldrack-single-stim","306","422213","0.0-5.0-292.0","go-nogo","true","0","","true","<div class = centerbox><div  id = stim2></div></div>","32","32","750","","test","go","292","adv","","",""
"","396","32","1012","0","test_block","poldrack-single-stim","307","423252","0.0-5.0-293.0","go-nogo","true","0","","true","<div class = centerbox><div  id = stim2></div></div>","32","32","750","","test","go","293","adv","","",""
"","449","32","1058","0","test_block","poldrack-single-stim","308","424340","0.0-5.0-294.0","go-nogo","true","0","","true","<div class = centerbox><div  id = stim2></div></div>","32","32","750","","test","go","294","adv","","",""
"","-1","-1","1055","0","test_block","poldrack-single-stim","309","425425","0.0-5.0-295.0","go-nogo","true","0","","true","<div class = centerbox><div  id = stim1></div></div>","-1","32","750","","test","nogo","295","adv","","",""
"","374","32","1353","0","test_block","poldrack-single-stim","310","426805","0.0-5.0-296.0","go-nogo","true","0","","true","<div class = centerbox><div  id = stim2></div></div>","32","32","750","","test","go","296","adv","","",""
"","379","32","1454","0","test_block","poldrack-single-stim","311","428291","0.0-5.0-297.0","go-nogo","true","0","","true","<div class = centerbox><div  id = stim2></div></div>","32","32","750","","test","go","297","adv","","",""
"","348","32","1140","0","test_block","poldrack-single-stim","312","429461","0.0-5.0-298.0","go-nogo","true","0","","true","<div class = centerbox><div  id = stim2></div></div>","32","32","750","","test","go","298","adv","","",""
"","351","32","1194","0","test_block","poldrack-single-stim","313","430689","0.0-5.0-299.0","go-nogo","true","0","","true","<div class = centerbox><div  id = stim2></div></div>","32","32","750","","test","go","299","adv","","",""
"","472","32","1120","0","test_block","poldrack-single-stim","314","431837","0.0-5.0-300.0","go-nogo","true","0","","true","<div class = centerbox><div  id = stim2></div></div>","32","32","750","","test","go","300","adv","","",""
"","501","32","1169","0","test_block","poldrack-single-stim","315","433034","0.0-5.0-301.0","go-nogo","true","0","","true","<div class = centerbox><div  id = stim2></div></div>","32","32","750","","test","go","301","adv","","",""
"","381","32","1219","0","test_block","poldrack-single-stim","316","434283","0.0-5.0-302.0","go-nogo","true","0","","true","<div class = centerbox><div  id = stim2></div></div>","32","32","750","","test","go","302","adv","","",""
"","333","32","1234","0","test_block","poldrack-single-stim","317","435546","0.0-5.0-303.0","go-nogo","true","0","","true","<div class = centerbox><div  id = stim2></div></div>","32","32","750","","test","go","303","adv","","",""
"","398","32","1219","0","test_block","poldrack-single-stim","318","436797","0.0-5.0-304.0","go-nogo","true","0","","true","<div class = centerbox><div  id = stim2></div></div>","32","32","750","","test","go","304","adv","","",""
"","440","32","1310","0","test_block","poldrack-single-stim","319","438136","0.0-5.0-305.0","go-nogo","true","0","","true","<div class = centerbox><div  id = stim2></div></div>","32","32","750","","test","go","305","adv","","",""
"","382","32","1018","0","test_block","poldrack-single-stim","320","439184","0.0-5.0-306.0","go-nogo","true","0","","true","<div class = centerbox><div  id = stim2></div></div>","32","32","750","","test","go","306","adv","","",""
"","444","32","1435","0","test_block","poldrack-single-stim","321","440650","0.0-5.0-307.0","go-nogo","true","0","","false","<div class = centerbox><div  id = stim1></div></div>","-1","32","750","","test","nogo","307","adv","","",""
"","-1","-1","1115","0","test_block","poldrack-single-stim","322","441795","0.0-5.0-308.0","go-nogo","true","0","","true","<div class = centerbox><div  id = stim1></div></div>","-1","32","750","","test","nogo","308","adv","","",""
"","421","32","1068","0","test_block","poldrack-single-stim","323","442893","0.0-5.0-309.0","go-nogo","true","0","","true","<div class = centerbox><div  id = stim2></div></div>","32","32","750","","test","go","309","adv","","",""
"","429","32","1421","0","test_block","poldrack-single-stim","324","444352","0.0-5.0-310.0","go-nogo","true","0","","true","<div class = centerbox><div  id = stim2></div></div>","32","32","750","","test","go","310","adv","","",""
"","413","32","1207","0","test_block","poldrack-single-stim","325","445589","0.0-5.0-311.0","go-nogo","true","0","","true","<div class = centerbox><div  id = stim2></div></div>","32","32","750","","test","go","311","adv","","",""
"","-1","-1","1350","0","test_block","poldrack-single-stim","326","446976","0.0-5.0-312.0","go-nogo","true","0","","true","<div class = centerbox><div  id = stim1></div></div>","-1","32","750","","test","nogo","312","adv","","",""
"","373","32","1111","0","test_block","poldrack-single-stim","327","448120","0.0-5.0-313.0","go-nogo","true","0","","true","<div class = centerbox><div  id = stim2></div></div>","32","32","750","","test","go","313","adv","","",""
"","496","32","1488","0","test_block","poldrack-single-stim","328","449637","0.0-5.0-314.0","go-nogo","true","0","","true","<div class = centerbox><div  id = stim2></div></div>","32","32","750","","test","go","314","adv","","",""
"","474","32","1105","0","test_block","poldrack-single-stim","329","450774","0.0-5.0-315.0","go-nogo","true","0","","true","<div class = centerbox><div  id = stim2></div></div>","32","32","750","","test","go","315","adv","","",""
"","604","32","1406","0","test_block","poldrack-single-stim","330","452212","0.0-5.0-316.0","go-nogo","true","0","","true","<div class = centerbox><div  id = stim2></div></div>","32","32","750","","test","go","316","adv","","",""
"","-1","-1","1491","0","test_block","poldrack-single-stim","331","453733","0.0-5.0-317.0","go-nogo","true","0","","true","<div class = centerbox><div  id = stim1></div></div>","-1","32","750","","test","nogo","317","adv","","",""
"","492","32","1007","0","test_block","poldrack-single-stim","332","454769","0.0-5.0-318.0","go-nogo","true","0","","true","<div class = centerbox><div  id = stim2></div></div>","32","32","750","","test","go","318","adv","","",""
"","803","32","1040","0","test_block","poldrack-single-stim","333","455843","0.0-5.0-319.0","go-nogo","true","0","","true","<div class = centerbox><div  id = stim2></div></div>","32","32","750","","test","go","319","adv","","",""
"","344","32","1413","0","test_block","poldrack-single-stim","334","457287","0.0-5.0-320.0","go-nogo","true","0","","true","<div class = centerbox><div  id = stim2></div></div>","32","32","750","","test","go","320","adv","","",""
"","543","32","1198","0","test_block","poldrack-single-stim","335","458512","0.0-5.0-321.0","go-nogo","true","0","","true","<div class = centerbox><div  id = stim2></div></div>","32","32","750","","test","go","321","adv","","",""
"","694","32","1402","0","test_block","poldrack-single-stim","336","459944","0.0-5.0-322.0","go-nogo","true","0","","true","<div class = centerbox><div  id = stim2></div></div>","32","32","750","","test","go","322","adv","","",""
"","401","32","1390","0","test_block","poldrack-single-stim","337","461360","0.0-5.0-323.0","go-nogo","true","0","","true","<div class = centerbox><div  id = stim2></div></div>","32","32","750","","test","go","323","adv","","",""
"","475","32","1147","0","test_block","poldrack-single-stim","338","462538","0.0-5.0-324.0","go-nogo","true","0","","true","<div class = centerbox><div  id = stim2></div></div>","32","32","750","","test","go","324","adv","","",""
"","292","32","1186","0","test_block","poldrack-single-stim","339","463752","0.0-5.0-325.0","go-nogo","true","0","","true","<div class = centerbox><div  id = stim2></div></div>","32","32","750","","test","go","325","adv","","",""
"","275","32","1430","0","test_block","poldrack-single-stim","340","465256","0.0-5.0-326.0","go-nogo","true","0","","false","<div class = centerbox><div  id = stim1></div></div>","-1","32","750","","test","nogo","326","adv","","",""
"","-1","-1","1069","0","test_block","poldrack-single-stim","341","466353","0.0-5.0-327.0","go-nogo","true","0","","true","<div class = centerbox><div  id = stim1></div></div>","-1","32","750","","test","nogo","327","adv","","",""
"","389","32","1254","0","test_block","poldrack-single-stim","342","467638","0.0-5.0-328.0","go-nogo","true","0","","true","<div class = centerbox><div  id = stim2></div></div>","32","32","750","","test","go","328","adv","","",""
"","462","32","1034","0","test_block","poldrack-single-stim","343","468703","0.0-5.0-329.0","go-nogo","true","0","","true","<div class = centerbox><div  id = stim2></div></div>","32","32","750","","test","go","329","adv","","",""
"","390","32","1028","0","test_block","poldrack-single-stim","344","469760","0.0-5.0-330.0","go-nogo","true","0","","true","<div class = centerbox><div  id = stim2></div></div>","32","32","750","","test","go","330","adv","","",""
"","473","32","1385","0","test_block","poldrack-single-stim","345","471180","0.0-5.0-331.0","go-nogo","true","0","","true","<div class = centerbox><div  id = stim2></div></div>","32","32","750","","test","go","331","adv","","",""
"","381","32","1101","0","test_block","poldrack-single-stim","346","472314","0.0-5.0-332.0","go-nogo","true","0","","true","<div class = centerbox><div  id = stim2></div></div>","32","32","750","","test","go","332","adv","","",""
"","329","32","1062","0","test_block","poldrack-single-stim","347","473407","0.0-5.0-333.0","go-nogo","true","0","","true","<div class = centerbox><div  id = stim2></div></div>","32","32","750","","test","go","333","adv","","",""
"","306","32","1347","0","test_block","poldrack-single-stim","348","474787","0.0-5.0-334.0","go-nogo","true","0","","true","<div class = centerbox><div  id = stim2></div></div>","32","32","750","","test","go","334","adv","","",""
"","328","32","1109","0","test_block","poldrack-single-stim","349","475925","0.0-5.0-335.0","go-nogo","true","0","","true","<div class = centerbox><div  id = stim2></div></div>","32","32","750","","test","go","335","adv","","",""
"","482","32","1303","0","test_block","poldrack-single-stim","350","477259","0.0-5.0-336.0","go-nogo","true","0","","true","<div class = centerbox><div  id = stim2></div></div>","32","32","750","","test","go","336","adv","","",""
"","277","32","1119","0","test_block","poldrack-single-stim","351","478405","0.0-5.0-337.0","go-nogo","true","0","","true","<div class = centerbox><div  id = stim2></div></div>","32","32","750","","test","go","337","adv","","",""
"","740","32","1370","0","test_block","poldrack-single-stim","352","479802","0.0-5.0-338.0","go-nogo","true","0","","true","<div class = centerbox><div  id = stim2></div></div>","32","32","750","","test","go","338","adv","","",""
"","292","32","1431","0","test_block","poldrack-single-stim","353","481263","0.0-5.0-339.0","go-nogo","true","0","","true","<div class = centerbox><div  id = stim2></div></div>","32","32","750","","test","go","339","adv","","",""
"","309","32","1309","0","test_block","poldrack-single-stim","354","482602","0.0-5.0-340.0","go-nogo","true","0","","true","<div class = centerbox><div  id = stim2></div></div>","32","32","750","","test","go","340","adv","","",""
"","311","32","1221","0","test_block","poldrack-single-stim","355","483851","0.0-5.0-341.0","go-nogo","true","0","","true","<div class = centerbox><div  id = stim2></div></div>","32","32","750","","test","go","341","adv","","",""
"","330","32","1114","0","test_block","poldrack-single-stim","356","484994","0.0-5.0-342.0","go-nogo","true","0","","true","<div class = centerbox><div  id = stim2></div></div>","32","32","750","","test","go","342","adv","","",""
"","355","32","1323","0","test_block","poldrack-single-stim","357","486343","0.0-5.0-343.0","go-nogo","true","0","","true","<div class = centerbox><div  id = stim2></div></div>","32","32","750","","test","go","343","adv","","",""
"","296","32","1317","0","test_block","poldrack-single-stim","358","487690","0.0-5.0-344.0","go-nogo","true","0","","true","<div class = centerbox><div  id = stim2></div></div>","32","32","750","","test","go","344","adv","","",""
"","346","32","1360","0","test_block","poldrack-single-stim","359","489079","0.0-5.0-345.0","go-nogo","true","0","","true","<div class = centerbox><div  id = stim2></div></div>","32","32","750","","test","go","345","adv","","",""
"","343","32","1105","0","test_block","poldrack-single-stim","360","490214","0.0-5.0-346.0","go-nogo","true","0","","true","<div class = centerbox><div  id = stim2></div></div>","32","32","750","","test","go","346","adv","","",""
"","438","32","1116","0","test_block","poldrack-single-stim","361","491360","0.0-5.0-347.0","go-nogo","true","0","","true","<div class = centerbox><div  id = stim2></div></div>","32","32","750","","test","go","347","adv","","",""
"","493","32","1451","0","test_block","poldrack-single-stim","362","492842","0.0-5.0-348.0","go-nogo","true","0","","true","<div class = centerbox><div  id = stim2></div></div>","32","32","750","","test","go","348","adv","","",""
"","336","32","1052","0","test_block","poldrack-single-stim","363","493921","0.0-5.0-349.0","go-nogo","true","0","","true","<div class = centerbox><div  id = stim2></div></div>","32","32","750","","test","go","349","adv","","",""
"","19047","","","","post task questions","survey-text","364","512998","0.0-7.0","go-nogo","true","0","","","","","","","","","","","","{""Q0"":""press the space bar when the square was blue"",""Q1"":""""}","",""
"<div class = centerbox><p class = center-block-text>Thanks for completing this task!</p><p class = center-block-text>Insert the following code to collect your payment at Amazon Mechanical Turk:</p><p class = center-block-text>375239317</p><p class = center-block-text>Press <strong>enter</strong> to continue.</p></div>","14413","13","14413","0","end","poldrack-text","365","528420","0.0-8.0","go-nogo","false","1","","","","","","","","","","","","","375239317","true"
