"text","rt","key_press","block_duration","timing_post_trial","trial_id","trial_type","trial_index","time_elapsed","internal_node_id","exp_id","full_screen","focus_shifts","view_history","correct","stimulus","correct_response","possible_responses","stim_duration","feedback_duration","exp_stage","condition","trial_num","mode","responses","payment_id","credit_var"
"<div class = centerbox><p class = center-block-text>Welcome to the experiment. This task will take around 10 minutes. Press <strong>enter</strong> to begin.</p></div>","4936","13","4936","0","instruction","poldrack-text","0","4937","0.0-0.0-0.0","go-nogo","true","1","","","","","","","","","","","","","",""
"","16084","","","","instruction","poldrack-instructions","1","21023","0.0-0.0-1.0","go-nogo","true","0","[{""page_index"":0,""viewing_time"":16084}]","","","","","","","","","","","","",""
"","-1","-1","1053","250","practice","poldrack-categorize","2","24090","0.0-1.0-0.0","go-nogo","true","0","","true","<div class = centerbox><div id = stim2></div></div>","-1","32","750","1000","practice","nogo","0","adv","","",""
"","554","32","1094","250","practice","poldrack-categorize","3","26441","0.0-1.0-1.0","go-nogo","true","0","","true","<div class = centerbox><div  id = stim1></div></div>","32","32","750","1000","practice","go","1","adv","","",""
"","-1","-1","1335","250","practice","poldrack-categorize","4","29034","0.0-1.0-2.0","go-nogo","true","0","","true","<div class = centerbox><div id = stim2></div></div>","-1","32","750","1000","practice","nogo","2","adv","","",""
"","-1","-1","1160","250","practice","poldrack-categorize","5","31450","0.0-1.0-3.0","go-nogo","true","0","","true","<div class = centerbox><div id = stim2></div></div>","-1","32","750","1000","practice","nogo","3","adv","","",""
"","-1","-1","1282","250","practice","poldrack-categorize","6","33988","0.0-1.0-4.0","go-nogo","true","0","","true","<div class = centerbox><div id = stim2></div></div>","-1","32","750","1000","practice","nogo","4","adv","","",""
"","-1","-1","1384","250","practice","poldrack-categorize","7","36629","0.0-1.0-5.0","go-nogo","true","0","","true","<div class = centerbox><div id = stim2></div></div>","-1","32","750","1000","practice","nogo","5","adv","","",""
"","367","32","1268","250","practice","poldrack-categorize","8","39153","0.0-1.0-6.0","go-nogo","true","0","","true","<div class = centerbox><div  id = stim1></div></div>","32","32","750","1000","practice","go","6","adv","","",""
"","372","32","1089","250","practice","poldrack-categorize","9","41497","0.0-1.0-7.0","go-nogo","true","0","","true","<div class = centerbox><div  id = stim1></div></div>","32","32","750","1000","practice","go","7","adv","","",""
"","362","32","1409","250","practice","poldrack-categorize","10","44163","0.0-1.0-8.0","go-nogo","true","0","","true","<div class = centerbox><div  id = stim1></div></div>","32","32","750","1000","practice","go","8","adv","","",""
"","345","32","1025","250","practice","poldrack-categorize","11","46442","0.0-1.0-9.0","go-nogo","true","0","","true","<div class = centerbox><div  id = stim1></div></div>","32","32","750","1000","practice","go","9","adv","","",""
"","","","","","reset_trial","call-function","12","46695","0.0-3.0","go-nogo","true","0","","","","","","","","","","","","","",""
"<div class = centerbox><p class = block-text>Practice is over, we will now begin the experiment. You will no longer get feedback about your responses.</p><p class = block-text>Remember, if you see the <font color=""orange"">orange</font> square you should <strong> respond by pressing the spacebar as quickly as possible</strong>. If you see the <font color=""blue"">blue</font> square you should <strong> not respond</strong>. Press <strong>enter</strong> to begin.</p></div>","7647","13","7647","1000","test_intro","poldrack-text","13","54343","0.0-4.0","go-nogo","true","0","","","","","","","","","","","","","",""
"","454","32","1041","0","test_block","poldrack-single-stim","14","56388","0.0-5.0-0.0","go-nogo","true","0","","true","<div class = centerbox><div  id = stim1></div></div>","32","32","750","","test","go","0","adv","","",""
"","573","32","1237","0","test_block","poldrack-single-stim","15","57745","0.0-5.0-1.0","go-nogo","true","0","","true","<div class = centerbox><div  id = stim1></div></div>","32","32","750","","test","go","1","adv","","",""
"","346","32","1150","0","test_block","poldrack-single-stim","16","58966","0.0-5.0-2.0","go-nogo","true","0","","true","<div class = centerbox><div  id = stim1></div></div>","32","32","750","","test","go","2","adv","","",""
"","328","32","1074","0","test_block","poldrack-single-stim","17","60098","0.0-5.0-3.0","go-nogo","true","0","","true","<div class = centerbox><div  id = stim1></div></div>","32","32","750","","test","go","3","adv","","",""
"","348","32","1482","0","test_block","poldrack-single-stim","18","61655","0.0-5.0-4.0","go-nogo","true","0","","true","<div class = centerbox><div  id = stim1></div></div>","32","32","750","","test","go","4","adv","","",""
"","470","32","1006","0","test_block","poldrack-single-stim","19","62721","0.0-5.0-5.0","go-nogo","true","0","","true","<div class = centerbox><div  id = stim1></div></div>","32","32","750","","test","go","5","adv","","",""
"","430","32","1147","0","test_block","poldrack-single-stim","20","63925","0.0-5.0-6.0","go-nogo","true","0","","true","<div class = centerbox><div  id = stim1></div></div>","32","32","750","","test","go","6","adv","","",""
"","354","32","1376","0","test_block","poldrack-single-stim","21","65359","0.0-5.0-7.0","go-nogo","true","0","","true","<div class = centerbox><div  id = stim1></div></div>","32","32","750","","test","go","7","adv","","",""
"","429","32","1171","0","test_block","poldrack-single-stim","22","66584","0.0-5.0-8.0","go-nogo","true","0","","true","<div class = centerbox><div  id = stim1></div></div>","32","32","750","","test","go","8","adv","","",""
"","371","32","1241","0","test_block","poldrack-single-stim","23","67879","0.0-5.0-9.0","go-nogo","true","0","","true","<div class = centerbox><div  id = stim1></div></div>","32","32","750","","test","go","9","adv","","",""
"","386","32","1417","0","test_block","poldrack-single-stim","24","69360","0.0-5.0-10.0","go-nogo","true","0","","true","<div class = centerbox><div  id = stim1></div></div>","32","32","750","","test","go","10","adv","","",""
"","549","32","1362","0","test_block","poldrack-single-stim","25","70781","0.0-5.0-11.0","go-nogo","true","0","","true","<div class = centerbox><div  id = stim1></div></div>","32","32","750","","test","go","11","adv","","",""
"","362","32","1221","0","test_block","poldrack-single-stim","26","72060","0.0-5.0-12.0","go-nogo","true","0","","true","<div class = centerbox><div  id = stim1></div></div>","32","32","750","","test","go","12","adv","","",""
"","465","32","1170","0","test_block","poldrack-single-stim","27","73287","0.0-5.0-13.0","go-nogo","true","0","","true","<div class = centerbox><div  id = stim1></div></div>","32","32","750","","test","go","13","adv","","",""
"","347","32","1450","0","test_block","poldrack-single-stim","28","74792","0.0-5.0-14.0","go-nogo","true","0","","true","<div class = centerbox><div  id = stim1></div></div>","32","32","750","","test","go","14","adv","","",""
"","356","32","1478","0","test_block","poldrack-single-stim","29","76323","0.0-5.0-15.0","go-nogo","true","0","","true","<div class = centerbox><div  id = stim1></div></div>","32","32","750","","test","go","15","adv","","",""
"","347","32","1075","0","test_block","poldrack-single-stim","30","77441","0.0-5.0-16.0","go-nogo","true","0","","true","<div class = centerbox><div  id = stim1></div></div>","32","32","750","","test","go","16","adv","","",""
"","364","32","1174","0","test_block","poldrack-single-stim","31","78668","0.0-5.0-17.0","go-nogo","true","0","","true","<div class = centerbox><div  id = stim1></div></div>","32","32","750","","test","go","17","adv","","",""
"","314","32","1125","0","test_block","poldrack-single-stim","32","79843","0.0-5.0-18.0","go-nogo","true","0","","true","<div class = centerbox><div  id = stim1></div></div>","32","32","750","","test","go","18","adv","","",""
"","332","32","1155","0","test_block","poldrack-single-stim","33","81055","0.0-5.0-19.0","go-nogo","true","0","","true","<div class = centerbox><div  id = stim1></div></div>","32","32","750","","test","go","19","adv","","",""
"","394","32","1308","0","test_block","poldrack-single-stim","34","82418","0.0-5.0-20.0","go-nogo","true","0","","true","<div class = centerbox><div  id = stim1></div></div>","32","32","750","","test","go","20","adv","","",""
"","327","32","1116","0","test_block","poldrack-single-stim","35","83599","0.0-5.0-21.0","go-nogo","true","0","","true","<div class = centerbox><div  id = stim1></div></div>","32","32","750","","test","go","21","adv","","",""
"","382","32","1232","0","test_block","poldrack-single-stim","36","84883","0.0-5.0-22.0","go-nogo","true","0","","true","<div class = centerbox><div  id = stim1></div></div>","32","32","750","","test","go","22","adv","","",""
"","317","32","1359","0","test_block","poldrack-single-stim","37","86299","0.0-5.0-23.0","go-nogo","true","0","","true","<div class = centerbox><div  id = stim1></div></div>","32","32","750","","test","go","23","adv","","",""
"","306","32","1497","0","test_block","poldrack-single-stim","38","87848","0.0-5.0-24.0","go-nogo","true","0","","true","<div class = centerbox><div  id = stim1></div></div>","32","32","750","","test","go","24","adv","","",""
"","333","32","1410","0","test_block","poldrack-single-stim","39","89295","0.0-5.0-25.0","go-nogo","true","0","","true","<div class = centerbox><div  id = stim1></div></div>","32","32","750","","test","go","25","adv","","",""
"","293","32","1034","0","test_block","poldrack-single-stim","40","90390","0.0-5.0-26.0","go-nogo","true","0","","true","<div class = centerbox><div  id = stim1></div></div>","32","32","750","","test","go","26","adv","","",""
"","380","32","1091","0","test_block","poldrack-single-stim","41","91528","0.0-5.0-27.0","go-nogo","true","0","","true","<div class = centerbox><div  id = stim1></div></div>","32","32","750","","test","go","27","adv","","",""
"","329","32","1191","0","test_block","poldrack-single-stim","42","92768","0.0-5.0-28.0","go-nogo","true","0","","true","<div class = centerbox><div  id = stim1></div></div>","32","32","750","","test","go","28","adv","","",""
"","301","32","1218","0","test_block","poldrack-single-stim","43","94047","0.0-5.0-29.0","go-nogo","true","0","","true","<div class = centerbox><div  id = stim1></div></div>","32","32","750","","test","go","29","adv","","",""
"","247","32","1066","0","test_block","poldrack-single-stim","44","95165","0.0-5.0-30.0","go-nogo","true","0","","true","<div class = centerbox><div  id = stim1></div></div>","32","32","750","","test","go","30","adv","","",""
"","291","32","1306","0","test_block","poldrack-single-stim","45","96527","0.0-5.0-31.0","go-nogo","true","0","","true","<div class = centerbox><div  id = stim1></div></div>","32","32","750","","test","go","31","adv","","",""
"","292","32","1466","0","test_block","poldrack-single-stim","46","98047","0.0-5.0-32.0","go-nogo","true","0","","true","<div class = centerbox><div  id = stim1></div></div>","32","32","750","","test","go","32","adv","","",""
"","260","32","1172","0","test_block","poldrack-single-stim","47","99274","0.0-5.0-33.0","go-nogo","true","0","","true","<div class = centerbox><div  id = stim1></div></div>","32","32","750","","test","go","33","adv","","",""
"","279","32","1156","0","test_block","poldrack-single-stim","48","100478","0.0-5.0-34.0","go-nogo","true","0","","true","<div class = centerbox><div  id = stim1></div></div>","32","32","750","","test","go","34","adv","","",""
"","321","32","1264","0","test_block","poldrack-single-stim","49","101802","0.0-5.0-35.0","go-nogo","true","0","","true","<div class = centerbox><div  id = stim1></div></div>","32","32","750","","test","go","35","adv","","",""
"","286","32","1469","0","test_block","poldrack-single-stim","50","103327","0.0-5.0-36.0","go-nogo","true","0","","true","<div class = centerbox><div  id = stim1></div></div>","32","32","750","","test","go","36","adv","","",""
"","276","32","1468","0","test_block","poldrack-single-stim","51","104841","0.0-5.0-37.0","go-nogo","true","0","","true","<div class = centerbox><div  id = stim1></div></div>","32","32","750","","test","go","37","adv","","",""
"","284","32","1054","0","test_block","poldrack-single-stim","52","105951","0.0-5.0-38.0","go-nogo","true","0","","true","<div class = centerbox><div  id = stim1></div></div>","32","32","750","","test","go","38","adv","","",""
"","303","32","1047","0","test_block","poldrack-single-stim","53","107049","0.0-5.0-39.0","go-nogo","true","0","","true","<div class = centerbox><div  id = stim1></div></div>","32","32","750","","test","go","39","adv","","",""
"","279","32","1425","0","test_block","poldrack-single-stim","54","108522","0.0-5.0-40.0","go-nogo","true","0","","true","<div class = centerbox><div  id = stim1></div></div>","32","32","750","","test","go","40","adv","","",""
"","312","32","1261","0","test_block","poldrack-single-stim","55","109841","0.0-5.0-41.0","go-nogo","true","0","","true","<div class = centerbox><div  id = stim1></div></div>","32","32","750","","test","go","41","adv","","",""
"","323","32","1220","0","test_block","poldrack-single-stim","56","111113","0.0-5.0-42.0","go-nogo","true","0","","true","<div class = centerbox><div  id = stim1></div></div>","32","32","750","","test","go","42","adv","","",""
"","310","32","1229","0","test_block","poldrack-single-stim","57","112393","0.0-5.0-43.0","go-nogo","true","0","","true","<div class = centerbox><div  id = stim1></div></div>","32","32","750","","test","go","43","adv","","",""
"","320","32","1016","0","test_block","poldrack-single-stim","58","113465","0.0-5.0-44.0","go-nogo","true","0","","true","<div class = centerbox><div  id = stim1></div></div>","32","32","750","","test","go","44","adv","","",""
"","335","32","1215","0","test_block","poldrack-single-stim","59","114729","0.0-5.0-45.0","go-nogo","true","0","","true","<div class = centerbox><div  id = stim1></div></div>","32","32","750","","test","go","45","adv","","",""
"","362","32","1422","0","test_block","poldrack-single-stim","60","116205","0.0-5.0-46.0","go-nogo","true","0","","true","<div class = centerbox><div  id = stim1></div></div>","32","32","750","","test","go","46","adv","","",""
"","288","32","1332","0","test_block","poldrack-single-stim","61","117590","0.0-5.0-47.0","go-nogo","true","0","","true","<div class = centerbox><div  id = stim1></div></div>","32","32","750","","test","go","47","adv","","",""
"","317","32","1165","0","test_block","poldrack-single-stim","62","118809","0.0-5.0-48.0","go-nogo","true","0","","true","<div class = centerbox><div  id = stim1></div></div>","32","32","750","","test","go","48","adv","","",""
"","306","32","1460","0","test_block","poldrack-single-stim","63","120341","0.0-5.0-49.0","go-nogo","true","0","","true","<div class = centerbox><div  id = stim1></div></div>","32","32","750","","test","go","49","adv","","",""
"","91","32","1453","0","test_block","poldrack-single-stim","64","121850","0.0-5.0-50.0","go-nogo","true","0","","true","<div class = centerbox><div  id = stim1></div></div>","32","32","750","","test","go","50","adv","","",""
"","325","32","1267","0","test_block","poldrack-single-stim","65","123166","0.0-5.0-51.0","go-nogo","true","0","","true","<div class = centerbox><div  id = stim1></div></div>","32","32","750","","test","go","51","adv","","",""
"","337","32","1461","0","test_block","poldrack-single-stim","66","124676","0.0-5.0-52.0","go-nogo","true","0","","true","<div class = centerbox><div  id = stim1></div></div>","32","32","750","","test","go","52","adv","","",""
"","276","32","1342","0","test_block","poldrack-single-stim","67","126069","0.0-5.0-53.0","go-nogo","true","0","","true","<div class = centerbox><div  id = stim1></div></div>","32","32","750","","test","go","53","adv","","",""
"","330","32","1203","0","test_block","poldrack-single-stim","68","127339","0.0-5.0-54.0","go-nogo","true","0","","true","<div class = centerbox><div  id = stim1></div></div>","32","32","750","","test","go","54","adv","","",""
"","355","32","1280","0","test_block","poldrack-single-stim","69","128670","0.0-5.0-55.0","go-nogo","true","0","","true","<div class = centerbox><div  id = stim1></div></div>","32","32","750","","test","go","55","adv","","",""
"","322","32","1390","0","test_block","poldrack-single-stim","70","130116","0.0-5.0-56.0","go-nogo","true","0","","true","<div class = centerbox><div  id = stim1></div></div>","32","32","750","","test","go","56","adv","","",""
"","292","32","1019","0","test_block","poldrack-single-stim","71","131185","0.0-5.0-57.0","go-nogo","true","0","","true","<div class = centerbox><div  id = stim1></div></div>","32","32","750","","test","go","57","adv","","",""
"","329","32","1355","0","test_block","poldrack-single-stim","72","132587","0.0-5.0-58.0","go-nogo","true","0","","true","<div class = centerbox><div  id = stim1></div></div>","32","32","750","","test","go","58","adv","","",""
"","282","32","1372","0","test_block","poldrack-single-stim","73","134013","0.0-5.0-59.0","go-nogo","true","0","","true","<div class = centerbox><div  id = stim1></div></div>","32","32","750","","test","go","59","adv","","",""
"","271","32","1194","0","test_block","poldrack-single-stim","74","135259","0.0-5.0-60.0","go-nogo","true","0","","true","<div class = centerbox><div  id = stim1></div></div>","32","32","750","","test","go","60","adv","","",""
"","285","32","1060","0","test_block","poldrack-single-stim","75","136368","0.0-5.0-61.0","go-nogo","true","0","","true","<div class = centerbox><div  id = stim1></div></div>","32","32","750","","test","go","61","adv","","",""
"","320","32","1041","0","test_block","poldrack-single-stim","76","137460","0.0-5.0-62.0","go-nogo","true","0","","true","<div class = centerbox><div  id = stim1></div></div>","32","32","750","","test","go","62","adv","","",""
"","318","32","1135","0","test_block","poldrack-single-stim","77","138650","0.0-5.0-63.0","go-nogo","true","0","","true","<div class = centerbox><div  id = stim1></div></div>","32","32","750","","test","go","63","adv","","",""
"","274","32","1178","0","test_block","poldrack-single-stim","78","139880","0.0-5.0-64.0","go-nogo","true","0","","true","<div class = centerbox><div  id = stim1></div></div>","32","32","750","","test","go","64","adv","","",""
"","234","32","1432","0","test_block","poldrack-single-stim","79","141367","0.0-5.0-65.0","go-nogo","true","0","","true","<div class = centerbox><div  id = stim1></div></div>","32","32","750","","test","go","65","adv","","",""
"","319","32","1177","0","test_block","poldrack-single-stim","80","142596","0.0-5.0-66.0","go-nogo","true","0","","true","<div class = centerbox><div  id = stim1></div></div>","32","32","750","","test","go","66","adv","","",""
"","301","32","1473","0","test_block","poldrack-single-stim","81","144117","0.0-5.0-67.0","go-nogo","true","0","","true","<div class = centerbox><div  id = stim1></div></div>","32","32","750","","test","go","67","adv","","",""
"","84","32","1241","0","test_block","poldrack-single-stim","82","145406","0.0-5.0-68.0","go-nogo","true","0","","true","<div class = centerbox><div  id = stim1></div></div>","32","32","750","","test","go","68","adv","","",""
"","337","32","1218","0","test_block","poldrack-single-stim","83","146674","0.0-5.0-69.0","go-nogo","true","0","","true","<div class = centerbox><div  id = stim1></div></div>","32","32","750","","test","go","69","adv","","",""
"","305","32","1470","0","test_block","poldrack-single-stim","84","148190","0.0-5.0-70.0","go-nogo","true","0","","true","<div class = centerbox><div  id = stim1></div></div>","32","32","750","","test","go","70","adv","","",""
"","431","32","1009","0","test_block","poldrack-single-stim","85","149251","0.0-5.0-71.0","go-nogo","true","0","","true","<div class = centerbox><div  id = stim1></div></div>","32","32","750","","test","go","71","adv","","",""
"","474","32","1262","0","test_block","poldrack-single-stim","86","150558","0.0-5.0-72.0","go-nogo","true","0","","true","<div class = centerbox><div  id = stim1></div></div>","32","32","750","","test","go","72","adv","","",""
"","294","32","1404","0","test_block","poldrack-single-stim","87","152032","0.0-5.0-73.0","go-nogo","true","0","","true","<div class = centerbox><div  id = stim1></div></div>","32","32","750","","test","go","73","adv","","",""
"","267","32","1236","0","test_block","poldrack-single-stim","88","153314","0.0-5.0-74.0","go-nogo","true","0","","true","<div class = centerbox><div  id = stim1></div></div>","32","32","750","","test","go","74","adv","","",""
"","261","32","1217","0","test_block","poldrack-single-stim","89","154580","0.0-5.0-75.0","go-nogo","true","0","","true","<div class = centerbox><div  id = stim1></div></div>","32","32","750","","test","go","75","adv","","",""
"","254","32","1131","0","test_block","poldrack-single-stim","90","155758","0.0-5.0-76.0","go-nogo","true","0","","true","<div class = centerbox><div  id = stim1></div></div>","32","32","750","","test","go","76","adv","","",""
"","288","32","1396","0","test_block","poldrack-single-stim","91","157205","0.0-5.0-77.0","go-nogo","true","0","","true","<div class = centerbox><div  id = stim1></div></div>","32","32","750","","test","go","77","adv","","",""
"","100","32","1408","0","test_block","poldrack-single-stim","92","158660","0.0-5.0-78.0","go-nogo","true","0","","true","<div class = centerbox><div  id = stim1></div></div>","32","32","750","","test","go","78","adv","","",""
"","231","32","1339","0","test_block","poldrack-single-stim","93","160053","0.0-5.0-79.0","go-nogo","true","0","","true","<div class = centerbox><div  id = stim1></div></div>","32","32","750","","test","go","79","adv","","",""
"","100","32","1064","0","test_block","poldrack-single-stim","94","161157","0.0-5.0-80.0","go-nogo","true","0","","true","<div class = centerbox><div  id = stim1></div></div>","32","32","750","","test","go","80","adv","","",""
"","339","32","1041","0","test_block","poldrack-single-stim","95","162249","0.0-5.0-81.0","go-nogo","true","0","","true","<div class = centerbox><div  id = stim1></div></div>","32","32","750","","test","go","81","adv","","",""
"","309","32","1476","0","test_block","poldrack-single-stim","96","163768","0.0-5.0-82.0","go-nogo","true","0","","true","<div class = centerbox><div  id = stim1></div></div>","32","32","750","","test","go","82","adv","","",""
"","-1","-1","1118","0","test_block","poldrack-single-stim","97","164936","0.0-5.0-83.0","go-nogo","true","0","","false","<div class = centerbox><div  id = stim1></div></div>","32","32","750","","test","go","83","adv","","",""
"","337","32","1217","0","test_block","poldrack-single-stim","98","166201","0.0-5.0-84.0","go-nogo","true","0","","true","<div class = centerbox><div  id = stim1></div></div>","32","32","750","","test","go","84","adv","","",""
"","-1","-1","1050","0","test_block","poldrack-single-stim","99","167293","0.0-5.0-85.0","go-nogo","true","0","","true","<div class = centerbox><div  id = stim2></div></div>","-1","32","750","","test","nogo","85","adv","","",""
"","365","32","1434","0","test_block","poldrack-single-stim","100","168773","0.0-5.0-86.0","go-nogo","true","0","","true","<div class = centerbox><div  id = stim1></div></div>","32","32","750","","test","go","86","adv","","",""
"","-1","-1","1171","0","test_block","poldrack-single-stim","101","169995","0.0-5.0-87.0","go-nogo","true","0","","true","<div class = centerbox><div  id = stim2></div></div>","-1","32","750","","test","nogo","87","adv","","",""
"","384","32","1206","0","test_block","poldrack-single-stim","102","171253","0.0-5.0-88.0","go-nogo","true","0","","true","<div class = centerbox><div  id = stim1></div></div>","32","32","750","","test","go","88","adv","","",""
"","-1","-1","1340","0","test_block","poldrack-single-stim","103","172646","0.0-5.0-89.0","go-nogo","true","0","","true","<div class = centerbox><div  id = stim2></div></div>","-1","32","750","","test","nogo","89","adv","","",""
"","384","32","1401","0","test_block","poldrack-single-stim","104","174090","0.0-5.0-90.0","go-nogo","true","0","","true","<div class = centerbox><div  id = stim1></div></div>","32","32","750","","test","go","90","adv","","",""
"","371","32","1119","0","test_block","poldrack-single-stim","105","175261","0.0-5.0-91.0","go-nogo","true","0","","true","<div class = centerbox><div  id = stim1></div></div>","32","32","750","","test","go","91","adv","","",""
"","377","32","1091","0","test_block","poldrack-single-stim","106","176396","0.0-5.0-92.0","go-nogo","true","0","","true","<div class = centerbox><div  id = stim1></div></div>","32","32","750","","test","go","92","adv","","",""
"","352","32","1322","0","test_block","poldrack-single-stim","107","177772","0.0-5.0-93.0","go-nogo","true","0","","true","<div class = centerbox><div  id = stim1></div></div>","32","32","750","","test","go","93","adv","","",""
"","365","32","1236","0","test_block","poldrack-single-stim","108","179055","0.0-5.0-94.0","go-nogo","true","0","","true","<div class = centerbox><div  id = stim1></div></div>","32","32","750","","test","go","94","adv","","",""
"","366","32","1245","0","test_block","poldrack-single-stim","109","180354","0.0-5.0-95.0","go-nogo","true","0","","true","<div class = centerbox><div  id = stim1></div></div>","32","32","750","","test","go","95","adv","","",""
"","355","32","1242","0","test_block","poldrack-single-stim","110","181650","0.0-5.0-96.0","go-nogo","true","0","","true","<div class = centerbox><div  id = stim1></div></div>","32","32","750","","test","go","96","adv","","",""
"","314","32","1062","0","test_block","poldrack-single-stim","111","182766","0.0-5.0-97.0","go-nogo","true","0","","true","<div class = centerbox><div  id = stim1></div></div>","32","32","750","","test","go","97","adv","","",""
"","356","32","1396","0","test_block","poldrack-single-stim","112","184217","0.0-5.0-98.0","go-nogo","true","0","","true","<div class = centerbox><div  id = stim1></div></div>","32","32","750","","test","go","98","adv","","",""
"","358","32","1241","0","test_block","poldrack-single-stim","113","185493","0.0-5.0-99.0","go-nogo","true","0","","true","<div class = centerbox><div  id = stim1></div></div>","32","32","750","","test","go","99","adv","","",""
"","330","32","1075","0","test_block","poldrack-single-stim","114","186611","0.0-5.0-100.0","go-nogo","true","0","","true","<div class = centerbox><div  id = stim1></div></div>","32","32","750","","test","go","100","adv","","",""
"","326","32","1146","0","test_block","poldrack-single-stim","115","187806","0.0-5.0-101.0","go-nogo","true","0","","true","<div class = centerbox><div  id = stim1></div></div>","32","32","750","","test","go","101","adv","","",""
"","336","32","1327","0","test_block","poldrack-single-stim","116","189176","0.0-5.0-102.0","go-nogo","true","0","","true","<div class = centerbox><div  id = stim1></div></div>","32","32","750","","test","go","102","adv","","",""
"","305","32","1032","0","test_block","poldrack-single-stim","117","190256","0.0-5.0-103.0","go-nogo","true","0","","true","<div class = centerbox><div  id = stim1></div></div>","32","32","750","","test","go","103","adv","","",""
"","357","32","1163","0","test_block","poldrack-single-stim","118","191462","0.0-5.0-104.0","go-nogo","true","0","","true","<div class = centerbox><div  id = stim1></div></div>","32","32","750","","test","go","104","adv","","",""
"","313","32","1026","0","test_block","poldrack-single-stim","119","192530","0.0-5.0-105.0","go-nogo","true","0","","true","<div class = centerbox><div  id = stim1></div></div>","32","32","750","","test","go","105","adv","","",""
"","349","32","1156","0","test_block","poldrack-single-stim","120","193736","0.0-5.0-106.0","go-nogo","true","0","","true","<div class = centerbox><div  id = stim1></div></div>","32","32","750","","test","go","106","adv","","",""
"","325","32","1318","0","test_block","poldrack-single-stim","121","195107","0.0-5.0-107.0","go-nogo","true","0","","true","<div class = centerbox><div  id = stim1></div></div>","32","32","750","","test","go","107","adv","","",""
"","847","32","1089","0","test_block","poldrack-single-stim","122","196243","0.0-5.0-108.0","go-nogo","true","0","","true","<div class = centerbox><div  id = stim1></div></div>","32","32","750","","test","go","108","adv","","",""
"","414","32","1285","0","test_block","poldrack-single-stim","123","197576","0.0-5.0-109.0","go-nogo","true","0","","true","<div class = centerbox><div  id = stim1></div></div>","32","32","750","","test","go","109","adv","","",""
"","314","32","1416","0","test_block","poldrack-single-stim","124","199039","0.0-5.0-110.0","go-nogo","true","0","","true","<div class = centerbox><div  id = stim1></div></div>","32","32","750","","test","go","110","adv","","",""
"","290","32","1260","0","test_block","poldrack-single-stim","125","200346","0.0-5.0-111.0","go-nogo","true","0","","true","<div class = centerbox><div  id = stim1></div></div>","32","32","750","","test","go","111","adv","","",""
"","305","32","1412","0","test_block","poldrack-single-stim","126","201812","0.0-5.0-112.0","go-nogo","true","0","","true","<div class = centerbox><div  id = stim1></div></div>","32","32","750","","test","go","112","adv","","",""
"","315","32","1044","0","test_block","poldrack-single-stim","127","202906","0.0-5.0-113.0","go-nogo","true","0","","true","<div class = centerbox><div  id = stim1></div></div>","32","32","750","","test","go","113","adv","","",""
"","342","32","1168","0","test_block","poldrack-single-stim","128","204123","0.0-5.0-114.0","go-nogo","true","0","","true","<div class = centerbox><div  id = stim1></div></div>","32","32","750","","test","go","114","adv","","",""
"","316","32","1117","0","test_block","poldrack-single-stim","129","205283","0.0-5.0-115.0","go-nogo","true","0","","true","<div class = centerbox><div  id = stim1></div></div>","32","32","750","","test","go","115","adv","","",""
"","348","32","1160","0","test_block","poldrack-single-stim","130","206494","0.0-5.0-116.0","go-nogo","true","0","","true","<div class = centerbox><div  id = stim1></div></div>","32","32","750","","test","go","116","adv","","",""
"","387","32","1330","0","test_block","poldrack-single-stim","131","207879","0.0-5.0-117.0","go-nogo","true","0","","true","<div class = centerbox><div  id = stim1></div></div>","32","32","750","","test","go","117","adv","","",""
"","343","32","1373","0","test_block","poldrack-single-stim","132","209312","0.0-5.0-118.0","go-nogo","true","0","","true","<div class = centerbox><div  id = stim1></div></div>","32","32","750","","test","go","118","adv","","",""
"","219","32","1104","0","test_block","poldrack-single-stim","133","210454","0.0-5.0-119.0","go-nogo","true","0","","true","<div class = centerbox><div  id = stim1></div></div>","32","32","750","","test","go","119","adv","","",""
"","336","32","1359","0","test_block","poldrack-single-stim","134","211863","0.0-5.0-120.0","go-nogo","true","0","","true","<div class = centerbox><div  id = stim1></div></div>","32","32","750","","test","go","120","adv","","",""
"","295","32","1408","0","test_block","poldrack-single-stim","135","213323","0.0-5.0-121.0","go-nogo","true","0","","true","<div class = centerbox><div  id = stim1></div></div>","32","32","750","","test","go","121","adv","","",""
"","304","32","1082","0","test_block","poldrack-single-stim","136","214451","0.0-5.0-122.0","go-nogo","true","0","","true","<div class = centerbox><div  id = stim1></div></div>","32","32","750","","test","go","122","adv","","",""
"","333","32","1279","0","test_block","poldrack-single-stim","137","215780","0.0-5.0-123.0","go-nogo","true","0","","true","<div class = centerbox><div  id = stim1></div></div>","32","32","750","","test","go","123","adv","","",""
"","271","32","1395","0","test_block","poldrack-single-stim","138","217221","0.0-5.0-124.0","go-nogo","true","0","","true","<div class = centerbox><div  id = stim1></div></div>","32","32","750","","test","go","124","adv","","",""
"","232","32","1050","0","test_block","poldrack-single-stim","139","218324","0.0-5.0-125.0","go-nogo","true","0","","true","<div class = centerbox><div  id = stim1></div></div>","32","32","750","","test","go","125","adv","","",""
"","339","32","1186","0","test_block","poldrack-single-stim","140","219560","0.0-5.0-126.0","go-nogo","true","0","","true","<div class = centerbox><div  id = stim1></div></div>","32","32","750","","test","go","126","adv","","",""
"","319","32","1481","0","test_block","poldrack-single-stim","141","221091","0.0-5.0-127.0","go-nogo","true","0","","true","<div class = centerbox><div  id = stim1></div></div>","32","32","750","","test","go","127","adv","","",""
"","288","32","1341","0","test_block","poldrack-single-stim","142","222478","0.0-5.0-128.0","go-nogo","true","0","","true","<div class = centerbox><div  id = stim1></div></div>","32","32","750","","test","go","128","adv","","",""
"","313","32","1288","0","test_block","poldrack-single-stim","143","223832","0.0-5.0-129.0","go-nogo","true","0","","true","<div class = centerbox><div  id = stim1></div></div>","32","32","750","","test","go","129","adv","","",""
"","265","32","1341","0","test_block","poldrack-single-stim","144","225214","0.0-5.0-130.0","go-nogo","true","0","","true","<div class = centerbox><div  id = stim1></div></div>","32","32","750","","test","go","130","adv","","",""
"","333","32","1310","0","test_block","poldrack-single-stim","145","226579","0.0-5.0-131.0","go-nogo","true","0","","true","<div class = centerbox><div  id = stim1></div></div>","32","32","750","","test","go","131","adv","","",""
"","325","32","1106","0","test_block","poldrack-single-stim","146","227744","0.0-5.0-132.0","go-nogo","true","0","","true","<div class = centerbox><div  id = stim1></div></div>","32","32","750","","test","go","132","adv","","",""
"","310","32","1206","0","test_block","poldrack-single-stim","147","228994","0.0-5.0-133.0","go-nogo","true","0","","true","<div class = centerbox><div  id = stim1></div></div>","32","32","750","","test","go","133","adv","","",""
"","327","32","1390","0","test_block","poldrack-single-stim","148","230432","0.0-5.0-134.0","go-nogo","true","0","","true","<div class = centerbox><div  id = stim1></div></div>","32","32","750","","test","go","134","adv","","",""
"","294","32","1418","0","test_block","poldrack-single-stim","149","231902","0.0-5.0-135.0","go-nogo","true","0","","true","<div class = centerbox><div  id = stim1></div></div>","32","32","750","","test","go","135","adv","","",""
"","303","32","1426","0","test_block","poldrack-single-stim","150","233373","0.0-5.0-136.0","go-nogo","true","0","","true","<div class = centerbox><div  id = stim1></div></div>","32","32","750","","test","go","136","adv","","",""
"","252","32","1232","0","test_block","poldrack-single-stim","151","234638","0.0-5.0-137.0","go-nogo","true","0","","true","<div class = centerbox><div  id = stim1></div></div>","32","32","750","","test","go","137","adv","","",""
"","316","32","1369","0","test_block","poldrack-single-stim","152","236056","0.0-5.0-138.0","go-nogo","true","0","","true","<div class = centerbox><div  id = stim1></div></div>","32","32","750","","test","go","138","adv","","",""
"","295","32","1346","0","test_block","poldrack-single-stim","153","237453","0.0-5.0-139.0","go-nogo","true","0","","false","<div class = centerbox><div  id = stim2></div></div>","-1","32","750","","test","nogo","139","adv","","",""
"","321","32","1307","0","test_block","poldrack-single-stim","154","238812","0.0-5.0-140.0","go-nogo","true","0","","false","<div class = centerbox><div  id = stim2></div></div>","-1","32","750","","test","nogo","140","adv","","",""
"","-1","-1","1165","0","test_block","poldrack-single-stim","155","240026","0.0-5.0-141.0","go-nogo","true","0","","true","<div class = centerbox><div  id = stim2></div></div>","-1","32","750","","test","nogo","141","adv","","",""
"","424","32","1270","0","test_block","poldrack-single-stim","156","241345","0.0-5.0-142.0","go-nogo","true","0","","true","<div class = centerbox><div  id = stim1></div></div>","32","32","750","","test","go","142","adv","","",""
"","373","32","1460","0","test_block","poldrack-single-stim","157","242849","0.0-5.0-143.0","go-nogo","true","0","","true","<div class = centerbox><div  id = stim1></div></div>","32","32","750","","test","go","143","adv","","",""
"","355","32","1036","0","test_block","poldrack-single-stim","158","243930","0.0-5.0-144.0","go-nogo","true","0","","true","<div class = centerbox><div  id = stim1></div></div>","32","32","750","","test","go","144","adv","","",""
"","392","32","1177","0","test_block","poldrack-single-stim","159","245154","0.0-5.0-145.0","go-nogo","true","0","","true","<div class = centerbox><div  id = stim1></div></div>","32","32","750","","test","go","145","adv","","",""
"","331","32","1417","0","test_block","poldrack-single-stim","160","246616","0.0-5.0-146.0","go-nogo","true","0","","true","<div class = centerbox><div  id = stim1></div></div>","32","32","750","","test","go","146","adv","","",""
"","347","32","1465","0","test_block","poldrack-single-stim","161","248128","0.0-5.0-147.0","go-nogo","true","0","","true","<div class = centerbox><div  id = stim1></div></div>","32","32","750","","test","go","147","adv","","",""
"","-1","-1","1368","0","test_block","poldrack-single-stim","162","249541","0.0-5.0-148.0","go-nogo","true","0","","true","<div class = centerbox><div  id = stim2></div></div>","-1","32","750","","test","nogo","148","adv","","",""
"","423","32","1188","0","test_block","poldrack-single-stim","163","250775","0.0-5.0-149.0","go-nogo","true","0","","true","<div class = centerbox><div  id = stim1></div></div>","32","32","750","","test","go","149","adv","","",""
"","402","32","1330","0","test_block","poldrack-single-stim","164","252155","0.0-5.0-150.0","go-nogo","true","0","","true","<div class = centerbox><div  id = stim1></div></div>","32","32","750","","test","go","150","adv","","",""
"","359","32","1467","0","test_block","poldrack-single-stim","165","253661","0.0-5.0-151.0","go-nogo","true","0","","true","<div class = centerbox><div  id = stim1></div></div>","32","32","750","","test","go","151","adv","","",""
"","365","32","1205","0","test_block","poldrack-single-stim","166","254915","0.0-5.0-152.0","go-nogo","true","0","","true","<div class = centerbox><div  id = stim1></div></div>","32","32","750","","test","go","152","adv","","",""
"","377","32","1058","0","test_block","poldrack-single-stim","167","256035","0.0-5.0-153.0","go-nogo","true","0","","true","<div class = centerbox><div  id = stim1></div></div>","32","32","750","","test","go","153","adv","","",""
"","462","32","1190","0","test_block","poldrack-single-stim","168","257274","0.0-5.0-154.0","go-nogo","true","0","","true","<div class = centerbox><div  id = stim1></div></div>","32","32","750","","test","go","154","adv","","",""
"","357","32","1375","0","test_block","poldrack-single-stim","169","258700","0.0-5.0-155.0","go-nogo","true","0","","true","<div class = centerbox><div  id = stim1></div></div>","32","32","750","","test","go","155","adv","","",""
"","-1","-1","1402","0","test_block","poldrack-single-stim","170","260157","0.0-5.0-156.0","go-nogo","true","0","","true","<div class = centerbox><div  id = stim2></div></div>","-1","32","750","","test","nogo","156","adv","","",""
"","418","32","1340","0","test_block","poldrack-single-stim","171","261540","0.0-5.0-157.0","go-nogo","true","0","","true","<div class = centerbox><div  id = stim1></div></div>","32","32","750","","test","go","157","adv","","",""
"","350","32","1125","0","test_block","poldrack-single-stim","172","262712","0.0-5.0-158.0","go-nogo","true","0","","true","<div class = centerbox><div  id = stim1></div></div>","32","32","750","","test","go","158","adv","","",""
"","336","32","1301","0","test_block","poldrack-single-stim","173","264063","0.0-5.0-159.0","go-nogo","true","0","","true","<div class = centerbox><div  id = stim1></div></div>","32","32","750","","test","go","159","adv","","",""
"","344","32","1011","0","test_block","poldrack-single-stim","174","265124","0.0-5.0-160.0","go-nogo","true","0","","true","<div class = centerbox><div  id = stim1></div></div>","32","32","750","","test","go","160","adv","","",""
"","379","32","1244","0","test_block","poldrack-single-stim","175","266420","0.0-5.0-161.0","go-nogo","true","0","","true","<div class = centerbox><div  id = stim1></div></div>","32","32","750","","test","go","161","adv","","",""
"","384","32","1225","0","test_block","poldrack-single-stim","176","267689","0.0-5.0-162.0","go-nogo","true","0","","true","<div class = centerbox><div  id = stim1></div></div>","32","32","750","","test","go","162","adv","","",""
"","337","32","1203","0","test_block","poldrack-single-stim","177","268939","0.0-5.0-163.0","go-nogo","true","0","","true","<div class = centerbox><div  id = stim1></div></div>","32","32","750","","test","go","163","adv","","",""
"","313","32","1112","0","test_block","poldrack-single-stim","178","270105","0.0-5.0-164.0","go-nogo","true","0","","true","<div class = centerbox><div  id = stim1></div></div>","32","32","750","","test","go","164","adv","","",""
"","309","32","1031","0","test_block","poldrack-single-stim","179","271187","0.0-5.0-165.0","go-nogo","true","0","","true","<div class = centerbox><div  id = stim1></div></div>","32","32","750","","test","go","165","adv","","",""
"","-1","-1","1072","0","test_block","poldrack-single-stim","180","272309","0.0-5.0-166.0","go-nogo","true","0","","true","<div class = centerbox><div  id = stim2></div></div>","-1","32","750","","test","nogo","166","adv","","",""
"","404","32","1221","0","test_block","poldrack-single-stim","181","273579","0.0-5.0-167.0","go-nogo","true","0","","true","<div class = centerbox><div  id = stim1></div></div>","32","32","750","","test","go","167","adv","","",""
"","335","32","1215","0","test_block","poldrack-single-stim","182","274842","0.0-5.0-168.0","go-nogo","true","0","","true","<div class = centerbox><div  id = stim1></div></div>","32","32","750","","test","go","168","adv","","",""
"","391","32","1212","0","test_block","poldrack-single-stim","183","276103","0.0-5.0-169.0","go-nogo","true","0","","true","<div class = centerbox><div  id = stim1></div></div>","32","32","750","","test","go","169","adv","","",""
"","370","32","1104","0","test_block","poldrack-single-stim","184","277256","0.0-5.0-170.0","go-nogo","true","0","","true","<div class = centerbox><div  id = stim1></div></div>","32","32","750","","test","go","170","adv","","",""
"","362","32","1210","0","test_block","poldrack-single-stim","185","278513","0.0-5.0-171.0","go-nogo","true","0","","true","<div class = centerbox><div  id = stim1></div></div>","32","32","750","","test","go","171","adv","","",""
"","397","32","1014","0","test_block","poldrack-single-stim","186","279580","0.0-5.0-172.0","go-nogo","true","0","","true","<div class = centerbox><div  id = stim1></div></div>","32","32","750","","test","go","172","adv","","",""
"","855","32","1216","0","test_block","poldrack-single-stim","187","280843","0.0-5.0-173.0","go-nogo","true","0","","true","<div class = centerbox><div  id = stim1></div></div>","32","32","750","","test","go","173","adv","","",""
"","347","32","1391","0","test_block","poldrack-single-stim","188","282285","0.0-5.0-174.0","go-nogo","true","0","","true","<div class = centerbox><div  id = stim1></div></div>","32","32","750","","test","go","174","adv","","",""
"","309","32","1244","0","test_block","poldrack-single-stim","189","283577","0.0-5.0-175.0","go-nogo","true","0","","true","<div class = centerbox><div  id = stim1></div></div>","32","32","750","","test","go","175","adv","","",""
"","-1","-1","1358","0","test_block","poldrack-single-stim","190","284989","0.0-5.0-176.0","go-nogo","true","0","","true","<div class = centerbox><div  id = stim2></div></div>","-1","32","750","","test","nogo","176","adv","","",""
"","335","32","1036","0","test_block","poldrack-single-stim","191","286070","0.0-5.0-177.0","go-nogo","true","0","","true","<div class = centerbox><div  id = stim1></div></div>","32","32","750","","test","go","177","adv","","",""
"","397","32","1153","0","test_block","poldrack-single-stim","192","287268","0.0-5.0-178.0","go-nogo","true","0","","true","<div class = centerbox><div  id = stim1></div></div>","32","32","750","","test","go","178","adv","","",""
"","494","32","1398","0","test_block","poldrack-single-stim","193","288714","0.0-5.0-179.0","go-nogo","true","0","","true","<div class = centerbox><div  id = stim1></div></div>","32","32","750","","test","go","179","adv","","",""
"","329","32","1200","0","test_block","poldrack-single-stim","194","289961","0.0-5.0-180.0","go-nogo","true","0","","true","<div class = centerbox><div  id = stim1></div></div>","32","32","750","","test","go","180","adv","","",""
"","325","32","1008","0","test_block","poldrack-single-stim","195","291021","0.0-5.0-181.0","go-nogo","true","0","","true","<div class = centerbox><div  id = stim1></div></div>","32","32","750","","test","go","181","adv","","",""
"","412","32","1460","0","test_block","poldrack-single-stim","196","292528","0.0-5.0-182.0","go-nogo","true","0","","true","<div class = centerbox><div  id = stim1></div></div>","32","32","750","","test","go","182","adv","","",""
"","334","32","1183","0","test_block","poldrack-single-stim","197","293755","0.0-5.0-183.0","go-nogo","true","0","","true","<div class = centerbox><div  id = stim1></div></div>","32","32","750","","test","go","183","adv","","",""
"","389","32","1176","0","test_block","poldrack-single-stim","198","294980","0.0-5.0-184.0","go-nogo","true","0","","true","<div class = centerbox><div  id = stim1></div></div>","32","32","750","","test","go","184","adv","","",""
"","322","32","1009","0","test_block","poldrack-single-stim","199","296041","0.0-5.0-185.0","go-nogo","true","0","","true","<div class = centerbox><div  id = stim1></div></div>","32","32","750","","test","go","185","adv","","",""
"","319","32","1253","0","test_block","poldrack-single-stim","200","297343","0.0-5.0-186.0","go-nogo","true","0","","true","<div class = centerbox><div  id = stim1></div></div>","32","32","750","","test","go","186","adv","","",""
"","-1","-1","1078","0","test_block","poldrack-single-stim","201","298470","0.0-5.0-187.0","go-nogo","true","0","","true","<div class = centerbox><div  id = stim2></div></div>","-1","32","750","","test","nogo","187","adv","","",""
"","323","32","1062","0","test_block","poldrack-single-stim","202","299581","0.0-5.0-188.0","go-nogo","true","0","","true","<div class = centerbox><div  id = stim1></div></div>","32","32","750","","test","go","188","adv","","",""
"","340","32","1282","0","test_block","poldrack-single-stim","203","300912","0.0-5.0-189.0","go-nogo","true","0","","true","<div class = centerbox><div  id = stim1></div></div>","32","32","750","","test","go","189","adv","","",""
"","310","32","1328","0","test_block","poldrack-single-stim","204","302290","0.0-5.0-190.0","go-nogo","true","0","","true","<div class = centerbox><div  id = stim1></div></div>","32","32","750","","test","go","190","adv","","",""
"","295","32","1007","0","test_block","poldrack-single-stim","205","303336","0.0-5.0-191.0","go-nogo","true","0","","true","<div class = centerbox><div  id = stim1></div></div>","32","32","750","","test","go","191","adv","","",""
"","349","32","1182","0","test_block","poldrack-single-stim","206","304562","0.0-5.0-192.0","go-nogo","true","0","","true","<div class = centerbox><div  id = stim1></div></div>","32","32","750","","test","go","192","adv","","",""
"","459","32","1410","0","test_block","poldrack-single-stim","207","306016","0.0-5.0-193.0","go-nogo","true","0","","true","<div class = centerbox><div  id = stim1></div></div>","32","32","750","","test","go","193","adv","","",""
"","294","32","1037","0","test_block","poldrack-single-stim","208","307097","0.0-5.0-194.0","go-nogo","true","0","","true","<div class = centerbox><div  id = stim1></div></div>","32","32","750","","test","go","194","adv","","",""
"","361","32","1116","0","test_block","poldrack-single-stim","209","308261","0.0-5.0-195.0","go-nogo","true","0","","true","<div class = centerbox><div  id = stim1></div></div>","32","32","750","","test","go","195","adv","","",""
"","332","32","1229","0","test_block","poldrack-single-stim","210","309538","0.0-5.0-196.0","go-nogo","true","0","","true","<div class = centerbox><div  id = stim1></div></div>","32","32","750","","test","go","196","adv","","",""
"","315","32","1178","0","test_block","poldrack-single-stim","211","310761","0.0-5.0-197.0","go-nogo","true","0","","true","<div class = centerbox><div  id = stim1></div></div>","32","32","750","","test","go","197","adv","","",""
"","-1","-1","1320","0","test_block","poldrack-single-stim","212","312126","0.0-5.0-198.0","go-nogo","true","0","","true","<div class = centerbox><div  id = stim2></div></div>","-1","32","750","","test","nogo","198","adv","","",""
"","334","32","1295","0","test_block","poldrack-single-stim","213","313459","0.0-5.0-199.0","go-nogo","true","0","","true","<div class = centerbox><div  id = stim1></div></div>","32","32","750","","test","go","199","adv","","",""
"","295","32","1016","0","test_block","poldrack-single-stim","214","314521","0.0-5.0-200.0","go-nogo","true","0","","true","<div class = centerbox><div  id = stim1></div></div>","32","32","750","","test","go","200","adv","","",""
"","363","32","1067","0","test_block","poldrack-single-stim","215","315632","0.0-5.0-201.0","go-nogo","true","0","","true","<div class = centerbox><div  id = stim1></div></div>","32","32","750","","test","go","201","adv","","",""
"","373","32","1175","0","test_block","poldrack-single-stim","216","316851","0.0-5.0-202.0","go-nogo","true","0","","true","<div class = centerbox><div  id = stim1></div></div>","32","32","750","","test","go","202","adv","","",""
"","412","32","1312","0","test_block","poldrack-single-stim","217","318205","0.0-5.0-203.0","go-nogo","true","0","","true","<div class = centerbox><div  id = stim1></div></div>","32","32","750","","test","go","203","adv","","",""
"","362","32","1369","0","test_block","poldrack-single-stim","218","319615","0.0-5.0-204.0","go-nogo","true","0","","true","<div class = centerbox><div  id = stim1></div></div>","32","32","750","","test","go","204","adv","","",""
"","304","32","1223","0","test_block","poldrack-single-stim","219","320880","0.0-5.0-205.0","go-nogo","true","0","","true","<div class = centerbox><div  id = stim1></div></div>","32","32","750","","test","go","205","adv","","",""
"","316","32","1379","0","test_block","poldrack-single-stim","220","322304","0.0-5.0-206.0","go-nogo","true","0","","true","<div class = centerbox><div  id = stim1></div></div>","32","32","750","","test","go","206","adv","","",""
"","330","32","1251","0","test_block","poldrack-single-stim","221","323611","0.0-5.0-207.0","go-nogo","true","0","","true","<div class = centerbox><div  id = stim1></div></div>","32","32","750","","test","go","207","adv","","",""
"","328","32","1322","0","test_block","poldrack-single-stim","222","324979","0.0-5.0-208.0","go-nogo","true","0","","true","<div class = centerbox><div  id = stim1></div></div>","32","32","750","","test","go","208","adv","","",""
"","268","32","1218","0","test_block","poldrack-single-stim","223","326246","0.0-5.0-209.0","go-nogo","true","0","","false","<div class = centerbox><div  id = stim2></div></div>","-1","32","750","","test","nogo","209","adv","","",""
"","-1","-1","1137","0","test_block","poldrack-single-stim","224","327430","0.0-5.0-210.0","go-nogo","true","0","","true","<div class = centerbox><div  id = stim2></div></div>","-1","32","750","","test","nogo","210","adv","","",""
"","523","32","1297","0","test_block","poldrack-single-stim","225","328775","0.0-5.0-211.0","go-nogo","true","0","","true","<div class = centerbox><div  id = stim1></div></div>","32","32","750","","test","go","211","adv","","",""
"","285","32","1161","0","test_block","poldrack-single-stim","226","329980","0.0-5.0-212.0","go-nogo","true","0","","true","<div class = centerbox><div  id = stim1></div></div>","32","32","750","","test","go","212","adv","","",""
"","304","32","1092","0","test_block","poldrack-single-stim","227","331118","0.0-5.0-213.0","go-nogo","true","0","","true","<div class = centerbox><div  id = stim1></div></div>","32","32","750","","test","go","213","adv","","",""
"","-1","-1","1393","0","test_block","poldrack-single-stim","228","332552","0.0-5.0-214.0","go-nogo","true","0","","true","<div class = centerbox><div  id = stim2></div></div>","-1","32","750","","test","nogo","214","adv","","",""
"","340","32","1012","0","test_block","poldrack-single-stim","229","333609","0.0-5.0-215.0","go-nogo","true","0","","true","<div class = centerbox><div  id = stim1></div></div>","32","32","750","","test","go","215","adv","","",""
"","369","32","1165","0","test_block","poldrack-single-stim","230","334819","0.0-5.0-216.0","go-nogo","true","0","","true","<div class = centerbox><div  id = stim1></div></div>","32","32","750","","test","go","216","adv","","",""
"","315","32","1221","0","test_block","poldrack-single-stim","231","336083","0.0-5.0-217.0","go-nogo","true","0","","true","<div class = centerbox><div  id = stim1></div></div>","32","32","750","","test","go","217","adv","","",""
"","305","32","1168","0","test_block","poldrack-single-stim","232","337296","0.0-5.0-218.0","go-nogo","true","0","","true","<div class = centerbox><div  id = stim1></div></div>","32","32","750","","test","go","218","adv","","",""
"","358","32","1255","0","test_block","poldrack-single-stim","233","338604","0.0-5.0-219.0","go-nogo","true","0","","true","<div class = centerbox><div  id = stim1></div></div>","32","32","750","","test","go","219","adv","","",""
"","-1","-1","1345","0","test_block","poldrack-single-stim","234","340006","0.0-5.0-220.0","go-nogo","true","0","","true","<div class = centerbox><div  id = stim2></div></div>","-1","32","750","","test","nogo","220","adv","","",""
"","304","32","1414","0","test_block","poldrack-single-stim","235","341472","0.0-5.0-221.0","go-nogo","true","0","","true","<div class = centerbox><div  id = stim1></div></div>","32","32","750","","test","go","221","adv","","",""
"","361","32","1020","0","test_block","poldrack-single-stim","236","342541","0.0-5.0-222.0","go-nogo","true","0","","true","<div class = centerbox><div  id = stim1></div></div>","32","32","750","","test","go","222","adv","","",""
"","391","32","1133","0","test_block","poldrack-single-stim","237","343720","0.0-5.0-223.0","go-nogo","true","0","","true","<div class = centerbox><div  id = stim1></div></div>","32","32","750","","test","go","223","adv","","",""
"","288","32","1400","0","test_block","poldrack-single-stim","238","345169","0.0-5.0-224.0","go-nogo","true","0","","true","<div class = centerbox><div  id = stim1></div></div>","32","32","750","","test","go","224","adv","","",""
"","294","32","1208","0","test_block","poldrack-single-stim","239","346419","0.0-5.0-225.0","go-nogo","true","0","","true","<div class = centerbox><div  id = stim1></div></div>","32","32","750","","test","go","225","adv","","",""
"","299","32","1098","0","test_block","poldrack-single-stim","240","347568","0.0-5.0-226.0","go-nogo","true","0","","true","<div class = centerbox><div  id = stim1></div></div>","32","32","750","","test","go","226","adv","","",""
"","316","32","1383","0","test_block","poldrack-single-stim","241","348997","0.0-5.0-227.0","go-nogo","true","0","","true","<div class = centerbox><div  id = stim1></div></div>","32","32","750","","test","go","227","adv","","",""
"","337","32","1106","0","test_block","poldrack-single-stim","242","350154","0.0-5.0-228.0","go-nogo","true","0","","true","<div class = centerbox><div  id = stim1></div></div>","32","32","750","","test","go","228","adv","","",""
"","298","32","1168","0","test_block","poldrack-single-stim","243","351367","0.0-5.0-229.0","go-nogo","true","0","","true","<div class = centerbox><div  id = stim1></div></div>","32","32","750","","test","go","229","adv","","",""
"","-1","-1","1383","0","test_block","poldrack-single-stim","244","352799","0.0-5.0-230.0","go-nogo","true","0","","true","<div class = centerbox><div  id = stim2></div></div>","-1","32","750","","test","nogo","230","adv","","",""
"","377","32","1220","0","test_block","poldrack-single-stim","245","354069","0.0-5.0-231.0","go-nogo","true","0","","true","<div class = centerbox><div  id = stim1></div></div>","32","32","750","","test","go","231","adv","","",""
"","308","32","1399","0","test_block","poldrack-single-stim","246","355517","0.0-5.0-232.0","go-nogo","true","0","","true","<div class = centerbox><div  id = stim1></div></div>","32","32","750","","test","go","232","adv","","",""
"","331","32","1367","0","test_block","poldrack-single-stim","247","356934","0.0-5.0-233.0","go-nogo","true","0","","true","<div class = centerbox><div  id = stim1></div></div>","32","32","750","","test","go","233","adv","","",""
"","338","32","1037","0","test_block","poldrack-single-stim","248","358020","0.0-5.0-234.0","go-nogo","true","0","","true","<div class = centerbox><div  id = stim1></div></div>","32","32","750","","test","go","234","adv","","",""
"","1039","32","1413","0","test_block","poldrack-single-stim","249","359480","0.0-5.0-235.0","go-nogo","true","0","","true","<div class = centerbox><div  id = stim1></div></div>","32","32","750","","test","go","235","adv","","",""
"","10","32","1052","0","test_block","poldrack-single-stim","250","360580","0.0-5.0-236.0","go-nogo","true","0","","true","<div class = centerbox><div  id = stim1></div></div>","32","32","750","","test","go","236","adv","","",""
"","347","32","1148","0","test_block","poldrack-single-stim","251","361780","0.0-5.0-237.0","go-nogo","true","0","","true","<div class = centerbox><div  id = stim1></div></div>","32","32","750","","test","go","237","adv","","",""
"","289","32","1399","0","test_block","poldrack-single-stim","252","363224","0.0-5.0-238.0","go-nogo","true","0","","true","<div class = centerbox><div  id = stim1></div></div>","32","32","750","","test","go","238","adv","","",""
"","267","32","1059","0","test_block","poldrack-single-stim","253","364330","0.0-5.0-239.0","go-nogo","true","0","","true","<div class = centerbox><div  id = stim1></div></div>","32","32","750","","test","go","239","adv","","",""
"","330","32","1476","0","test_block","poldrack-single-stim","254","365845","0.0-5.0-240.0","go-nogo","true","0","","true","<div class = centerbox><div  id = stim1></div></div>","32","32","750","","test","go","240","adv","","",""
"","-1","-1","1273","0","test_block","poldrack-single-stim","255","367161","0.0-5.0-241.0","go-nogo","true","0","","true","<div class = centerbox><div  id = stim2></div></div>","-1","32","750","","test","nogo","241","adv","","",""
"","330","32","1036","0","test_block","poldrack-single-stim","256","368243","0.0-5.0-242.0","go-nogo","true","0","","true","<div class = centerbox><div  id = stim1></div></div>","32","32","750","","test","go","242","adv","","",""
"","411","32","1379","0","test_block","poldrack-single-stim","257","369667","0.0-5.0-243.0","go-nogo","true","0","","true","<div class = centerbox><div  id = stim1></div></div>","32","32","750","","test","go","243","adv","","",""
"","314","32","1189","0","test_block","poldrack-single-stim","258","370902","0.0-5.0-244.0","go-nogo","true","0","","true","<div class = centerbox><div  id = stim1></div></div>","32","32","750","","test","go","244","adv","","",""
"","314","32","1418","0","test_block","poldrack-single-stim","259","372369","0.0-5.0-245.0","go-nogo","true","0","","true","<div class = centerbox><div  id = stim1></div></div>","32","32","750","","test","go","245","adv","","",""
"","314","32","1348","0","test_block","poldrack-single-stim","260","373764","0.0-5.0-246.0","go-nogo","true","0","","true","<div class = centerbox><div  id = stim1></div></div>","32","32","750","","test","go","246","adv","","",""
"","320","32","1188","0","test_block","poldrack-single-stim","261","374997","0.0-5.0-247.0","go-nogo","true","0","","true","<div class = centerbox><div  id = stim1></div></div>","32","32","750","","test","go","247","adv","","",""
"","354","32","1389","0","test_block","poldrack-single-stim","262","376437","0.0-5.0-248.0","go-nogo","true","0","","true","<div class = centerbox><div  id = stim1></div></div>","32","32","750","","test","go","248","adv","","",""
"","276","32","1287","0","test_block","poldrack-single-stim","263","377797","0.0-5.0-249.0","go-nogo","true","0","","true","<div class = centerbox><div  id = stim1></div></div>","32","32","750","","test","go","249","adv","","",""
"","267","32","1034","0","test_block","poldrack-single-stim","264","378879","0.0-5.0-250.0","go-nogo","true","0","","true","<div class = centerbox><div  id = stim1></div></div>","32","32","750","","test","go","250","adv","","",""
"","311","32","1193","0","test_block","poldrack-single-stim","265","380124","0.0-5.0-251.0","go-nogo","true","0","","true","<div class = centerbox><div  id = stim1></div></div>","32","32","750","","test","go","251","adv","","",""
"","-1","-1","1091","0","test_block","poldrack-single-stim","266","381269","0.0-5.0-252.0","go-nogo","true","0","","true","<div class = centerbox><div  id = stim2></div></div>","-1","32","750","","test","nogo","252","adv","","",""
"","343","32","1139","0","test_block","poldrack-single-stim","267","382453","0.0-5.0-253.0","go-nogo","true","0","","true","<div class = centerbox><div  id = stim1></div></div>","32","32","750","","test","go","253","adv","","",""
"","311","32","1108","0","test_block","poldrack-single-stim","268","383614","0.0-5.0-254.0","go-nogo","true","0","","true","<div class = centerbox><div  id = stim1></div></div>","32","32","750","","test","go","254","adv","","",""
"","349","32","1484","0","test_block","poldrack-single-stim","269","385145","0.0-5.0-255.0","go-nogo","true","0","","true","<div class = centerbox><div  id = stim1></div></div>","32","32","750","","test","go","255","adv","","",""
"","299","32","1082","0","test_block","poldrack-single-stim","270","386273","0.0-5.0-256.0","go-nogo","true","0","","true","<div class = centerbox><div  id = stim1></div></div>","32","32","750","","test","go","256","adv","","",""
"","351","32","1445","0","test_block","poldrack-single-stim","271","387769","0.0-5.0-257.0","go-nogo","true","0","","true","<div class = centerbox><div  id = stim1></div></div>","32","32","750","","test","go","257","adv","","",""
"","368","32","1411","0","test_block","poldrack-single-stim","272","389228","0.0-5.0-258.0","go-nogo","true","0","","true","<div class = centerbox><div  id = stim1></div></div>","32","32","750","","test","go","258","adv","","",""
"","313","32","1497","0","test_block","poldrack-single-stim","273","390771","0.0-5.0-259.0","go-nogo","true","0","","true","<div class = centerbox><div  id = stim1></div></div>","32","32","750","","test","go","259","adv","","",""
"","366","32","1331","0","test_block","poldrack-single-stim","274","392149","0.0-5.0-260.0","go-nogo","true","0","","true","<div class = centerbox><div  id = stim1></div></div>","32","32","750","","test","go","260","adv","","",""
"","300","32","1166","0","test_block","poldrack-single-stim","275","393364","0.0-5.0-261.0","go-nogo","true","0","","true","<div class = centerbox><div  id = stim1></div></div>","32","32","750","","test","go","261","adv","","",""
"","331","32","1280","0","test_block","poldrack-single-stim","276","394696","0.0-5.0-262.0","go-nogo","true","0","","true","<div class = centerbox><div  id = stim1></div></div>","32","32","750","","test","go","262","adv","","",""
"","289","32","1376","0","test_block","poldrack-single-stim","277","396120","0.0-5.0-263.0","go-nogo","true","0","","true","<div class = centerbox><div  id = stim1></div></div>","32","32","750","","test","go","263","adv","","",""
"","-1","-1","1228","0","test_block","poldrack-single-stim","278","397404","0.0-5.0-264.0","go-nogo","true","0","","true","<div class = centerbox><div  id = stim2></div></div>","-1","32","750","","test","nogo","264","adv","","",""
"","380","32","1121","0","test_block","poldrack-single-stim","279","398575","0.0-5.0-265.0","go-nogo","true","0","","true","<div class = centerbox><div  id = stim1></div></div>","32","32","750","","test","go","265","adv","","",""
"","310","32","1211","0","test_block","poldrack-single-stim","280","399831","0.0-5.0-266.0","go-nogo","true","0","","true","<div class = centerbox><div  id = stim1></div></div>","32","32","750","","test","go","266","adv","","",""
"","372","32","1379","0","test_block","poldrack-single-stim","281","401257","0.0-5.0-267.0","go-nogo","true","0","","true","<div class = centerbox><div  id = stim1></div></div>","32","32","750","","test","go","267","adv","","",""
"","305","32","1168","0","test_block","poldrack-single-stim","282","402472","0.0-5.0-268.0","go-nogo","true","0","","true","<div class = centerbox><div  id = stim1></div></div>","32","32","750","","test","go","268","adv","","",""
"","287","32","1064","0","test_block","poldrack-single-stim","283","403587","0.0-5.0-269.0","go-nogo","true","0","","true","<div class = centerbox><div  id = stim1></div></div>","32","32","750","","test","go","269","adv","","",""
"","314","32","1253","0","test_block","poldrack-single-stim","284","404893","0.0-5.0-270.0","go-nogo","true","0","","true","<div class = centerbox><div  id = stim1></div></div>","32","32","750","","test","go","270","adv","","",""
"","445","32","1361","0","test_block","poldrack-single-stim","285","406302","0.0-5.0-271.0","go-nogo","true","0","","true","<div class = centerbox><div  id = stim1></div></div>","32","32","750","","test","go","271","adv","","",""
"","271","32","1041","0","test_block","poldrack-single-stim","286","407396","0.0-5.0-272.0","go-nogo","true","0","","true","<div class = centerbox><div  id = stim1></div></div>","32","32","750","","test","go","272","adv","","",""
"","291","32","1166","0","test_block","poldrack-single-stim","287","408613","0.0-5.0-273.0","go-nogo","true","0","","true","<div class = centerbox><div  id = stim1></div></div>","32","32","750","","test","go","273","adv","","",""
"","343","32","1315","0","test_block","poldrack-single-stim","288","409979","0.0-5.0-274.0","go-nogo","true","0","","true","<div class = centerbox><div  id = stim1></div></div>","32","32","750","","test","go","274","adv","","",""
"","287","32","1361","0","test_block","poldrack-single-stim","289","411388","0.0-5.0-275.0","go-nogo","true","0","","true","<div class = centerbox><div  id = stim1></div></div>","32","32","750","","test","go","275","adv","","",""
"","301","32","1483","0","test_block","poldrack-single-stim","290","412920","0.0-5.0-276.0","go-nogo","true","0","","true","<div class = centerbox><div  id = stim1></div></div>","32","32","750","","test","go","276","adv","","",""
"","294","32","1067","0","test_block","poldrack-single-stim","291","414030","0.0-5.0-277.0","go-nogo","true","0","","false","<div class = centerbox><div  id = stim2></div></div>","-1","32","750","","test","nogo","277","adv","","",""
"","364","32","1089","0","test_block","poldrack-single-stim","292","415167","0.0-5.0-278.0","go-nogo","true","0","","true","<div class = centerbox><div  id = stim1></div></div>","32","32","750","","test","go","278","adv","","",""
"","310","32","1127","0","test_block","poldrack-single-stim","293","416347","0.0-5.0-279.0","go-nogo","true","0","","true","<div class = centerbox><div  id = stim1></div></div>","32","32","750","","test","go","279","adv","","",""
"","293","32","1452","0","test_block","poldrack-single-stim","294","417850","0.0-5.0-280.0","go-nogo","true","0","","false","<div class = centerbox><div  id = stim2></div></div>","-1","32","750","","test","nogo","280","adv","","",""
"","301","32","1059","0","test_block","poldrack-single-stim","295","418959","0.0-5.0-281.0","go-nogo","true","0","","false","<div class = centerbox><div  id = stim2></div></div>","-1","32","750","","test","nogo","281","adv","","",""
"","-1","-1","1379","0","test_block","poldrack-single-stim","296","420384","0.0-5.0-282.0","go-nogo","true","0","","true","<div class = centerbox><div  id = stim2></div></div>","-1","32","750","","test","nogo","282","adv","","",""
"","276","32","1235","0","test_block","poldrack-single-stim","297","421665","0.0-5.0-283.0","go-nogo","true","0","","true","<div class = centerbox><div  id = stim1></div></div>","32","32","750","","test","go","283","adv","","",""
"","301","32","1082","0","test_block","poldrack-single-stim","298","422799","0.0-5.0-284.0","go-nogo","true","0","","true","<div class = centerbox><div  id = stim1></div></div>","32","32","750","","test","go","284","adv","","",""
"","-1","-1","1005","0","test_block","poldrack-single-stim","299","423854","0.0-5.0-285.0","go-nogo","true","0","","true","<div class = centerbox><div  id = stim2></div></div>","-1","32","750","","test","nogo","285","adv","","",""
"","346","32","1009","0","test_block","poldrack-single-stim","300","424913","0.0-5.0-286.0","go-nogo","true","0","","true","<div class = centerbox><div  id = stim1></div></div>","32","32","750","","test","go","286","adv","","",""
"","387","32","1253","0","test_block","poldrack-single-stim","301","426211","0.0-5.0-287.0","go-nogo","true","0","","true","<div class = centerbox><div  id = stim1></div></div>","32","32","750","","test","go","287","adv","","",""
"","300","32","1421","0","test_block","poldrack-single-stim","302","427674","0.0-5.0-288.0","go-nogo","true","0","","false","<div class = centerbox><div  id = stim2></div></div>","-1","32","750","","test","nogo","288","adv","","",""
"","316","32","1156","0","test_block","poldrack-single-stim","303","428874","0.0-5.0-289.0","go-nogo","true","0","","true","<div class = centerbox><div  id = stim1></div></div>","32","32","750","","test","go","289","adv","","",""
"","299","32","1375","0","test_block","poldrack-single-stim","304","430294","0.0-5.0-290.0","go-nogo","true","0","","true","<div class = centerbox><div  id = stim1></div></div>","32","32","750","","test","go","290","adv","","",""
"","-1","-1","1456","0","test_block","poldrack-single-stim","305","431795","0.0-5.0-291.0","go-nogo","true","0","","true","<div class = centerbox><div  id = stim2></div></div>","-1","32","750","","test","nogo","291","adv","","",""
"","290","32","1347","0","test_block","poldrack-single-stim","306","433186","0.0-5.0-292.0","go-nogo","true","0","","true","<div class = centerbox><div  id = stim1></div></div>","32","32","750","","test","go","292","adv","","",""
"","368","32","1283","0","test_block","poldrack-single-stim","307","434517","0.0-5.0-293.0","go-nogo","true","0","","true","<div class = centerbox><div  id = stim1></div></div>","32","32","750","","test","go","293","adv","","",""
"","-1","-1","1226","0","test_block","poldrack-single-stim","308","435795","0.0-5.0-294.0","go-nogo","true","0","","true","<div class = centerbox><div  id = stim2></div></div>","-1","32","750","","test","nogo","294","adv","","",""
"","376","32","1078","0","test_block","poldrack-single-stim","309","436928","0.0-5.0-295.0","go-nogo","true","0","","true","<div class = centerbox><div  id = stim1></div></div>","32","32","750","","test","go","295","adv","","",""
"","362","32","1350","0","test_block","poldrack-single-stim","310","438333","0.0-5.0-296.0","go-nogo","true","0","","true","<div class = centerbox><div  id = stim1></div></div>","32","32","750","","test","go","296","adv","","",""
"","320","32","1458","0","test_block","poldrack-single-stim","311","439844","0.0-5.0-297.0","go-nogo","true","0","","true","<div class = centerbox><div  id = stim1></div></div>","32","32","750","","test","go","297","adv","","",""
"","-1","-1","1081","0","test_block","poldrack-single-stim","312","440976","0.0-5.0-298.0","go-nogo","true","0","","true","<div class = centerbox><div  id = stim2></div></div>","-1","32","750","","test","nogo","298","adv","","",""
"","356","32","1168","0","test_block","poldrack-single-stim","313","442197","0.0-5.0-299.0","go-nogo","true","0","","true","<div class = centerbox><div  id = stim1></div></div>","32","32","750","","test","go","299","adv","","",""
"","307","32","1037","0","test_block","poldrack-single-stim","314","443284","0.0-5.0-300.0","go-nogo","true","0","","true","<div class = centerbox><div  id = stim1></div></div>","32","32","750","","test","go","300","adv","","",""
"","376","32","1418","0","test_block","poldrack-single-stim","315","444756","0.0-5.0-301.0","go-nogo","true","0","","true","<div class = centerbox><div  id = stim1></div></div>","32","32","750","","test","go","301","adv","","",""
"","334","32","1327","0","test_block","poldrack-single-stim","316","446131","0.0-5.0-302.0","go-nogo","true","0","","true","<div class = centerbox><div  id = stim1></div></div>","32","32","750","","test","go","302","adv","","",""
"","309","32","1257","0","test_block","poldrack-single-stim","317","447429","0.0-5.0-303.0","go-nogo","true","0","","true","<div class = centerbox><div  id = stim1></div></div>","32","32","750","","test","go","303","adv","","",""
"","343","32","1477","0","test_block","poldrack-single-stim","318","448953","0.0-5.0-304.0","go-nogo","true","0","","true","<div class = centerbox><div  id = stim1></div></div>","32","32","750","","test","go","304","adv","","",""
"","-1","-1","1143","0","test_block","poldrack-single-stim","319","450143","0.0-5.0-305.0","go-nogo","true","0","","true","<div class = centerbox><div  id = stim2></div></div>","-1","32","750","","test","nogo","305","adv","","",""
"","437","32","1294","0","test_block","poldrack-single-stim","320","451484","0.0-5.0-306.0","go-nogo","true","0","","true","<div class = centerbox><div  id = stim1></div></div>","32","32","750","","test","go","306","adv","","",""
"","343","32","1238","0","test_block","poldrack-single-stim","321","452770","0.0-5.0-307.0","go-nogo","true","0","","true","<div class = centerbox><div  id = stim1></div></div>","32","32","750","","test","go","307","adv","","",""
"","316","32","1315","0","test_block","poldrack-single-stim","322","454138","0.0-5.0-308.0","go-nogo","true","0","","true","<div class = centerbox><div  id = stim1></div></div>","32","32","750","","test","go","308","adv","","",""
"","328","32","1021","0","test_block","poldrack-single-stim","323","455211","0.0-5.0-309.0","go-nogo","true","0","","true","<div class = centerbox><div  id = stim1></div></div>","32","32","750","","test","go","309","adv","","",""
"","478","32","1479","0","test_block","poldrack-single-stim","324","456738","0.0-5.0-310.0","go-nogo","true","0","","true","<div class = centerbox><div  id = stim1></div></div>","32","32","750","","test","go","310","adv","","",""
"","302","32","1460","0","test_block","poldrack-single-stim","325","458248","0.0-5.0-311.0","go-nogo","true","0","","true","<div class = centerbox><div  id = stim1></div></div>","32","32","750","","test","go","311","adv","","",""
"","305","32","1443","0","test_block","poldrack-single-stim","326","459739","0.0-5.0-312.0","go-nogo","true","0","","true","<div class = centerbox><div  id = stim1></div></div>","32","32","750","","test","go","312","adv","","",""
"","315","32","1112","0","test_block","poldrack-single-stim","327","460902","0.0-5.0-313.0","go-nogo","true","0","","true","<div class = centerbox><div  id = stim1></div></div>","32","32","750","","test","go","313","adv","","",""
"","344","32","1040","0","test_block","poldrack-single-stim","328","461994","0.0-5.0-314.0","go-nogo","true","0","","true","<div class = centerbox><div  id = stim1></div></div>","32","32","750","","test","go","314","adv","","",""
"","348","32","1258","0","test_block","poldrack-single-stim","329","463312","0.0-5.0-315.0","go-nogo","true","0","","true","<div class = centerbox><div  id = stim1></div></div>","32","32","750","","test","go","315","adv","","",""
"","295","32","1363","0","test_block","poldrack-single-stim","330","464725","0.0-5.0-316.0","go-nogo","true","0","","true","<div class = centerbox><div  id = stim1></div></div>","32","32","750","","test","go","316","adv","","",""
"","288","32","1286","0","test_block","poldrack-single-stim","331","466064","0.0-5.0-317.0","go-nogo","true","0","","true","<div class = centerbox><div  id = stim1></div></div>","32","32","750","","test","go","317","adv","","",""
"","298","32","1426","0","test_block","poldrack-single-stim","332","467538","0.0-5.0-318.0","go-nogo","true","0","","true","<div class = centerbox><div  id = stim1></div></div>","32","32","750","","test","go","318","adv","","",""
"","265","32","1199","0","test_block","poldrack-single-stim","333","468783","0.0-5.0-319.0","go-nogo","true","0","","true","<div class = centerbox><div  id = stim1></div></div>","32","32","750","","test","go","319","adv","","",""
"","285","32","1373","0","test_block","poldrack-single-stim","334","470202","0.0-5.0-320.0","go-nogo","true","0","","true","<div class = centerbox><div  id = stim1></div></div>","32","32","750","","test","go","320","adv","","",""
"","318","32","1086","0","test_block","poldrack-single-stim","335","471337","0.0-5.0-321.0","go-nogo","true","0","","true","<div class = centerbox><div  id = stim1></div></div>","32","32","750","","test","go","321","adv","","",""
"","311","32","1170","0","test_block","poldrack-single-stim","336","472557","0.0-5.0-322.0","go-nogo","true","0","","true","<div class = centerbox><div  id = stim1></div></div>","32","32","750","","test","go","322","adv","","",""
"","326","32","1212","0","test_block","poldrack-single-stim","337","473815","0.0-5.0-323.0","go-nogo","true","0","","true","<div class = centerbox><div  id = stim1></div></div>","32","32","750","","test","go","323","adv","","",""
"","297","32","1315","0","test_block","poldrack-single-stim","338","475156","0.0-5.0-324.0","go-nogo","true","0","","false","<div class = centerbox><div  id = stim2></div></div>","-1","32","750","","test","nogo","324","adv","","",""
"","320","32","1269","0","test_block","poldrack-single-stim","339","476470","0.0-5.0-325.0","go-nogo","true","0","","true","<div class = centerbox><div  id = stim1></div></div>","32","32","750","","test","go","325","adv","","",""
"","373","32","1182","0","test_block","poldrack-single-stim","340","477699","0.0-5.0-326.0","go-nogo","true","0","","true","<div class = centerbox><div  id = stim1></div></div>","32","32","750","","test","go","326","adv","","",""
"","-1","-1","1318","0","test_block","poldrack-single-stim","341","479048","0.0-5.0-327.0","go-nogo","true","0","","true","<div class = centerbox><div  id = stim2></div></div>","-1","32","750","","test","nogo","327","adv","","",""
"","334","32","1077","0","test_block","poldrack-single-stim","342","480167","0.0-5.0-328.0","go-nogo","true","0","","true","<div class = centerbox><div  id = stim1></div></div>","32","32","750","","test","go","328","adv","","",""
"","516","32","1214","0","test_block","poldrack-single-stim","343","481435","0.0-5.0-329.0","go-nogo","true","0","","true","<div class = centerbox><div  id = stim1></div></div>","32","32","750","","test","go","329","adv","","",""
"","-1","-1","1427","0","test_block","poldrack-single-stim","344","482910","0.0-5.0-330.0","go-nogo","true","0","","true","<div class = centerbox><div  id = stim2></div></div>","-1","32","750","","test","nogo","330","adv","","",""
"","323","32","1261","0","test_block","poldrack-single-stim","345","484218","0.0-5.0-331.0","go-nogo","true","0","","true","<div class = centerbox><div  id = stim1></div></div>","32","32","750","","test","go","331","adv","","",""
"","355","32","1005","0","test_block","poldrack-single-stim","346","485275","0.0-5.0-332.0","go-nogo","true","0","","true","<div class = centerbox><div  id = stim1></div></div>","32","32","750","","test","go","332","adv","","",""
"","313","32","1040","0","test_block","poldrack-single-stim","347","486361","0.0-5.0-333.0","go-nogo","true","0","","true","<div class = centerbox><div  id = stim1></div></div>","32","32","750","","test","go","333","adv","","",""
"","358","32","1069","0","test_block","poldrack-single-stim","348","487480","0.0-5.0-334.0","go-nogo","true","0","","true","<div class = centerbox><div  id = stim1></div></div>","32","32","750","","test","go","334","adv","","",""
"","-1","-1","1262","0","test_block","poldrack-single-stim","349","488785","0.0-5.0-335.0","go-nogo","true","0","","true","<div class = centerbox><div  id = stim2></div></div>","-1","32","750","","test","nogo","335","adv","","",""
"","334","32","1149","0","test_block","poldrack-single-stim","350","489976","0.0-5.0-336.0","go-nogo","true","0","","true","<div class = centerbox><div  id = stim1></div></div>","32","32","750","","test","go","336","adv","","",""
"","314","32","1032","0","test_block","poldrack-single-stim","351","491039","0.0-5.0-337.0","go-nogo","true","0","","true","<div class = centerbox><div  id = stim1></div></div>","32","32","750","","test","go","337","adv","","",""
"","376","32","1369","0","test_block","poldrack-single-stim","352","492458","0.0-5.0-338.0","go-nogo","true","0","","true","<div class = centerbox><div  id = stim1></div></div>","32","32","750","","test","go","338","adv","","",""
"","324","32","1441","0","test_block","poldrack-single-stim","353","493942","0.0-5.0-339.0","go-nogo","true","0","","true","<div class = centerbox><div  id = stim1></div></div>","32","32","750","","test","go","339","adv","","",""
"","279","32","1170","0","test_block","poldrack-single-stim","354","495157","0.0-5.0-340.0","go-nogo","true","0","","true","<div class = centerbox><div  id = stim1></div></div>","32","32","750","","test","go","340","adv","","",""
"","332","32","1167","0","test_block","poldrack-single-stim","355","496380","0.0-5.0-341.0","go-nogo","true","0","","true","<div class = centerbox><div  id = stim1></div></div>","32","32","750","","test","go","341","adv","","",""
"","385","32","1488","0","test_block","poldrack-single-stim","356","497913","0.0-5.0-342.0","go-nogo","true","0","","true","<div class = centerbox><div  id = stim1></div></div>","32","32","750","","test","go","342","adv","","",""
"","330","32","1457","0","test_block","poldrack-single-stim","357","499417","0.0-5.0-343.0","go-nogo","true","0","","true","<div class = centerbox><div  id = stim1></div></div>","32","32","750","","test","go","343","adv","","",""
"","329","32","1031","0","test_block","poldrack-single-stim","358","500495","0.0-5.0-344.0","go-nogo","true","0","","true","<div class = centerbox><div  id = stim1></div></div>","32","32","750","","test","go","344","adv","","",""
"","342","32","1248","0","test_block","poldrack-single-stim","359","501788","0.0-5.0-345.0","go-nogo","true","0","","true","<div class = centerbox><div  id = stim1></div></div>","32","32","750","","test","go","345","adv","","",""
"","310","32","1121","0","test_block","poldrack-single-stim","360","502957","0.0-5.0-346.0","go-nogo","true","0","","true","<div class = centerbox><div  id = stim1></div></div>","32","32","750","","test","go","346","adv","","",""
"","341","32","1277","0","test_block","poldrack-single-stim","361","504281","0.0-5.0-347.0","go-nogo","true","0","","true","<div class = centerbox><div  id = stim1></div></div>","32","32","750","","test","go","347","adv","","",""
"","317","32","1004","0","test_block","poldrack-single-stim","362","505335","0.0-5.0-348.0","go-nogo","true","0","","true","<div class = centerbox><div  id = stim1></div></div>","32","32","750","","test","go","348","adv","","",""
"","-1","-1","1307","0","test_block","poldrack-single-stim","363","506687","0.0-5.0-349.0","go-nogo","true","0","","true","<div class = centerbox><div  id = stim2></div></div>","-1","32","750","","test","nogo","349","adv","","",""
"","57460","","","","post task questions","survey-text","364","564201","0.0-7.0","go-nogo","true","2","","","","","","","","","","","","{""Q0"":""I was asked to press the space bar when I saw a yellow box and nothing when a blue box."",""Q1"":""That was difficult. I tried and ended up hitting the space bar multiple times for the blue boxes. Very difficult to connect my brain and my finger!""}","",""
"<div class = centerbox><p class = center-block-text>Thanks for completing this task!</p><p class = center-block-text>Insert the following code to collect your payment at Amazon Mechanical Turk:</p><p class = center-block-text>668772317</p><p class = center-block-text>Press <strong>enter</strong> to continue.</p></div>","13852","13","13852","0","end","poldrack-text","365","579055","0.0-8.0","go-nogo","true","1","","","","","","","","","","","","","668772317","true"
