"text","rt","key_press","block_duration","timing_post_trial","trial_id","trial_type","trial_index","time_elapsed","internal_node_id","exp_id","full_screen","focus_shifts","view_history","correct","stimulus","correct_response","possible_responses","stim_duration","feedback_duration","exp_stage","condition","trial_num","mode","responses","payment_id","credit_var"
"<div class = centerbox><p class = center-block-text>Welcome to the experiment. This task will take around 10 minutes. Press <strong>enter</strong> to begin.</p></div>","6274","13","6274","0","instruction","poldrack-text","0","6276","0.0-0.0-0.0","go-nogo","true","0","","","","","","","","","","","","","",""
"","15620","","","","instruction","poldrack-instructions","1","21897","0.0-0.0-1.0","go-nogo","true","0","[{""page_index"":0,""viewing_time"":15619}]","","","","","","","","","","","","",""
"","-1","-1","1452","250","practice","poldrack-categorize","2","25363","0.0-1.0-0.0","go-nogo","true","0","","true","<div class = centerbox><div id = stim2></div></div>","-1","32","750","1000","practice","nogo","0","adv","","",""
"","-1","-1","1131","250","practice","poldrack-categorize","3","27753","0.0-1.0-1.0","go-nogo","true","0","","true","<div class = centerbox><div id = stim2></div></div>","-1","32","750","1000","practice","nogo","1","adv","","",""
"","-1","-1","1067","250","practice","poldrack-categorize","4","30085","0.0-1.0-2.0","go-nogo","true","0","","true","<div class = centerbox><div id = stim2></div></div>","-1","32","750","1000","practice","nogo","2","adv","","",""
"","801","32","1180","250","practice","poldrack-categorize","5","32520","0.0-1.0-3.0","go-nogo","true","0","","true","<div class = centerbox><div  id = stim1></div></div>","32","32","750","1000","practice","go","3","adv","","",""
"","-1","-1","1001","250","practice","poldrack-categorize","6","34776","0.0-1.0-4.0","go-nogo","true","0","","true","<div class = centerbox><div id = stim2></div></div>","-1","32","750","1000","practice","nogo","4","adv","","",""
"","-1","-1","1036","250","practice","poldrack-categorize","7","37067","0.0-1.0-5.0","go-nogo","true","0","","false","<div class = centerbox><div  id = stim1></div></div>","32","32","750","1000","practice","go","5","adv","","",""
"","540","32","1154","250","practice","poldrack-categorize","8","39475","0.0-1.0-6.0","go-nogo","true","0","","true","<div class = centerbox><div  id = stim1></div></div>","32","32","750","1000","practice","go","6","adv","","",""
"","-1","-1","1467","250","practice","poldrack-categorize","9","42196","0.0-1.0-7.0","go-nogo","true","0","","false","<div class = centerbox><div  id = stim1></div></div>","32","32","750","1000","practice","go","7","adv","","",""
"","-1","-1","1279","250","practice","poldrack-categorize","10","44730","0.0-1.0-8.0","go-nogo","true","0","","true","<div class = centerbox><div id = stim2></div></div>","-1","32","750","1000","practice","nogo","8","adv","","",""
"","628","32","1234","250","practice","poldrack-categorize","11","47217","0.0-1.0-9.0","go-nogo","true","0","","true","<div class = centerbox><div  id = stim1></div></div>","32","32","750","1000","practice","go","9","adv","","",""
"","","","","","reset_trial","call-function","12","47468","0.0-3.0","go-nogo","true","0","","","","","","","","","","","","","",""
"<div class = centerbox><p class = block-text>Practice is over, we will now begin the experiment. You will no longer get feedback about your responses.</p><p class = block-text>Remember, if you see the <font color=""orange"">orange</font> square you should <strong> respond by pressing the spacebar as quickly as possible</strong>. If you see the <font color=""blue"">blue</font> square you should <strong> not respond</strong>. Press <strong>enter</strong> to begin.</p></div>","3788","13","3788","1000","test_intro","poldrack-text","13","51257","0.0-4.0","go-nogo","true","0","","","","","","","","","","","","","",""
"","-1","-1","1250","0","test_block","poldrack-single-stim","14","53513","0.0-5.0-0.0","go-nogo","true","0","","false","<div class = centerbox><div  id = stim1></div></div>","32","32","750","","test","go","0","adv","","",""
"","745","32","1262","0","test_block","poldrack-single-stim","15","54834","0.0-5.0-1.0","go-nogo","true","0","","true","<div class = centerbox><div  id = stim1></div></div>","32","32","750","","test","go","1","adv","","",""
"","-1","-1","1164","0","test_block","poldrack-single-stim","16","56043","0.0-5.0-2.0","go-nogo","true","0","","true","<div class = centerbox><div  id = stim2></div></div>","-1","32","750","","test","nogo","2","adv","","",""
"","560","32","1484","0","test_block","poldrack-single-stim","17","57576","0.0-5.0-3.0","go-nogo","true","0","","true","<div class = centerbox><div  id = stim1></div></div>","32","32","750","","test","go","3","adv","","",""
"","722","32","1486","0","test_block","poldrack-single-stim","18","59113","0.0-5.0-4.0","go-nogo","true","0","","true","<div class = centerbox><div  id = stim1></div></div>","32","32","750","","test","go","4","adv","","",""
"","449","32","1364","0","test_block","poldrack-single-stim","19","60527","0.0-5.0-5.0","go-nogo","true","0","","true","<div class = centerbox><div  id = stim1></div></div>","32","32","750","","test","go","5","adv","","",""
"","387","32","1384","0","test_block","poldrack-single-stim","20","61954","0.0-5.0-6.0","go-nogo","true","0","","true","<div class = centerbox><div  id = stim1></div></div>","32","32","750","","test","go","6","adv","","",""
"","569","32","1170","0","test_block","poldrack-single-stim","21","63174","0.0-5.0-7.0","go-nogo","true","0","","true","<div class = centerbox><div  id = stim1></div></div>","32","32","750","","test","go","7","adv","","",""
"","1080","32","1493","0","test_block","poldrack-single-stim","22","64705","0.0-5.0-8.0","go-nogo","true","0","","true","<div class = centerbox><div  id = stim1></div></div>","32","32","750","","test","go","8","adv","","",""
"","331","32","1047","0","test_block","poldrack-single-stim","23","65792","0.0-5.0-9.0","go-nogo","true","0","","true","<div class = centerbox><div  id = stim1></div></div>","32","32","750","","test","go","9","adv","","",""
"","289","32","1485","0","test_block","poldrack-single-stim","24","67327","0.0-5.0-10.0","go-nogo","true","0","","true","<div class = centerbox><div  id = stim1></div></div>","32","32","750","","test","go","10","adv","","",""
"","541","32","1471","0","test_block","poldrack-single-stim","25","68853","0.0-5.0-11.0","go-nogo","true","0","","true","<div class = centerbox><div  id = stim1></div></div>","32","32","750","","test","go","11","adv","","",""
"","303","32","1229","0","test_block","poldrack-single-stim","26","70121","0.0-5.0-12.0","go-nogo","true","0","","true","<div class = centerbox><div  id = stim1></div></div>","32","32","750","","test","go","12","adv","","",""
"","724","32","1464","0","test_block","poldrack-single-stim","27","71639","0.0-5.0-13.0","go-nogo","true","0","","true","<div class = centerbox><div  id = stim1></div></div>","32","32","750","","test","go","13","adv","","",""
"","786","32","1185","0","test_block","poldrack-single-stim","28","72866","0.0-5.0-14.0","go-nogo","true","0","","true","<div class = centerbox><div  id = stim1></div></div>","32","32","750","","test","go","14","adv","","",""
"","-1","-1","1322","0","test_block","poldrack-single-stim","29","74234","0.0-5.0-15.0","go-nogo","true","0","","false","<div class = centerbox><div  id = stim1></div></div>","32","32","750","","test","go","15","adv","","",""
"","-1","-1","1321","0","test_block","poldrack-single-stim","30","75582","0.0-5.0-16.0","go-nogo","true","0","","false","<div class = centerbox><div  id = stim1></div></div>","32","32","750","","test","go","16","adv","","",""
"","-1","-1","1364","0","test_block","poldrack-single-stim","31","76976","0.0-5.0-17.0","go-nogo","true","0","","false","<div class = centerbox><div  id = stim1></div></div>","32","32","750","","test","go","17","adv","","",""
"","814","32","1403","0","test_block","poldrack-single-stim","32","78416","0.0-5.0-18.0","go-nogo","true","0","","true","<div class = centerbox><div  id = stim1></div></div>","32","32","750","","test","go","18","adv","","",""
"","-1","-1","1268","0","test_block","poldrack-single-stim","33","79718","0.0-5.0-19.0","go-nogo","true","0","","true","<div class = centerbox><div  id = stim2></div></div>","-1","32","750","","test","nogo","19","adv","","",""
"","981","32","1213","0","test_block","poldrack-single-stim","34","80971","0.0-5.0-20.0","go-nogo","true","0","","true","<div class = centerbox><div  id = stim1></div></div>","32","32","750","","test","go","20","adv","","",""
"","-1","-1","1143","0","test_block","poldrack-single-stim","35","82153","0.0-5.0-21.0","go-nogo","true","0","","true","<div class = centerbox><div  id = stim2></div></div>","-1","32","750","","test","nogo","21","adv","","",""
"","267","32","1092","0","test_block","poldrack-single-stim","36","83284","0.0-5.0-22.0","go-nogo","true","0","","true","<div class = centerbox><div  id = stim1></div></div>","32","32","750","","test","go","22","adv","","",""
"","320","32","1328","0","test_block","poldrack-single-stim","37","84651","0.0-5.0-23.0","go-nogo","true","0","","true","<div class = centerbox><div  id = stim1></div></div>","32","32","750","","test","go","23","adv","","",""
"","292","32","1341","0","test_block","poldrack-single-stim","38","86028","0.0-5.0-24.0","go-nogo","true","0","","true","<div class = centerbox><div  id = stim1></div></div>","32","32","750","","test","go","24","adv","","",""
"","248","32","1021","0","test_block","poldrack-single-stim","39","87087","0.0-5.0-25.0","go-nogo","true","0","","true","<div class = centerbox><div  id = stim1></div></div>","32","32","750","","test","go","25","adv","","",""
"","315","32","1058","0","test_block","poldrack-single-stim","40","88186","0.0-5.0-26.0","go-nogo","true","0","","true","<div class = centerbox><div  id = stim1></div></div>","32","32","750","","test","go","26","adv","","",""
"","354","32","1185","0","test_block","poldrack-single-stim","41","89410","0.0-5.0-27.0","go-nogo","true","0","","true","<div class = centerbox><div  id = stim1></div></div>","32","32","750","","test","go","27","adv","","",""
"","368","32","1350","0","test_block","poldrack-single-stim","42","90809","0.0-5.0-28.0","go-nogo","true","0","","true","<div class = centerbox><div  id = stim1></div></div>","32","32","750","","test","go","28","adv","","",""
"","333","32","1226","0","test_block","poldrack-single-stim","43","92080","0.0-5.0-29.0","go-nogo","true","0","","true","<div class = centerbox><div  id = stim1></div></div>","32","32","750","","test","go","29","adv","","",""
"","344","32","1150","0","test_block","poldrack-single-stim","44","93266","0.0-5.0-30.0","go-nogo","true","0","","true","<div class = centerbox><div  id = stim1></div></div>","32","32","750","","test","go","30","adv","","",""
"","-1","-1","1187","0","test_block","poldrack-single-stim","45","94491","0.0-5.0-31.0","go-nogo","true","0","","false","<div class = centerbox><div  id = stim1></div></div>","32","32","750","","test","go","31","adv","","",""
"","1","32","1359","0","test_block","poldrack-single-stim","46","95889","0.0-5.0-32.0","go-nogo","true","0","","true","<div class = centerbox><div  id = stim1></div></div>","32","32","750","","test","go","32","adv","","",""
"","224","32","1418","0","test_block","poldrack-single-stim","47","97340","0.0-5.0-33.0","go-nogo","true","0","","true","<div class = centerbox><div  id = stim1></div></div>","32","32","750","","test","go","33","adv","","",""
"","-1","-1","1086","0","test_block","poldrack-single-stim","48","98464","0.0-5.0-34.0","go-nogo","true","0","","false","<div class = centerbox><div  id = stim1></div></div>","32","32","750","","test","go","34","adv","","",""
"","550","32","1185","0","test_block","poldrack-single-stim","49","99703","0.0-5.0-35.0","go-nogo","true","0","","true","<div class = centerbox><div  id = stim1></div></div>","32","32","750","","test","go","35","adv","","",""
"","340","32","1365","0","test_block","poldrack-single-stim","50","101107","0.0-5.0-36.0","go-nogo","true","0","","true","<div class = centerbox><div  id = stim1></div></div>","32","32","750","","test","go","36","adv","","",""
"","329","32","1344","0","test_block","poldrack-single-stim","51","102489","0.0-5.0-37.0","go-nogo","true","0","","true","<div class = centerbox><div  id = stim1></div></div>","32","32","750","","test","go","37","adv","","",""
"","582","32","1304","0","test_block","poldrack-single-stim","52","103828","0.0-5.0-38.0","go-nogo","true","0","","true","<div class = centerbox><div  id = stim1></div></div>","32","32","750","","test","go","38","adv","","",""
"","413","32","1064","0","test_block","poldrack-single-stim","53","104981","0.0-5.0-39.0","go-nogo","true","0","","true","<div class = centerbox><div  id = stim1></div></div>","32","32","750","","test","go","39","adv","","",""
"","769","32","1196","0","test_block","poldrack-single-stim","54","106214","0.0-5.0-40.0","go-nogo","true","0","","true","<div class = centerbox><div  id = stim1></div></div>","32","32","750","","test","go","40","adv","","",""
"","728","32","1169","0","test_block","poldrack-single-stim","55","107427","0.0-5.0-41.0","go-nogo","true","0","","true","<div class = centerbox><div  id = stim1></div></div>","32","32","750","","test","go","41","adv","","",""
"","556","32","1154","0","test_block","poldrack-single-stim","56","108640","0.0-5.0-42.0","go-nogo","true","0","","true","<div class = centerbox><div  id = stim1></div></div>","32","32","750","","test","go","42","adv","","",""
"","331","32","1175","0","test_block","poldrack-single-stim","57","109854","0.0-5.0-43.0","go-nogo","true","0","","true","<div class = centerbox><div  id = stim1></div></div>","32","32","750","","test","go","43","adv","","",""
"","252","32","1132","0","test_block","poldrack-single-stim","58","111026","0.0-5.0-44.0","go-nogo","true","0","","true","<div class = centerbox><div  id = stim1></div></div>","32","32","750","","test","go","44","adv","","",""
"","351","32","1497","0","test_block","poldrack-single-stim","59","112557","0.0-5.0-45.0","go-nogo","true","0","","true","<div class = centerbox><div  id = stim1></div></div>","32","32","750","","test","go","45","adv","","",""
"","321","32","1145","0","test_block","poldrack-single-stim","60","113739","0.0-5.0-46.0","go-nogo","true","0","","true","<div class = centerbox><div  id = stim1></div></div>","32","32","750","","test","go","46","adv","","",""
"","340","32","1222","0","test_block","poldrack-single-stim","61","114997","0.0-5.0-47.0","go-nogo","true","0","","true","<div class = centerbox><div  id = stim1></div></div>","32","32","750","","test","go","47","adv","","",""
"","289","32","1269","0","test_block","poldrack-single-stim","62","116303","0.0-5.0-48.0","go-nogo","true","0","","true","<div class = centerbox><div  id = stim1></div></div>","32","32","750","","test","go","48","adv","","",""
"","299","32","1366","0","test_block","poldrack-single-stim","63","117693","0.0-5.0-49.0","go-nogo","true","0","","true","<div class = centerbox><div  id = stim1></div></div>","32","32","750","","test","go","49","adv","","",""
"","937","32","1139","0","test_block","poldrack-single-stim","64","118862","0.0-5.0-50.0","go-nogo","true","0","","true","<div class = centerbox><div  id = stim1></div></div>","32","32","750","","test","go","50","adv","","",""
"","-1","-1","1491","0","test_block","poldrack-single-stim","65","120386","0.0-5.0-51.0","go-nogo","true","0","","false","<div class = centerbox><div  id = stim1></div></div>","32","32","750","","test","go","51","adv","","",""
"","266","32","1448","0","test_block","poldrack-single-stim","66","121866","0.0-5.0-52.0","go-nogo","true","0","","true","<div class = centerbox><div  id = stim1></div></div>","32","32","750","","test","go","52","adv","","",""
"","164","32","1039","0","test_block","poldrack-single-stim","67","122942","0.0-5.0-53.0","go-nogo","true","0","","true","<div class = centerbox><div  id = stim1></div></div>","32","32","750","","test","go","53","adv","","",""
"","507","32","1384","0","test_block","poldrack-single-stim","68","124368","0.0-5.0-54.0","go-nogo","true","0","","true","<div class = centerbox><div  id = stim1></div></div>","32","32","750","","test","go","54","adv","","",""
"","338","32","1314","0","test_block","poldrack-single-stim","69","125715","0.0-5.0-55.0","go-nogo","true","0","","true","<div class = centerbox><div  id = stim1></div></div>","32","32","750","","test","go","55","adv","","",""
"","222","32","1363","0","test_block","poldrack-single-stim","70","127120","0.0-5.0-56.0","go-nogo","true","0","","true","<div class = centerbox><div  id = stim1></div></div>","32","32","750","","test","go","56","adv","","",""
"","953","32","1078","0","test_block","poldrack-single-stim","71","128232","0.0-5.0-57.0","go-nogo","true","0","","true","<div class = centerbox><div  id = stim1></div></div>","32","32","750","","test","go","57","adv","","",""
"","-1","-1","1218","0","test_block","poldrack-single-stim","72","129474","0.0-5.0-58.0","go-nogo","true","0","","false","<div class = centerbox><div  id = stim1></div></div>","32","32","750","","test","go","58","adv","","",""
"","536","32","1455","0","test_block","poldrack-single-stim","73","130970","0.0-5.0-59.0","go-nogo","true","0","","true","<div class = centerbox><div  id = stim1></div></div>","32","32","750","","test","go","59","adv","","",""
"","341","32","1055","0","test_block","poldrack-single-stim","74","132061","0.0-5.0-60.0","go-nogo","true","0","","true","<div class = centerbox><div  id = stim1></div></div>","32","32","750","","test","go","60","adv","","",""
"","481","32","1430","0","test_block","poldrack-single-stim","75","133535","0.0-5.0-61.0","go-nogo","true","0","","true","<div class = centerbox><div  id = stim1></div></div>","32","32","750","","test","go","61","adv","","",""
"","341","32","1079","0","test_block","poldrack-single-stim","76","134707","0.0-5.0-62.0","go-nogo","true","0","","true","<div class = centerbox><div  id = stim1></div></div>","32","32","750","","test","go","62","adv","","",""
"","244","32","1083","0","test_block","poldrack-single-stim","77","135841","0.0-5.0-63.0","go-nogo","true","0","","true","<div class = centerbox><div  id = stim1></div></div>","32","32","750","","test","go","63","adv","","",""
"","303","32","1146","0","test_block","poldrack-single-stim","78","137053","0.0-5.0-64.0","go-nogo","true","0","","true","<div class = centerbox><div  id = stim1></div></div>","32","32","750","","test","go","64","adv","","",""
"","274","32","1403","0","test_block","poldrack-single-stim","79","138499","0.0-5.0-65.0","go-nogo","true","0","","true","<div class = centerbox><div  id = stim1></div></div>","32","32","750","","test","go","65","adv","","",""
"","725","32","1367","0","test_block","poldrack-single-stim","80","139908","0.0-5.0-66.0","go-nogo","true","0","","true","<div class = centerbox><div  id = stim1></div></div>","32","32","750","","test","go","66","adv","","",""
"","457","32","1225","0","test_block","poldrack-single-stim","81","141170","0.0-5.0-67.0","go-nogo","true","0","","true","<div class = centerbox><div  id = stim1></div></div>","32","32","750","","test","go","67","adv","","",""
"","340","32","1126","0","test_block","poldrack-single-stim","82","142339","0.0-5.0-68.0","go-nogo","true","0","","true","<div class = centerbox><div  id = stim1></div></div>","32","32","750","","test","go","68","adv","","",""
"","293","32","1153","0","test_block","poldrack-single-stim","83","143518","0.0-5.0-69.0","go-nogo","true","0","","true","<div class = centerbox><div  id = stim1></div></div>","32","32","750","","test","go","69","adv","","",""
"","491","32","1396","0","test_block","poldrack-single-stim","84","144955","0.0-5.0-70.0","go-nogo","true","0","","true","<div class = centerbox><div  id = stim1></div></div>","32","32","750","","test","go","70","adv","","",""
"","610","32","1158","0","test_block","poldrack-single-stim","85","146158","0.0-5.0-71.0","go-nogo","true","0","","true","<div class = centerbox><div  id = stim1></div></div>","32","32","750","","test","go","71","adv","","",""
"","441","32","1025","0","test_block","poldrack-single-stim","86","147250","0.0-5.0-72.0","go-nogo","true","0","","true","<div class = centerbox><div  id = stim1></div></div>","32","32","750","","test","go","72","adv","","",""
"","357","32","1304","0","test_block","poldrack-single-stim","87","148597","0.0-5.0-73.0","go-nogo","true","0","","true","<div class = centerbox><div  id = stim1></div></div>","32","32","750","","test","go","73","adv","","",""
"","70","32","1016","0","test_block","poldrack-single-stim","88","149659","0.0-5.0-74.0","go-nogo","true","0","","true","<div class = centerbox><div  id = stim1></div></div>","32","32","750","","test","go","74","adv","","",""
"","769","32","1063","0","test_block","poldrack-single-stim","89","150768","0.0-5.0-75.0","go-nogo","true","0","","true","<div class = centerbox><div  id = stim1></div></div>","32","32","750","","test","go","75","adv","","",""
"","709","32","1334","0","test_block","poldrack-single-stim","90","152140","0.0-5.0-76.0","go-nogo","true","0","","true","<div class = centerbox><div  id = stim1></div></div>","32","32","750","","test","go","76","adv","","",""
"","357","32","1429","0","test_block","poldrack-single-stim","91","153611","0.0-5.0-77.0","go-nogo","true","0","","true","<div class = centerbox><div  id = stim1></div></div>","32","32","750","","test","go","77","adv","","",""
"","77","32","1257","0","test_block","poldrack-single-stim","92","154905","0.0-5.0-78.0","go-nogo","true","0","","true","<div class = centerbox><div  id = stim1></div></div>","32","32","750","","test","go","78","adv","","",""
"","477","32","1240","0","test_block","poldrack-single-stim","93","156180","0.0-5.0-79.0","go-nogo","true","0","","true","<div class = centerbox><div  id = stim1></div></div>","32","32","750","","test","go","79","adv","","",""
"","609","32","1325","0","test_block","poldrack-single-stim","94","157550","0.0-5.0-80.0","go-nogo","true","0","","true","<div class = centerbox><div  id = stim1></div></div>","32","32","750","","test","go","80","adv","","",""
"","1062","32","1391","0","test_block","poldrack-single-stim","95","158978","0.0-5.0-81.0","go-nogo","true","0","","true","<div class = centerbox><div  id = stim1></div></div>","32","32","750","","test","go","81","adv","","",""
"","1046","32","1053","0","test_block","poldrack-single-stim","96","160064","0.0-5.0-82.0","go-nogo","true","0","","true","<div class = centerbox><div  id = stim1></div></div>","32","32","750","","test","go","82","adv","","",""
"","-1","-1","1051","0","test_block","poldrack-single-stim","97","161143","0.0-5.0-83.0","go-nogo","true","0","","false","<div class = centerbox><div  id = stim1></div></div>","32","32","750","","test","go","83","adv","","",""
"","0","32","1269","0","test_block","poldrack-single-stim","98","162446","0.0-5.0-84.0","go-nogo","true","0","","true","<div class = centerbox><div  id = stim1></div></div>","32","32","750","","test","go","84","adv","","",""
"","341","32","1357","0","test_block","poldrack-single-stim","99","163837","0.0-5.0-85.0","go-nogo","true","0","","true","<div class = centerbox><div  id = stim1></div></div>","32","32","750","","test","go","85","adv","","",""
"","185","32","1010","0","test_block","poldrack-single-stim","100","164882","0.0-5.0-86.0","go-nogo","true","0","","true","<div class = centerbox><div  id = stim1></div></div>","32","32","750","","test","go","86","adv","","",""
"","428","32","1040","0","test_block","poldrack-single-stim","101","165957","0.0-5.0-87.0","go-nogo","true","0","","true","<div class = centerbox><div  id = stim1></div></div>","32","32","750","","test","go","87","adv","","",""
"","436","32","1306","0","test_block","poldrack-single-stim","102","167287","0.0-5.0-88.0","go-nogo","true","0","","true","<div class = centerbox><div  id = stim1></div></div>","32","32","750","","test","go","88","adv","","",""
"","359","32","1198","0","test_block","poldrack-single-stim","103","168528","0.0-5.0-89.0","go-nogo","true","0","","true","<div class = centerbox><div  id = stim1></div></div>","32","32","750","","test","go","89","adv","","",""
"","359","32","1418","0","test_block","poldrack-single-stim","104","169980","0.0-5.0-90.0","go-nogo","true","0","","true","<div class = centerbox><div  id = stim1></div></div>","32","32","750","","test","go","90","adv","","",""
"","366","32","1176","0","test_block","poldrack-single-stim","105","171179","0.0-5.0-91.0","go-nogo","true","0","","true","<div class = centerbox><div  id = stim1></div></div>","32","32","750","","test","go","91","adv","","",""
"","939","32","1029","0","test_block","poldrack-single-stim","106","172244","0.0-5.0-92.0","go-nogo","true","0","","true","<div class = centerbox><div  id = stim1></div></div>","32","32","750","","test","go","92","adv","","",""
"","-1","-1","1319","0","test_block","poldrack-single-stim","107","173588","0.0-5.0-93.0","go-nogo","true","0","","false","<div class = centerbox><div  id = stim1></div></div>","32","32","750","","test","go","93","adv","","",""
"","198","32","1484","0","test_block","poldrack-single-stim","108","175105","0.0-5.0-94.0","go-nogo","true","0","","true","<div class = centerbox><div  id = stim1></div></div>","32","32","750","","test","go","94","adv","","",""
"","-1","-1","1215","0","test_block","poldrack-single-stim","109","176353","0.0-5.0-95.0","go-nogo","true","0","","false","<div class = centerbox><div  id = stim1></div></div>","32","32","750","","test","go","95","adv","","",""
"","363","32","1497","0","test_block","poldrack-single-stim","110","177888","0.0-5.0-96.0","go-nogo","true","0","","true","<div class = centerbox><div  id = stim1></div></div>","32","32","750","","test","go","96","adv","","",""
"","-1","-1","1229","0","test_block","poldrack-single-stim","111","179142","0.0-5.0-97.0","go-nogo","true","0","","false","<div class = centerbox><div  id = stim1></div></div>","32","32","750","","test","go","97","adv","","",""
"","368","32","1492","0","test_block","poldrack-single-stim","112","180671","0.0-5.0-98.0","go-nogo","true","0","","true","<div class = centerbox><div  id = stim1></div></div>","32","32","750","","test","go","98","adv","","",""
"","347","32","1432","0","test_block","poldrack-single-stim","113","182135","0.0-5.0-99.0","go-nogo","true","0","","true","<div class = centerbox><div  id = stim1></div></div>","32","32","750","","test","go","99","adv","","",""
"","538","32","1344","0","test_block","poldrack-single-stim","114","183512","0.0-5.0-100.0","go-nogo","true","0","","true","<div class = centerbox><div  id = stim1></div></div>","32","32","750","","test","go","100","adv","","",""
"","1104","32","1479","0","test_block","poldrack-single-stim","115","185025","0.0-5.0-101.0","go-nogo","true","0","","true","<div class = centerbox><div  id = stim1></div></div>","32","32","750","","test","go","101","adv","","",""
"","-1","-1","1212","0","test_block","poldrack-single-stim","116","186272","0.0-5.0-102.0","go-nogo","true","0","","false","<div class = centerbox><div  id = stim1></div></div>","32","32","750","","test","go","102","adv","","",""
"","5","32","1191","0","test_block","poldrack-single-stim","117","187484","0.0-5.0-103.0","go-nogo","true","0","","true","<div class = centerbox><div  id = stim1></div></div>","32","32","750","","test","go","103","adv","","",""
"","638","32","1247","0","test_block","poldrack-single-stim","118","188763","0.0-5.0-104.0","go-nogo","true","0","","true","<div class = centerbox><div  id = stim1></div></div>","32","32","750","","test","go","104","adv","","",""
"","774","32","1362","0","test_block","poldrack-single-stim","119","190157","0.0-5.0-105.0","go-nogo","true","0","","true","<div class = centerbox><div  id = stim1></div></div>","32","32","750","","test","go","105","adv","","",""
"","555","32","1109","0","test_block","poldrack-single-stim","120","191308","0.0-5.0-106.0","go-nogo","true","0","","true","<div class = centerbox><div  id = stim1></div></div>","32","32","750","","test","go","106","adv","","",""
"","1013","32","1074","0","test_block","poldrack-single-stim","121","192414","0.0-5.0-107.0","go-nogo","true","0","","true","<div class = centerbox><div  id = stim1></div></div>","32","32","750","","test","go","107","adv","","",""
"","-1","-1","1325","0","test_block","poldrack-single-stim","122","193772","0.0-5.0-108.0","go-nogo","true","0","","false","<div class = centerbox><div  id = stim1></div></div>","32","32","750","","test","go","108","adv","","",""
"","87","32","1406","0","test_block","poldrack-single-stim","123","195210","0.0-5.0-109.0","go-nogo","true","0","","true","<div class = centerbox><div  id = stim1></div></div>","32","32","750","","test","go","109","adv","","",""
"","249","32","1235","0","test_block","poldrack-single-stim","124","196476","0.0-5.0-110.0","go-nogo","true","0","","true","<div class = centerbox><div  id = stim1></div></div>","32","32","750","","test","go","110","adv","","",""
"","295","32","1179","0","test_block","poldrack-single-stim","125","197677","0.0-5.0-111.0","go-nogo","true","0","","true","<div class = centerbox><div  id = stim1></div></div>","32","32","750","","test","go","111","adv","","",""
"","964","32","1328","0","test_block","poldrack-single-stim","126","199038","0.0-5.0-112.0","go-nogo","true","0","","true","<div class = centerbox><div  id = stim1></div></div>","32","32","750","","test","go","112","adv","","",""
"","-1","-1","1358","0","test_block","poldrack-single-stim","127","200428","0.0-5.0-113.0","go-nogo","true","0","","false","<div class = centerbox><div  id = stim1></div></div>","32","32","750","","test","go","113","adv","","",""
"","125","32","1332","0","test_block","poldrack-single-stim","128","201793","0.0-5.0-114.0","go-nogo","true","0","","true","<div class = centerbox><div  id = stim1></div></div>","32","32","750","","test","go","114","adv","","",""
"","977","32","1288","0","test_block","poldrack-single-stim","129","203112","0.0-5.0-115.0","go-nogo","true","0","","true","<div class = centerbox><div  id = stim1></div></div>","32","32","750","","test","go","115","adv","","",""
"","-1","-1","1083","0","test_block","poldrack-single-stim","130","204227","0.0-5.0-116.0","go-nogo","true","0","","false","<div class = centerbox><div  id = stim1></div></div>","32","32","750","","test","go","116","adv","","",""
"","66","32","1153","0","test_block","poldrack-single-stim","131","205409","0.0-5.0-117.0","go-nogo","true","0","","true","<div class = centerbox><div  id = stim1></div></div>","32","32","750","","test","go","117","adv","","",""
"","166","32","1060","0","test_block","poldrack-single-stim","132","206513","0.0-5.0-118.0","go-nogo","true","0","","true","<div class = centerbox><div  id = stim1></div></div>","32","32","750","","test","go","118","adv","","",""
"","200","32","1332","0","test_block","poldrack-single-stim","133","207878","0.0-5.0-119.0","go-nogo","true","0","","true","<div class = centerbox><div  id = stim1></div></div>","32","32","750","","test","go","119","adv","","",""
"","100","32","1127","0","test_block","poldrack-single-stim","134","209028","0.0-5.0-120.0","go-nogo","true","0","","true","<div class = centerbox><div  id = stim1></div></div>","32","32","750","","test","go","120","adv","","",""
"","70","32","1292","0","test_block","poldrack-single-stim","135","210351","0.0-5.0-121.0","go-nogo","true","0","","true","<div class = centerbox><div  id = stim1></div></div>","32","32","750","","test","go","121","adv","","",""
"","0","32","1024","0","test_block","poldrack-single-stim","136","211399","0.0-5.0-122.0","go-nogo","true","0","","true","<div class = centerbox><div  id = stim1></div></div>","32","32","750","","test","go","122","adv","","",""
"","312","32","1042","0","test_block","poldrack-single-stim","137","212467","0.0-5.0-123.0","go-nogo","true","0","","true","<div class = centerbox><div  id = stim1></div></div>","32","32","750","","test","go","123","adv","","",""
"","390","32","1027","0","test_block","poldrack-single-stim","138","213526","0.0-5.0-124.0","go-nogo","true","0","","true","<div class = centerbox><div  id = stim1></div></div>","32","32","750","","test","go","124","adv","","",""
"","755","32","1203","0","test_block","poldrack-single-stim","139","214779","0.0-5.0-125.0","go-nogo","true","0","","true","<div class = centerbox><div  id = stim1></div></div>","32","32","750","","test","go","125","adv","","",""
"","708","32","1192","0","test_block","poldrack-single-stim","140","216000","0.0-5.0-126.0","go-nogo","true","0","","true","<div class = centerbox><div  id = stim1></div></div>","32","32","750","","test","go","126","adv","","",""
"","953","32","1007","0","test_block","poldrack-single-stim","141","217031","0.0-5.0-127.0","go-nogo","true","0","","true","<div class = centerbox><div  id = stim1></div></div>","32","32","750","","test","go","127","adv","","",""
"","-1","-1","1020","0","test_block","poldrack-single-stim","142","218083","0.0-5.0-128.0","go-nogo","true","0","","false","<div class = centerbox><div  id = stim1></div></div>","32","32","750","","test","go","128","adv","","",""
"","128","32","1395","0","test_block","poldrack-single-stim","143","219500","0.0-5.0-129.0","go-nogo","true","0","","true","<div class = centerbox><div  id = stim1></div></div>","32","32","750","","test","go","129","adv","","",""
"","-1","-1","1292","0","test_block","poldrack-single-stim","144","220824","0.0-5.0-130.0","go-nogo","true","0","","false","<div class = centerbox><div  id = stim1></div></div>","32","32","750","","test","go","130","adv","","",""
"","303","32","1472","0","test_block","poldrack-single-stim","145","222330","0.0-5.0-131.0","go-nogo","true","0","","true","<div class = centerbox><div  id = stim1></div></div>","32","32","750","","test","go","131","adv","","",""
"","297","32","1257","0","test_block","poldrack-single-stim","146","223609","0.0-5.0-132.0","go-nogo","true","0","","true","<div class = centerbox><div  id = stim1></div></div>","32","32","750","","test","go","132","adv","","",""
"","431","32","1101","0","test_block","poldrack-single-stim","147","224743","0.0-5.0-133.0","go-nogo","true","0","","true","<div class = centerbox><div  id = stim1></div></div>","32","32","750","","test","go","133","adv","","",""
"","484","32","1430","0","test_block","poldrack-single-stim","148","226203","0.0-5.0-134.0","go-nogo","true","0","","true","<div class = centerbox><div  id = stim1></div></div>","32","32","750","","test","go","134","adv","","",""
"","359","32","1068","0","test_block","poldrack-single-stim","149","227294","0.0-5.0-135.0","go-nogo","true","0","","true","<div class = centerbox><div  id = stim1></div></div>","32","32","750","","test","go","135","adv","","",""
"","443","32","1074","0","test_block","poldrack-single-stim","150","228399","0.0-5.0-136.0","go-nogo","true","0","","true","<div class = centerbox><div  id = stim1></div></div>","32","32","750","","test","go","136","adv","","",""
"","448","32","1287","0","test_block","poldrack-single-stim","151","229719","0.0-5.0-137.0","go-nogo","true","0","","true","<div class = centerbox><div  id = stim1></div></div>","32","32","750","","test","go","137","adv","","",""
"","409","32","1050","0","test_block","poldrack-single-stim","152","230801","0.0-5.0-138.0","go-nogo","true","0","","true","<div class = centerbox><div  id = stim1></div></div>","32","32","750","","test","go","138","adv","","",""
"","662","32","1358","0","test_block","poldrack-single-stim","153","232191","0.0-5.0-139.0","go-nogo","true","0","","true","<div class = centerbox><div  id = stim1></div></div>","32","32","750","","test","go","139","adv","","",""
"","547","32","1258","0","test_block","poldrack-single-stim","154","233479","0.0-5.0-140.0","go-nogo","true","0","","true","<div class = centerbox><div  id = stim1></div></div>","32","32","750","","test","go","140","adv","","",""
"","676","32","1059","0","test_block","poldrack-single-stim","155","234573","0.0-5.0-141.0","go-nogo","true","0","","true","<div class = centerbox><div  id = stim1></div></div>","32","32","750","","test","go","141","adv","","",""
"","700","32","1130","0","test_block","poldrack-single-stim","156","235737","0.0-5.0-142.0","go-nogo","true","0","","true","<div class = centerbox><div  id = stim1></div></div>","32","32","750","","test","go","142","adv","","",""
"","698","32","1115","0","test_block","poldrack-single-stim","157","236884","0.0-5.0-143.0","go-nogo","true","0","","true","<div class = centerbox><div  id = stim1></div></div>","32","32","750","","test","go","143","adv","","",""
"","424","32","1180","0","test_block","poldrack-single-stim","158","238094","0.0-5.0-144.0","go-nogo","true","0","","true","<div class = centerbox><div  id = stim1></div></div>","32","32","750","","test","go","144","adv","","",""
"","411","32","1366","0","test_block","poldrack-single-stim","159","239493","0.0-5.0-145.0","go-nogo","true","0","","true","<div class = centerbox><div  id = stim1></div></div>","32","32","750","","test","go","145","adv","","",""
"","387","32","1333","0","test_block","poldrack-single-stim","160","240860","0.0-5.0-146.0","go-nogo","true","0","","true","<div class = centerbox><div  id = stim1></div></div>","32","32","750","","test","go","146","adv","","",""
"","847","32","1283","0","test_block","poldrack-single-stim","161","242174","0.0-5.0-147.0","go-nogo","true","0","","true","<div class = centerbox><div  id = stim1></div></div>","32","32","750","","test","go","147","adv","","",""
"","988","32","1133","0","test_block","poldrack-single-stim","162","243331","0.0-5.0-148.0","go-nogo","true","0","","true","<div class = centerbox><div  id = stim1></div></div>","32","32","750","","test","go","148","adv","","",""
"","-1","-1","1126","0","test_block","poldrack-single-stim","163","244489","0.0-5.0-149.0","go-nogo","true","0","","false","<div class = centerbox><div  id = stim1></div></div>","32","32","750","","test","go","149","adv","","",""
"","83","32","1156","0","test_block","poldrack-single-stim","164","245675","0.0-5.0-150.0","go-nogo","true","0","","true","<div class = centerbox><div  id = stim1></div></div>","32","32","750","","test","go","150","adv","","",""
"","312","32","1003","0","test_block","poldrack-single-stim","165","246709","0.0-5.0-151.0","go-nogo","true","0","","true","<div class = centerbox><div  id = stim1></div></div>","32","32","750","","test","go","151","adv","","",""
"","277","32","1274","0","test_block","poldrack-single-stim","166","248015","0.0-5.0-152.0","go-nogo","true","0","","true","<div class = centerbox><div  id = stim1></div></div>","32","32","750","","test","go","152","adv","","",""
"","315","32","1444","0","test_block","poldrack-single-stim","167","249483","0.0-5.0-153.0","go-nogo","true","0","","true","<div class = centerbox><div  id = stim1></div></div>","32","32","750","","test","go","153","adv","","",""
"","303","32","1079","0","test_block","poldrack-single-stim","168","250594","0.0-5.0-154.0","go-nogo","true","0","","true","<div class = centerbox><div  id = stim1></div></div>","32","32","750","","test","go","154","adv","","",""
"","352","32","1310","0","test_block","poldrack-single-stim","169","251936","0.0-5.0-155.0","go-nogo","true","0","","true","<div class = centerbox><div  id = stim1></div></div>","32","32","750","","test","go","155","adv","","",""
"","368","32","1034","0","test_block","poldrack-single-stim","170","252995","0.0-5.0-156.0","go-nogo","true","0","","true","<div class = centerbox><div  id = stim1></div></div>","32","32","750","","test","go","156","adv","","",""
"","384","32","1495","0","test_block","poldrack-single-stim","171","254521","0.0-5.0-157.0","go-nogo","true","0","","true","<div class = centerbox><div  id = stim1></div></div>","32","32","750","","test","go","157","adv","","",""
"","351","32","1420","0","test_block","poldrack-single-stim","172","255974","0.0-5.0-158.0","go-nogo","true","0","","true","<div class = centerbox><div  id = stim1></div></div>","32","32","750","","test","go","158","adv","","",""
"","419","32","1049","0","test_block","poldrack-single-stim","173","257047","0.0-5.0-159.0","go-nogo","true","0","","true","<div class = centerbox><div  id = stim1></div></div>","32","32","750","","test","go","159","adv","","",""
"","748","32","1126","0","test_block","poldrack-single-stim","174","258211","0.0-5.0-160.0","go-nogo","true","0","","true","<div class = centerbox><div  id = stim1></div></div>","32","32","750","","test","go","160","adv","","",""
"","1290","32","1443","0","test_block","poldrack-single-stim","175","259689","0.0-5.0-161.0","go-nogo","true","0","","true","<div class = centerbox><div  id = stim1></div></div>","32","32","750","","test","go","161","adv","","",""
"","-1","-1","1411","0","test_block","poldrack-single-stim","176","261130","0.0-5.0-162.0","go-nogo","true","0","","false","<div class = centerbox><div  id = stim1></div></div>","32","32","750","","test","go","162","adv","","",""
"","178","32","1438","0","test_block","poldrack-single-stim","177","262597","0.0-5.0-163.0","go-nogo","true","0","","true","<div class = centerbox><div  id = stim1></div></div>","32","32","750","","test","go","163","adv","","",""
"","413","32","1426","0","test_block","poldrack-single-stim","178","264056","0.0-5.0-164.0","go-nogo","true","0","","true","<div class = centerbox><div  id = stim1></div></div>","32","32","750","","test","go","164","adv","","",""
"","414","32","1108","0","test_block","poldrack-single-stim","179","265198","0.0-5.0-165.0","go-nogo","true","0","","true","<div class = centerbox><div  id = stim1></div></div>","32","32","750","","test","go","165","adv","","",""
"","804","32","1203","0","test_block","poldrack-single-stim","180","266432","0.0-5.0-166.0","go-nogo","true","0","","true","<div class = centerbox><div  id = stim1></div></div>","32","32","750","","test","go","166","adv","","",""
"","-1","-1","1074","0","test_block","poldrack-single-stim","181","267541","0.0-5.0-167.0","go-nogo","true","0","","false","<div class = centerbox><div  id = stim1></div></div>","32","32","750","","test","go","167","adv","","",""
"","312","32","1230","0","test_block","poldrack-single-stim","182","268807","0.0-5.0-168.0","go-nogo","true","0","","true","<div class = centerbox><div  id = stim1></div></div>","32","32","750","","test","go","168","adv","","",""
"","1265","32","1432","0","test_block","poldrack-single-stim","183","270272","0.0-5.0-169.0","go-nogo","true","0","","true","<div class = centerbox><div  id = stim1></div></div>","32","32","750","","test","go","169","adv","","",""
"","-1","-1","1313","0","test_block","poldrack-single-stim","184","271608","0.0-5.0-170.0","go-nogo","true","0","","false","<div class = centerbox><div  id = stim1></div></div>","32","32","750","","test","go","170","adv","","",""
"","385","32","1423","0","test_block","poldrack-single-stim","185","273063","0.0-5.0-171.0","go-nogo","true","0","","true","<div class = centerbox><div  id = stim1></div></div>","32","32","750","","test","go","171","adv","","",""
"","555","32","1223","0","test_block","poldrack-single-stim","186","274318","0.0-5.0-172.0","go-nogo","true","0","","true","<div class = centerbox><div  id = stim1></div></div>","32","32","750","","test","go","172","adv","","",""
"","469","32","1293","0","test_block","poldrack-single-stim","187","275633","0.0-5.0-173.0","go-nogo","true","0","","true","<div class = centerbox><div  id = stim1></div></div>","32","32","750","","test","go","173","adv","","",""
"","-1","-1","1018","0","test_block","poldrack-single-stim","188","276673","0.0-5.0-174.0","go-nogo","true","0","","false","<div class = centerbox><div  id = stim1></div></div>","32","32","750","","test","go","174","adv","","",""
"","49","32","1098","0","test_block","poldrack-single-stim","189","277802","0.0-5.0-175.0","go-nogo","true","0","","true","<div class = centerbox><div  id = stim1></div></div>","32","32","750","","test","go","175","adv","","",""
"","245","32","1031","0","test_block","poldrack-single-stim","190","278908","0.0-5.0-176.0","go-nogo","true","0","","true","<div class = centerbox><div  id = stim1></div></div>","32","32","750","","test","go","176","adv","","",""
"","-1","-1","1079","0","test_block","poldrack-single-stim","191","280018","0.0-5.0-177.0","go-nogo","true","0","","false","<div class = centerbox><div  id = stim1></div></div>","32","32","750","","test","go","177","adv","","",""
"","-1","-1","1136","0","test_block","poldrack-single-stim","192","281177","0.0-5.0-178.0","go-nogo","true","0","","false","<div class = centerbox><div  id = stim1></div></div>","32","32","750","","test","go","178","adv","","",""
"","152","32","1080","0","test_block","poldrack-single-stim","193","282288","0.0-5.0-179.0","go-nogo","true","0","","true","<div class = centerbox><div  id = stim1></div></div>","32","32","750","","test","go","179","adv","","",""
"","-1","-1","1093","0","test_block","poldrack-single-stim","194","283415","0.0-5.0-180.0","go-nogo","true","0","","true","<div class = centerbox><div  id = stim2></div></div>","-1","32","750","","test","nogo","180","adv","","",""
"","-1","-1","1289","0","test_block","poldrack-single-stim","195","284740","0.0-5.0-181.0","go-nogo","true","0","","false","<div class = centerbox><div  id = stim1></div></div>","32","32","750","","test","go","181","adv","","",""
"","341","32","1191","0","test_block","poldrack-single-stim","196","285963","0.0-5.0-182.0","go-nogo","true","0","","true","<div class = centerbox><div  id = stim1></div></div>","32","32","750","","test","go","182","adv","","",""
"","-1","-1","1054","0","test_block","poldrack-single-stim","197","287050","0.0-5.0-183.0","go-nogo","true","0","","true","<div class = centerbox><div  id = stim2></div></div>","-1","32","750","","test","nogo","183","adv","","",""
"","548","32","1360","0","test_block","poldrack-single-stim","198","288444","0.0-5.0-184.0","go-nogo","true","0","","true","<div class = centerbox><div  id = stim1></div></div>","32","32","750","","test","go","184","adv","","",""
"","364","32","1385","0","test_block","poldrack-single-stim","199","289861","0.0-5.0-185.0","go-nogo","true","0","","true","<div class = centerbox><div  id = stim1></div></div>","32","32","750","","test","go","185","adv","","",""
"","365","32","1317","0","test_block","poldrack-single-stim","200","291208","0.0-5.0-186.0","go-nogo","true","0","","true","<div class = centerbox><div  id = stim1></div></div>","32","32","750","","test","go","186","adv","","",""
"","354","32","1427","0","test_block","poldrack-single-stim","201","292665","0.0-5.0-187.0","go-nogo","true","0","","true","<div class = centerbox><div  id = stim1></div></div>","32","32","750","","test","go","187","adv","","",""
"","574","32","1136","0","test_block","poldrack-single-stim","202","293835","0.0-5.0-188.0","go-nogo","true","0","","true","<div class = centerbox><div  id = stim1></div></div>","32","32","750","","test","go","188","adv","","",""
"","354","32","1423","0","test_block","poldrack-single-stim","203","295313","0.0-5.0-189.0","go-nogo","true","0","","true","<div class = centerbox><div  id = stim1></div></div>","32","32","750","","test","go","189","adv","","",""
"","345","32","1446","0","test_block","poldrack-single-stim","204","296792","0.0-5.0-190.0","go-nogo","true","0","","true","<div class = centerbox><div  id = stim1></div></div>","32","32","750","","test","go","190","adv","","",""
"","446","32","1055","0","test_block","poldrack-single-stim","205","297883","0.0-5.0-191.0","go-nogo","true","0","","true","<div class = centerbox><div  id = stim1></div></div>","32","32","750","","test","go","191","adv","","",""
"","375","32","1452","0","test_block","poldrack-single-stim","206","299359","0.0-5.0-192.0","go-nogo","true","0","","true","<div class = centerbox><div  id = stim1></div></div>","32","32","750","","test","go","192","adv","","",""
"","347","32","1288","0","test_block","poldrack-single-stim","207","300678","0.0-5.0-193.0","go-nogo","true","0","","true","<div class = centerbox><div  id = stim1></div></div>","32","32","750","","test","go","193","adv","","",""
"","342","32","1151","0","test_block","poldrack-single-stim","208","301859","0.0-5.0-194.0","go-nogo","true","0","","true","<div class = centerbox><div  id = stim1></div></div>","32","32","750","","test","go","194","adv","","",""
"","384","32","1223","0","test_block","poldrack-single-stim","209","303113","0.0-5.0-195.0","go-nogo","true","0","","true","<div class = centerbox><div  id = stim1></div></div>","32","32","750","","test","go","195","adv","","",""
"","347","32","1153","0","test_block","poldrack-single-stim","210","304296","0.0-5.0-196.0","go-nogo","true","0","","true","<div class = centerbox><div  id = stim1></div></div>","32","32","750","","test","go","196","adv","","",""
"","412","32","1171","0","test_block","poldrack-single-stim","211","305489","0.0-5.0-197.0","go-nogo","true","0","","true","<div class = centerbox><div  id = stim1></div></div>","32","32","750","","test","go","197","adv","","",""
"","642","32","1385","0","test_block","poldrack-single-stim","212","306906","0.0-5.0-198.0","go-nogo","true","0","","true","<div class = centerbox><div  id = stim1></div></div>","32","32","750","","test","go","198","adv","","",""
"","314","32","1029","0","test_block","poldrack-single-stim","213","307966","0.0-5.0-199.0","go-nogo","true","0","","true","<div class = centerbox><div  id = stim1></div></div>","32","32","750","","test","go","199","adv","","",""
"","472","32","1204","0","test_block","poldrack-single-stim","214","309199","0.0-5.0-200.0","go-nogo","true","0","","true","<div class = centerbox><div  id = stim1></div></div>","32","32","750","","test","go","200","adv","","",""
"","469","32","1020","0","test_block","poldrack-single-stim","215","310250","0.0-5.0-201.0","go-nogo","true","0","","true","<div class = centerbox><div  id = stim1></div></div>","32","32","750","","test","go","201","adv","","",""
"","606","32","1434","0","test_block","poldrack-single-stim","216","311710","0.0-5.0-202.0","go-nogo","true","0","","true","<div class = centerbox><div  id = stim1></div></div>","32","32","750","","test","go","202","adv","","",""
"","356","32","1493","0","test_block","poldrack-single-stim","217","313235","0.0-5.0-203.0","go-nogo","true","0","","true","<div class = centerbox><div  id = stim1></div></div>","32","32","750","","test","go","203","adv","","",""
"","346","32","1193","0","test_block","poldrack-single-stim","218","314465","0.0-5.0-204.0","go-nogo","true","0","","true","<div class = centerbox><div  id = stim1></div></div>","32","32","750","","test","go","204","adv","","",""
"","826","32","1443","0","test_block","poldrack-single-stim","219","315939","0.0-5.0-205.0","go-nogo","true","0","","true","<div class = centerbox><div  id = stim1></div></div>","32","32","750","","test","go","205","adv","","",""
"","399","32","1200","0","test_block","poldrack-single-stim","220","317162","0.0-5.0-206.0","go-nogo","true","0","","true","<div class = centerbox><div  id = stim1></div></div>","32","32","750","","test","go","206","adv","","",""
"","528","32","1247","0","test_block","poldrack-single-stim","221","318443","0.0-5.0-207.0","go-nogo","true","0","","true","<div class = centerbox><div  id = stim1></div></div>","32","32","750","","test","go","207","adv","","",""
"","881","32","1076","0","test_block","poldrack-single-stim","222","319548","0.0-5.0-208.0","go-nogo","true","0","","true","<div class = centerbox><div  id = stim1></div></div>","32","32","750","","test","go","208","adv","","",""
"","950","32","1006","0","test_block","poldrack-single-stim","223","320586","0.0-5.0-209.0","go-nogo","true","0","","true","<div class = centerbox><div  id = stim1></div></div>","32","32","750","","test","go","209","adv","","",""
"","849","32","1347","0","test_block","poldrack-single-stim","224","321963","0.0-5.0-210.0","go-nogo","true","0","","true","<div class = centerbox><div  id = stim1></div></div>","32","32","750","","test","go","210","adv","","",""
"","462","32","1163","0","test_block","poldrack-single-stim","225","323158","0.0-5.0-211.0","go-nogo","true","0","","true","<div class = centerbox><div  id = stim1></div></div>","32","32","750","","test","go","211","adv","","",""
"","356","32","1289","0","test_block","poldrack-single-stim","226","324478","0.0-5.0-212.0","go-nogo","true","0","","true","<div class = centerbox><div  id = stim1></div></div>","32","32","750","","test","go","212","adv","","",""
"","293","32","1173","0","test_block","poldrack-single-stim","227","325681","0.0-5.0-213.0","go-nogo","true","0","","true","<div class = centerbox><div  id = stim1></div></div>","32","32","750","","test","go","213","adv","","",""
"","305","32","1345","0","test_block","poldrack-single-stim","228","327058","0.0-5.0-214.0","go-nogo","true","0","","false","<div class = centerbox><div  id = stim2></div></div>","-1","32","750","","test","nogo","214","adv","","",""
"","-1","-1","1470","0","test_block","poldrack-single-stim","229","328557","0.0-5.0-215.0","go-nogo","true","0","","true","<div class = centerbox><div  id = stim2></div></div>","-1","32","750","","test","nogo","215","adv","","",""
"","582","32","1175","0","test_block","poldrack-single-stim","230","329762","0.0-5.0-216.0","go-nogo","true","0","","true","<div class = centerbox><div  id = stim1></div></div>","32","32","750","","test","go","216","adv","","",""
"","400","32","1118","0","test_block","poldrack-single-stim","231","330911","0.0-5.0-217.0","go-nogo","true","0","","true","<div class = centerbox><div  id = stim1></div></div>","32","32","750","","test","go","217","adv","","",""
"","364","32","1404","0","test_block","poldrack-single-stim","232","332345","0.0-5.0-218.0","go-nogo","true","0","","true","<div class = centerbox><div  id = stim1></div></div>","32","32","750","","test","go","218","adv","","",""
"","-1","-1","1424","0","test_block","poldrack-single-stim","233","333792","0.0-5.0-219.0","go-nogo","true","0","","true","<div class = centerbox><div  id = stim2></div></div>","-1","32","750","","test","nogo","219","adv","","",""
"","353","32","1322","0","test_block","poldrack-single-stim","234","335146","0.0-5.0-220.0","go-nogo","true","0","","true","<div class = centerbox><div  id = stim1></div></div>","32","32","750","","test","go","220","adv","","",""
"","379","32","1133","0","test_block","poldrack-single-stim","235","336310","0.0-5.0-221.0","go-nogo","true","0","","true","<div class = centerbox><div  id = stim1></div></div>","32","32","750","","test","go","221","adv","","",""
"","356","32","1160","0","test_block","poldrack-single-stim","236","337492","0.0-5.0-222.0","go-nogo","true","0","","true","<div class = centerbox><div  id = stim1></div></div>","32","32","750","","test","go","222","adv","","",""
"","360","32","1285","0","test_block","poldrack-single-stim","237","338806","0.0-5.0-223.0","go-nogo","true","0","","true","<div class = centerbox><div  id = stim1></div></div>","32","32","750","","test","go","223","adv","","",""
"","-1","-1","1321","0","test_block","poldrack-single-stim","238","340158","0.0-5.0-224.0","go-nogo","true","0","","true","<div class = centerbox><div  id = stim2></div></div>","-1","32","750","","test","nogo","224","adv","","",""
"","347","32","1290","0","test_block","poldrack-single-stim","239","341479","0.0-5.0-225.0","go-nogo","true","0","","true","<div class = centerbox><div  id = stim1></div></div>","32","32","750","","test","go","225","adv","","",""
"","331","32","1412","0","test_block","poldrack-single-stim","240","342920","0.0-5.0-226.0","go-nogo","true","0","","true","<div class = centerbox><div  id = stim1></div></div>","32","32","750","","test","go","226","adv","","",""
"","369","32","1003","0","test_block","poldrack-single-stim","241","343954","0.0-5.0-227.0","go-nogo","true","0","","true","<div class = centerbox><div  id = stim1></div></div>","32","32","750","","test","go","227","adv","","",""
"","531","32","1464","0","test_block","poldrack-single-stim","242","345447","0.0-5.0-228.0","go-nogo","true","0","","true","<div class = centerbox><div  id = stim1></div></div>","32","32","750","","test","go","228","adv","","",""
"","373","32","1031","0","test_block","poldrack-single-stim","243","346506","0.0-5.0-229.0","go-nogo","true","0","","true","<div class = centerbox><div  id = stim1></div></div>","32","32","750","","test","go","229","adv","","",""
"","392","32","1164","0","test_block","poldrack-single-stim","244","347700","0.0-5.0-230.0","go-nogo","true","0","","true","<div class = centerbox><div  id = stim1></div></div>","32","32","750","","test","go","230","adv","","",""
"","336","32","1256","0","test_block","poldrack-single-stim","245","348992","0.0-5.0-231.0","go-nogo","true","0","","true","<div class = centerbox><div  id = stim1></div></div>","32","32","750","","test","go","231","adv","","",""
"","330","32","1416","0","test_block","poldrack-single-stim","246","350438","0.0-5.0-232.0","go-nogo","true","0","","true","<div class = centerbox><div  id = stim1></div></div>","32","32","750","","test","go","232","adv","","",""
"","-1","-1","1114","0","test_block","poldrack-single-stim","247","351583","0.0-5.0-233.0","go-nogo","true","0","","true","<div class = centerbox><div  id = stim2></div></div>","-1","32","750","","test","nogo","233","adv","","",""
"","378","32","1395","0","test_block","poldrack-single-stim","248","353010","0.0-5.0-234.0","go-nogo","true","0","","true","<div class = centerbox><div  id = stim1></div></div>","32","32","750","","test","go","234","adv","","",""
"","360","32","1238","0","test_block","poldrack-single-stim","249","354279","0.0-5.0-235.0","go-nogo","true","0","","true","<div class = centerbox><div  id = stim1></div></div>","32","32","750","","test","go","235","adv","","",""
"","694","32","1434","0","test_block","poldrack-single-stim","250","355749","0.0-5.0-236.0","go-nogo","true","0","","true","<div class = centerbox><div  id = stim1></div></div>","32","32","750","","test","go","236","adv","","",""
"","422","32","1067","0","test_block","poldrack-single-stim","251","356837","0.0-5.0-237.0","go-nogo","true","0","","true","<div class = centerbox><div  id = stim1></div></div>","32","32","750","","test","go","237","adv","","",""
"","-1","-1","1140","0","test_block","poldrack-single-stim","252","358007","0.0-5.0-238.0","go-nogo","true","0","","false","<div class = centerbox><div  id = stim1></div></div>","32","32","750","","test","go","238","adv","","",""
"","512","32","1466","0","test_block","poldrack-single-stim","253","359499","0.0-5.0-239.0","go-nogo","true","0","","true","<div class = centerbox><div  id = stim1></div></div>","32","32","750","","test","go","239","adv","","",""
"","748","32","1201","0","test_block","poldrack-single-stim","254","360734","0.0-5.0-240.0","go-nogo","true","0","","true","<div class = centerbox><div  id = stim1></div></div>","32","32","750","","test","go","240","adv","","",""
"","346","32","1047","0","test_block","poldrack-single-stim","255","361815","0.0-5.0-241.0","go-nogo","true","0","","true","<div class = centerbox><div  id = stim1></div></div>","32","32","750","","test","go","241","adv","","",""
"","437","32","1337","0","test_block","poldrack-single-stim","256","363181","0.0-5.0-242.0","go-nogo","true","0","","true","<div class = centerbox><div  id = stim1></div></div>","32","32","750","","test","go","242","adv","","",""
"","589","32","1294","0","test_block","poldrack-single-stim","257","364506","0.0-5.0-243.0","go-nogo","true","0","","true","<div class = centerbox><div  id = stim1></div></div>","32","32","750","","test","go","243","adv","","",""
"","392","32","1434","0","test_block","poldrack-single-stim","258","365971","0.0-5.0-244.0","go-nogo","true","0","","true","<div class = centerbox><div  id = stim1></div></div>","32","32","750","","test","go","244","adv","","",""
"","-1","-1","1380","0","test_block","poldrack-single-stim","259","367379","0.0-5.0-245.0","go-nogo","true","0","","true","<div class = centerbox><div  id = stim2></div></div>","-1","32","750","","test","nogo","245","adv","","",""
"","374","32","1177","0","test_block","poldrack-single-stim","260","368589","0.0-5.0-246.0","go-nogo","true","0","","true","<div class = centerbox><div  id = stim1></div></div>","32","32","750","","test","go","246","adv","","",""
"","349","32","1360","0","test_block","poldrack-single-stim","261","369981","0.0-5.0-247.0","go-nogo","true","0","","true","<div class = centerbox><div  id = stim1></div></div>","32","32","750","","test","go","247","adv","","",""
"","-1","-1","1290","0","test_block","poldrack-single-stim","262","371292","0.0-5.0-248.0","go-nogo","true","0","","false","<div class = centerbox><div  id = stim1></div></div>","32","32","750","","test","go","248","adv","","",""
"","-1","-1","1455","0","test_block","poldrack-single-stim","263","372777","0.0-5.0-249.0","go-nogo","true","0","","false","<div class = centerbox><div  id = stim1></div></div>","32","32","750","","test","go","249","adv","","",""
"","-1","-1","1126","0","test_block","poldrack-single-stim","264","373934","0.0-5.0-250.0","go-nogo","true","0","","false","<div class = centerbox><div  id = stim1></div></div>","32","32","750","","test","go","250","adv","","",""
"","882","32","1006","0","test_block","poldrack-single-stim","265","374965","0.0-5.0-251.0","go-nogo","true","0","","true","<div class = centerbox><div  id = stim1></div></div>","32","32","750","","test","go","251","adv","","",""
"","-1","-1","1458","0","test_block","poldrack-single-stim","266","376454","0.0-5.0-252.0","go-nogo","true","0","","true","<div class = centerbox><div  id = stim2></div></div>","-1","32","750","","test","nogo","252","adv","","",""
"","331","32","1445","0","test_block","poldrack-single-stim","267","377922","0.0-5.0-253.0","go-nogo","true","0","","true","<div class = centerbox><div  id = stim1></div></div>","32","32","750","","test","go","253","adv","","",""
"","-1","-1","1009","0","test_block","poldrack-single-stim","268","378962","0.0-5.0-254.0","go-nogo","true","0","","true","<div class = centerbox><div  id = stim2></div></div>","-1","32","750","","test","nogo","254","adv","","",""
"","441","32","1256","0","test_block","poldrack-single-stim","269","380249","0.0-5.0-255.0","go-nogo","true","0","","true","<div class = centerbox><div  id = stim1></div></div>","32","32","750","","test","go","255","adv","","",""
"","-1","-1","1111","0","test_block","poldrack-single-stim","270","381382","0.0-5.0-256.0","go-nogo","true","0","","true","<div class = centerbox><div  id = stim2></div></div>","-1","32","750","","test","nogo","256","adv","","",""
"","633","32","1150","0","test_block","poldrack-single-stim","271","382565","0.0-5.0-257.0","go-nogo","true","0","","true","<div class = centerbox><div  id = stim1></div></div>","32","32","750","","test","go","257","adv","","",""
"","-1","-1","1446","0","test_block","poldrack-single-stim","272","384046","0.0-5.0-258.0","go-nogo","true","0","","true","<div class = centerbox><div  id = stim2></div></div>","-1","32","750","","test","nogo","258","adv","","",""
"","310","32","1056","0","test_block","poldrack-single-stim","273","385122","0.0-5.0-259.0","go-nogo","true","0","","true","<div class = centerbox><div  id = stim1></div></div>","32","32","750","","test","go","259","adv","","",""
"","360","32","1336","0","test_block","poldrack-single-stim","274","386488","0.0-5.0-260.0","go-nogo","true","0","","true","<div class = centerbox><div  id = stim1></div></div>","32","32","750","","test","go","260","adv","","",""
"","522","32","1234","0","test_block","poldrack-single-stim","275","387752","0.0-5.0-261.0","go-nogo","true","0","","true","<div class = centerbox><div  id = stim1></div></div>","32","32","750","","test","go","261","adv","","",""
"","699","32","1411","0","test_block","poldrack-single-stim","276","389192","0.0-5.0-262.0","go-nogo","true","0","","true","<div class = centerbox><div  id = stim1></div></div>","32","32","750","","test","go","262","adv","","",""
"","312","32","1179","0","test_block","poldrack-single-stim","277","390402","0.0-5.0-263.0","go-nogo","true","0","","true","<div class = centerbox><div  id = stim1></div></div>","32","32","750","","test","go","263","adv","","",""
"","360","32","1064","0","test_block","poldrack-single-stim","278","391496","0.0-5.0-264.0","go-nogo","true","0","","true","<div class = centerbox><div  id = stim1></div></div>","32","32","750","","test","go","264","adv","","",""
"","321","32","1465","0","test_block","poldrack-single-stim","279","392992","0.0-5.0-265.0","go-nogo","true","0","","true","<div class = centerbox><div  id = stim1></div></div>","32","32","750","","test","go","265","adv","","",""
"","163","32","1143","0","test_block","poldrack-single-stim","280","394164","0.0-5.0-266.0","go-nogo","true","0","","true","<div class = centerbox><div  id = stim1></div></div>","32","32","750","","test","go","266","adv","","",""
"","318","32","1429","0","test_block","poldrack-single-stim","281","395623","0.0-5.0-267.0","go-nogo","true","0","","true","<div class = centerbox><div  id = stim1></div></div>","32","32","750","","test","go","267","adv","","",""
"","31","32","1389","0","test_block","poldrack-single-stim","282","397039","0.0-5.0-268.0","go-nogo","true","0","","true","<div class = centerbox><div  id = stim1></div></div>","32","32","750","","test","go","268","adv","","",""
"","301","32","1467","0","test_block","poldrack-single-stim","283","398535","0.0-5.0-269.0","go-nogo","true","0","","true","<div class = centerbox><div  id = stim1></div></div>","32","32","750","","test","go","269","adv","","",""
"","307","32","1459","0","test_block","poldrack-single-stim","284","400024","0.0-5.0-270.0","go-nogo","true","0","","true","<div class = centerbox><div  id = stim1></div></div>","32","32","750","","test","go","270","adv","","",""
"","360","32","1377","0","test_block","poldrack-single-stim","285","401426","0.0-5.0-271.0","go-nogo","true","0","","true","<div class = centerbox><div  id = stim1></div></div>","32","32","750","","test","go","271","adv","","",""
"","311","32","1491","0","test_block","poldrack-single-stim","286","402948","0.0-5.0-272.0","go-nogo","true","0","","true","<div class = centerbox><div  id = stim1></div></div>","32","32","750","","test","go","272","adv","","",""
"","343","32","1284","0","test_block","poldrack-single-stim","287","404269","0.0-5.0-273.0","go-nogo","true","0","","true","<div class = centerbox><div  id = stim1></div></div>","32","32","750","","test","go","273","adv","","",""
"","357","32","1245","0","test_block","poldrack-single-stim","288","405536","0.0-5.0-274.0","go-nogo","true","0","","false","<div class = centerbox><div  id = stim2></div></div>","-1","32","750","","test","nogo","274","adv","","",""
"","-1","-1","1273","0","test_block","poldrack-single-stim","289","406839","0.0-5.0-275.0","go-nogo","true","0","","true","<div class = centerbox><div  id = stim2></div></div>","-1","32","750","","test","nogo","275","adv","","",""
"","448","32","1347","0","test_block","poldrack-single-stim","290","408218","0.0-5.0-276.0","go-nogo","true","0","","true","<div class = centerbox><div  id = stim1></div></div>","32","32","750","","test","go","276","adv","","",""
"","416","32","1225","0","test_block","poldrack-single-stim","291","409465","0.0-5.0-277.0","go-nogo","true","0","","true","<div class = centerbox><div  id = stim1></div></div>","32","32","750","","test","go","277","adv","","",""
"","352","32","1238","0","test_block","poldrack-single-stim","292","410733","0.0-5.0-278.0","go-nogo","true","0","","true","<div class = centerbox><div  id = stim1></div></div>","32","32","750","","test","go","278","adv","","",""
"","-1","-1","1259","0","test_block","poldrack-single-stim","293","412025","0.0-5.0-279.0","go-nogo","true","0","","true","<div class = centerbox><div  id = stim2></div></div>","-1","32","750","","test","nogo","279","adv","","",""
"","417","32","1420","0","test_block","poldrack-single-stim","294","413466","0.0-5.0-280.0","go-nogo","true","0","","true","<div class = centerbox><div  id = stim1></div></div>","32","32","750","","test","go","280","adv","","",""
"","823","32","1181","0","test_block","poldrack-single-stim","295","414692","0.0-5.0-281.0","go-nogo","true","0","","true","<div class = centerbox><div  id = stim1></div></div>","32","32","750","","test","go","281","adv","","",""
"","468","32","1210","0","test_block","poldrack-single-stim","296","415999","0.0-5.0-282.0","go-nogo","true","0","","true","<div class = centerbox><div  id = stim1></div></div>","32","32","750","","test","go","282","adv","","",""
"","367","32","1421","0","test_block","poldrack-single-stim","297","417439","0.0-5.0-283.0","go-nogo","true","0","","true","<div class = centerbox><div  id = stim1></div></div>","32","32","750","","test","go","283","adv","","",""
"","338","32","1232","0","test_block","poldrack-single-stim","298","418711","0.0-5.0-284.0","go-nogo","true","0","","true","<div class = centerbox><div  id = stim1></div></div>","32","32","750","","test","go","284","adv","","",""
"","-1","-1","1008","0","test_block","poldrack-single-stim","299","419750","0.0-5.0-285.0","go-nogo","true","0","","true","<div class = centerbox><div  id = stim2></div></div>","-1","32","750","","test","nogo","285","adv","","",""
"","404","32","1435","0","test_block","poldrack-single-stim","300","421216","0.0-5.0-286.0","go-nogo","true","0","","true","<div class = centerbox><div  id = stim1></div></div>","32","32","750","","test","go","286","adv","","",""
"","324","32","1173","0","test_block","poldrack-single-stim","301","422418","0.0-5.0-287.0","go-nogo","true","0","","true","<div class = centerbox><div  id = stim1></div></div>","32","32","750","","test","go","287","adv","","",""
"","426","32","1339","0","test_block","poldrack-single-stim","302","423794","0.0-5.0-288.0","go-nogo","true","0","","true","<div class = centerbox><div  id = stim1></div></div>","32","32","750","","test","go","288","adv","","",""
"","417","32","1283","0","test_block","poldrack-single-stim","303","425107","0.0-5.0-289.0","go-nogo","true","0","","true","<div class = centerbox><div  id = stim1></div></div>","32","32","750","","test","go","289","adv","","",""
"","374","32","1343","0","test_block","poldrack-single-stim","304","426482","0.0-5.0-290.0","go-nogo","true","0","","true","<div class = centerbox><div  id = stim1></div></div>","32","32","750","","test","go","290","adv","","",""
"","343","32","1425","0","test_block","poldrack-single-stim","305","427938","0.0-5.0-291.0","go-nogo","true","0","","true","<div class = centerbox><div  id = stim1></div></div>","32","32","750","","test","go","291","adv","","",""
"","342","32","1092","0","test_block","poldrack-single-stim","306","429054","0.0-5.0-292.0","go-nogo","true","0","","true","<div class = centerbox><div  id = stim1></div></div>","32","32","750","","test","go","292","adv","","",""
"","413","32","1041","0","test_block","poldrack-single-stim","307","430124","0.0-5.0-293.0","go-nogo","true","0","","true","<div class = centerbox><div  id = stim1></div></div>","32","32","750","","test","go","293","adv","","",""
"","381","32","1338","0","test_block","poldrack-single-stim","308","431493","0.0-5.0-294.0","go-nogo","true","0","","true","<div class = centerbox><div  id = stim1></div></div>","32","32","750","","test","go","294","adv","","",""
"","340","32","1365","0","test_block","poldrack-single-stim","309","432890","0.0-5.0-295.0","go-nogo","true","0","","false","<div class = centerbox><div  id = stim2></div></div>","-1","32","750","","test","nogo","295","adv","","",""
"","-1","-1","1104","0","test_block","poldrack-single-stim","310","434024","0.0-5.0-296.0","go-nogo","true","0","","true","<div class = centerbox><div  id = stim2></div></div>","-1","32","750","","test","nogo","296","adv","","",""
"","540","32","1454","0","test_block","poldrack-single-stim","311","435501","0.0-5.0-297.0","go-nogo","true","0","","true","<div class = centerbox><div  id = stim1></div></div>","32","32","750","","test","go","297","adv","","",""
"","374","32","1037","0","test_block","poldrack-single-stim","312","436615","0.0-5.0-298.0","go-nogo","true","0","","true","<div class = centerbox><div  id = stim1></div></div>","32","32","750","","test","go","298","adv","","",""
"","545","32","1499","0","test_block","poldrack-single-stim","313","438146","0.0-5.0-299.0","go-nogo","true","0","","true","<div class = centerbox><div  id = stim1></div></div>","32","32","750","","test","go","299","adv","","",""
"","473","32","1013","0","test_block","poldrack-single-stim","314","439188","0.0-5.0-300.0","go-nogo","true","0","","true","<div class = centerbox><div  id = stim1></div></div>","32","32","750","","test","go","300","adv","","",""
"","-1","-1","1135","0","test_block","poldrack-single-stim","315","440350","0.0-5.0-301.0","go-nogo","true","0","","true","<div class = centerbox><div  id = stim2></div></div>","-1","32","750","","test","nogo","301","adv","","",""
"","469","32","1250","0","test_block","poldrack-single-stim","316","441622","0.0-5.0-302.0","go-nogo","true","0","","true","<div class = centerbox><div  id = stim1></div></div>","32","32","750","","test","go","302","adv","","",""
"","381","32","1444","0","test_block","poldrack-single-stim","317","443095","0.0-5.0-303.0","go-nogo","true","0","","true","<div class = centerbox><div  id = stim1></div></div>","32","32","750","","test","go","303","adv","","",""
"","429","32","1422","0","test_block","poldrack-single-stim","318","444546","0.0-5.0-304.0","go-nogo","true","0","","true","<div class = centerbox><div  id = stim1></div></div>","32","32","750","","test","go","304","adv","","",""
"","482","32","1461","0","test_block","poldrack-single-stim","319","446035","0.0-5.0-305.0","go-nogo","true","0","","true","<div class = centerbox><div  id = stim1></div></div>","32","32","750","","test","go","305","adv","","",""
"","352","32","1237","0","test_block","poldrack-single-stim","320","447293","0.0-5.0-306.0","go-nogo","true","0","","true","<div class = centerbox><div  id = stim1></div></div>","32","32","750","","test","go","306","adv","","",""
"","-1","-1","1309","0","test_block","poldrack-single-stim","321","448633","0.0-5.0-307.0","go-nogo","true","0","","true","<div class = centerbox><div  id = stim2></div></div>","-1","32","750","","test","nogo","307","adv","","",""
"","334","32","1149","0","test_block","poldrack-single-stim","322","449815","0.0-5.0-308.0","go-nogo","true","0","","true","<div class = centerbox><div  id = stim1></div></div>","32","32","750","","test","go","308","adv","","",""
"","827","32","1008","0","test_block","poldrack-single-stim","323","450853","0.0-5.0-309.0","go-nogo","true","0","","true","<div class = centerbox><div  id = stim1></div></div>","32","32","750","","test","go","309","adv","","",""
"","-1","-1","1068","0","test_block","poldrack-single-stim","324","451952","0.0-5.0-310.0","go-nogo","true","0","","false","<div class = centerbox><div  id = stim1></div></div>","32","32","750","","test","go","310","adv","","",""
"","122","32","1251","0","test_block","poldrack-single-stim","325","453233","0.0-5.0-311.0","go-nogo","true","0","","true","<div class = centerbox><div  id = stim1></div></div>","32","32","750","","test","go","311","adv","","",""
"","312","32","1330","0","test_block","poldrack-single-stim","326","454593","0.0-5.0-312.0","go-nogo","true","0","","true","<div class = centerbox><div  id = stim1></div></div>","32","32","750","","test","go","312","adv","","",""
"","417","32","1254","0","test_block","poldrack-single-stim","327","455901","0.0-5.0-313.0","go-nogo","true","0","","true","<div class = centerbox><div  id = stim1></div></div>","32","32","750","","test","go","313","adv","","",""
"","299","32","1314","0","test_block","poldrack-single-stim","328","457247","0.0-5.0-314.0","go-nogo","true","0","","true","<div class = centerbox><div  id = stim1></div></div>","32","32","750","","test","go","314","adv","","",""
"","211","32","1073","0","test_block","poldrack-single-stim","329","458357","0.0-5.0-315.0","go-nogo","true","0","","true","<div class = centerbox><div  id = stim1></div></div>","32","32","750","","test","go","315","adv","","",""
"","850","32","1440","0","test_block","poldrack-single-stim","330","459829","0.0-5.0-316.0","go-nogo","true","0","","true","<div class = centerbox><div  id = stim1></div></div>","32","32","750","","test","go","316","adv","","",""
"","-1","-1","1150","0","test_block","poldrack-single-stim","331","461011","0.0-5.0-317.0","go-nogo","true","0","","true","<div class = centerbox><div  id = stim2></div></div>","-1","32","750","","test","nogo","317","adv","","",""
"","366","32","1028","0","test_block","poldrack-single-stim","332","462069","0.0-5.0-318.0","go-nogo","true","0","","true","<div class = centerbox><div  id = stim1></div></div>","32","32","750","","test","go","318","adv","","",""
"","506","32","1149","0","test_block","poldrack-single-stim","333","463250","0.0-5.0-319.0","go-nogo","true","0","","true","<div class = centerbox><div  id = stim1></div></div>","32","32","750","","test","go","319","adv","","",""
"","374","32","1288","0","test_block","poldrack-single-stim","334","464569","0.0-5.0-320.0","go-nogo","true","0","","true","<div class = centerbox><div  id = stim1></div></div>","32","32","750","","test","go","320","adv","","",""
"","366","32","1169","0","test_block","poldrack-single-stim","335","465770","0.0-5.0-321.0","go-nogo","true","0","","true","<div class = centerbox><div  id = stim1></div></div>","32","32","750","","test","go","321","adv","","",""
"","631","32","1024","0","test_block","poldrack-single-stim","336","466824","0.0-5.0-322.0","go-nogo","true","0","","true","<div class = centerbox><div  id = stim1></div></div>","32","32","750","","test","go","322","adv","","",""
"","425","32","1331","0","test_block","poldrack-single-stim","337","468185","0.0-5.0-323.0","go-nogo","true","0","","true","<div class = centerbox><div  id = stim1></div></div>","32","32","750","","test","go","323","adv","","",""
"","270","32","1373","0","test_block","poldrack-single-stim","338","469590","0.0-5.0-324.0","go-nogo","true","0","","true","<div class = centerbox><div  id = stim1></div></div>","32","32","750","","test","go","324","adv","","",""
"","-1","-1","1232","0","test_block","poldrack-single-stim","339","470858","0.0-5.0-325.0","go-nogo","true","0","","false","<div class = centerbox><div  id = stim1></div></div>","32","32","750","","test","go","325","adv","","",""
"","366","32","1303","0","test_block","poldrack-single-stim","340","472191","0.0-5.0-326.0","go-nogo","true","0","","true","<div class = centerbox><div  id = stim1></div></div>","32","32","750","","test","go","326","adv","","",""
"","330","32","1174","0","test_block","poldrack-single-stim","341","473387","0.0-5.0-327.0","go-nogo","true","0","","true","<div class = centerbox><div  id = stim1></div></div>","32","32","750","","test","go","327","adv","","",""
"","335","32","1223","0","test_block","poldrack-single-stim","342","474641","0.0-5.0-328.0","go-nogo","true","0","","true","<div class = centerbox><div  id = stim1></div></div>","32","32","750","","test","go","328","adv","","",""
"","389","32","1210","0","test_block","poldrack-single-stim","343","475949","0.0-5.0-329.0","go-nogo","true","0","","true","<div class = centerbox><div  id = stim1></div></div>","32","32","750","","test","go","329","adv","","",""
"","355","32","1254","0","test_block","poldrack-single-stim","344","477227","0.0-5.0-330.0","go-nogo","true","0","","true","<div class = centerbox><div  id = stim1></div></div>","32","32","750","","test","go","330","adv","","",""
"","277","32","1362","0","test_block","poldrack-single-stim","345","478620","0.0-5.0-331.0","go-nogo","true","0","","false","<div class = centerbox><div  id = stim2></div></div>","-1","32","750","","test","nogo","331","adv","","",""
"","-1","-1","1022","0","test_block","poldrack-single-stim","346","479673","0.0-5.0-332.0","go-nogo","true","0","","true","<div class = centerbox><div  id = stim2></div></div>","-1","32","750","","test","nogo","332","adv","","",""
"","426","32","1251","0","test_block","poldrack-single-stim","347","480953","0.0-5.0-333.0","go-nogo","true","0","","true","<div class = centerbox><div  id = stim1></div></div>","32","32","750","","test","go","333","adv","","",""
"","273","32","1458","0","test_block","poldrack-single-stim","348","482440","0.0-5.0-334.0","go-nogo","true","0","","true","<div class = centerbox><div  id = stim1></div></div>","32","32","750","","test","go","334","adv","","",""
"","320","32","1151","0","test_block","poldrack-single-stim","349","483623","0.0-5.0-335.0","go-nogo","true","0","","true","<div class = centerbox><div  id = stim1></div></div>","32","32","750","","test","go","335","adv","","",""
"","-1","-1","1442","0","test_block","poldrack-single-stim","350","485101","0.0-5.0-336.0","go-nogo","true","0","","true","<div class = centerbox><div  id = stim2></div></div>","-1","32","750","","test","nogo","336","adv","","",""
"","581","32","1267","0","test_block","poldrack-single-stim","351","486398","0.0-5.0-337.0","go-nogo","true","0","","true","<div class = centerbox><div  id = stim1></div></div>","32","32","750","","test","go","337","adv","","",""
"","908","32","1229","0","test_block","poldrack-single-stim","352","487657","0.0-5.0-338.0","go-nogo","true","0","","true","<div class = centerbox><div  id = stim1></div></div>","32","32","750","","test","go","338","adv","","",""
"","781","32","1229","0","test_block","poldrack-single-stim","353","488920","0.0-5.0-339.0","go-nogo","true","0","","true","<div class = centerbox><div  id = stim1></div></div>","32","32","750","","test","go","339","adv","","",""
"","340","32","1076","0","test_block","poldrack-single-stim","354","490025","0.0-5.0-340.0","go-nogo","true","0","","true","<div class = centerbox><div  id = stim1></div></div>","32","32","750","","test","go","340","adv","","",""
"","477","32","1249","0","test_block","poldrack-single-stim","355","491308","0.0-5.0-341.0","go-nogo","true","0","","false","<div class = centerbox><div  id = stim2></div></div>","-1","32","750","","test","nogo","341","adv","","",""
"","-1","-1","1461","0","test_block","poldrack-single-stim","356","492798","0.0-5.0-342.0","go-nogo","true","0","","true","<div class = centerbox><div  id = stim2></div></div>","-1","32","750","","test","nogo","342","adv","","",""
"","748","32","1260","0","test_block","poldrack-single-stim","357","494087","0.0-5.0-343.0","go-nogo","true","0","","true","<div class = centerbox><div  id = stim1></div></div>","32","32","750","","test","go","343","adv","","",""
"","-1","-1","1112","0","test_block","poldrack-single-stim","358","495229","0.0-5.0-344.0","go-nogo","true","0","","true","<div class = centerbox><div  id = stim2></div></div>","-1","32","750","","test","nogo","344","adv","","",""
"","-1","-1","1458","0","test_block","poldrack-single-stim","359","496717","0.0-5.0-345.0","go-nogo","true","0","","true","<div class = centerbox><div  id = stim2></div></div>","-1","32","750","","test","nogo","345","adv","","",""
"","-1","-1","1009","0","test_block","poldrack-single-stim","360","497759","0.0-5.0-346.0","go-nogo","true","0","","true","<div class = centerbox><div  id = stim2></div></div>","-1","32","750","","test","nogo","346","adv","","",""
"","-1","-1","1349","0","test_block","poldrack-single-stim","361","499139","0.0-5.0-347.0","go-nogo","true","0","","true","<div class = centerbox><div  id = stim2></div></div>","-1","32","750","","test","nogo","347","adv","","",""
"","-1","-1","1348","0","test_block","poldrack-single-stim","362","500516","0.0-5.0-348.0","go-nogo","true","0","","true","<div class = centerbox><div  id = stim2></div></div>","-1","32","750","","test","nogo","348","adv","","",""
"","-1","-1","1042","0","test_block","poldrack-single-stim","363","501588","0.0-5.0-349.0","go-nogo","true","0","","true","<div class = centerbox><div  id = stim2></div></div>","-1","32","750","","test","nogo","349","adv","","",""
"","182206","","","","post task questions","survey-text","364","683831","0.0-7.0","go-nogo","true","1","","","","","","","","","","","","{""Q0"":""i press space button at orange"",""Q1"":""nice task...very interesting task..""}","",""
"<div class = centerbox><p class = center-block-text>Thanks for completing this task!</p><p class = center-block-text>Insert the following code to collect your payment at Amazon Mechanical Turk:</p><p class = center-block-text>715590317</p><p class = center-block-text>Press <strong>enter</strong> to continue.</p></div>","2367","13","2367","0","end","poldrack-text","365","687201","0.0-8.0","go-nogo","true","0","","","","","","","","","","","","","715590317","true"
