"text","rt","key_press","block_duration","timing_post_trial","trial_id","trial_type","trial_index","time_elapsed","internal_node_id","exp_id","full_screen","focus_shifts","view_history","correct","stimulus","correct_response","possible_responses","stim_duration","feedback_duration","exp_stage","condition","trial_num","mode","responses","payment_id","credit_var"
"<div class = centerbox><p class = center-block-text>Welcome to the experiment. This task will take around 10 minutes. Press <strong>enter</strong> to begin.</p></div>","5487","13","5487","0","instruction","poldrack-text","0","5491","0.0-0.0-0.0","go-nogo","true","0","","","","","","","","","","","","","",""
"","29750","","","","instruction","poldrack-instructions","1","35244","0.0-0.0-1.0","go-nogo","true","0","[{""page_index"":0,""viewing_time"":29749}]","","","","","","","","","","","","",""
"","-1","-1","1057","250","practice","poldrack-categorize","2","38312","0.0-1.0-0.0","go-nogo","true","0","","true","<div class = centerbox><div id = stim2></div></div>","-1","32","750","1000","practice","nogo","0","adv","","",""
"","624","32","1219","250","practice","poldrack-categorize","3","40787","0.0-1.0-1.0","go-nogo","true","0","","true","<div class = centerbox><div  id = stim1></div></div>","32","32","750","1000","practice","go","1","adv","","",""
"","581","32","1278","250","practice","poldrack-categorize","4","43320","0.0-1.0-2.0","go-nogo","true","0","","true","<div class = centerbox><div  id = stim1></div></div>","32","32","750","1000","practice","go","2","adv","","",""
"","440","32","1168","250","practice","poldrack-categorize","5","45743","0.0-1.0-3.0","go-nogo","true","0","","true","<div class = centerbox><div  id = stim1></div></div>","32","32","750","1000","practice","go","3","adv","","",""
"","-1","-1","1396","250","practice","poldrack-categorize","6","48395","0.0-1.0-4.0","go-nogo","true","0","","true","<div class = centerbox><div id = stim2></div></div>","-1","32","750","1000","practice","nogo","4","adv","","",""
"","373","32","1318","250","practice","poldrack-categorize","7","50971","0.0-1.0-5.0","go-nogo","true","0","","false","<div class = centerbox><div id = stim2></div></div>","-1","32","750","1000","practice","nogo","5","adv","","",""
"","716","32","1054","250","practice","poldrack-categorize","8","53281","0.0-1.0-6.0","go-nogo","true","0","","true","<div class = centerbox><div  id = stim1></div></div>","32","32","750","1000","practice","go","6","adv","","",""
"","-1","-1","1341","250","practice","poldrack-categorize","9","55877","0.0-1.0-7.0","go-nogo","true","0","","true","<div class = centerbox><div id = stim2></div></div>","-1","32","750","1000","practice","nogo","7","adv","","",""
"","-1","-1","1312","250","practice","poldrack-categorize","10","58445","0.0-1.0-8.0","go-nogo","true","0","","true","<div class = centerbox><div id = stim2></div></div>","-1","32","750","1000","practice","nogo","8","adv","","",""
"","501","32","1480","250","practice","poldrack-categorize","11","61178","0.0-1.0-9.0","go-nogo","true","0","","true","<div class = centerbox><div  id = stim1></div></div>","32","32","750","1000","practice","go","9","adv","","",""
"","","","","","reset_trial","call-function","12","61429","0.0-3.0","go-nogo","true","0","","","","","","","","","","","","","",""
"<div class = centerbox><p class = block-text>Practice is over, we will now begin the experiment. You will no longer get feedback about your responses.</p><p class = block-text>Remember, if you see the <font color=""orange"">orange</font> square you should <strong> respond by pressing the spacebar as quickly as possible</strong>. If you see the <font color=""blue"">blue</font> square you should <strong> not respond</strong>. Press <strong>enter</strong> to begin.</p></div>","9359","13","9359","1000","test_intro","poldrack-text","13","70790","0.0-4.0","go-nogo","true","0","","","","","","","","","","","","","",""
"","605","32","1179","0","test_block","poldrack-single-stim","14","72972","0.0-5.0-0.0","go-nogo","true","0","","true","<div class = centerbox><div  id = stim1></div></div>","32","32","750","","test","go","0","adv","","",""
"","579","32","1448","0","test_block","poldrack-single-stim","15","74498","0.0-5.0-1.0","go-nogo","true","0","","true","<div class = centerbox><div  id = stim1></div></div>","32","32","750","","test","go","1","adv","","",""
"","401","32","1431","0","test_block","poldrack-single-stim","16","75956","0.0-5.0-2.0","go-nogo","true","0","","true","<div class = centerbox><div  id = stim1></div></div>","32","32","750","","test","go","2","adv","","",""
"","903","32","1326","0","test_block","poldrack-single-stim","17","77309","0.0-5.0-3.0","go-nogo","true","0","","true","<div class = centerbox><div  id = stim1></div></div>","32","32","750","","test","go","3","adv","","",""
"","503","32","1179","0","test_block","poldrack-single-stim","18","78513","0.0-5.0-4.0","go-nogo","true","0","","true","<div class = centerbox><div  id = stim1></div></div>","32","32","750","","test","go","4","adv","","",""
"","417","32","1338","0","test_block","poldrack-single-stim","19","79910","0.0-5.0-5.0","go-nogo","true","0","","true","<div class = centerbox><div  id = stim1></div></div>","32","32","750","","test","go","5","adv","","",""
"","628","32","1460","0","test_block","poldrack-single-stim","20","81390","0.0-5.0-6.0","go-nogo","true","0","","true","<div class = centerbox><div  id = stim1></div></div>","32","32","750","","test","go","6","adv","","",""
"","509","32","1383","0","test_block","poldrack-single-stim","21","82807","0.0-5.0-7.0","go-nogo","true","0","","true","<div class = centerbox><div  id = stim1></div></div>","32","32","750","","test","go","7","adv","","",""
"","327","32","1260","0","test_block","poldrack-single-stim","22","84091","0.0-5.0-8.0","go-nogo","true","0","","true","<div class = centerbox><div  id = stim1></div></div>","32","32","750","","test","go","8","adv","","",""
"","393","32","1123","0","test_block","poldrack-single-stim","23","85231","0.0-5.0-9.0","go-nogo","true","0","","true","<div class = centerbox><div  id = stim1></div></div>","32","32","750","","test","go","9","adv","","",""
"","342","32","1088","0","test_block","poldrack-single-stim","24","86335","0.0-5.0-10.0","go-nogo","true","0","","true","<div class = centerbox><div  id = stim1></div></div>","32","32","750","","test","go","10","adv","","",""
"","319","32","1176","0","test_block","poldrack-single-stim","25","87535","0.0-5.0-11.0","go-nogo","true","0","","true","<div class = centerbox><div  id = stim1></div></div>","32","32","750","","test","go","11","adv","","",""
"","-1","-1","1005","0","test_block","poldrack-single-stim","26","88562","0.0-5.0-12.0","go-nogo","true","0","","false","<div class = centerbox><div  id = stim1></div></div>","32","32","750","","test","go","12","adv","","",""
"","517","32","1322","0","test_block","poldrack-single-stim","27","89899","0.0-5.0-13.0","go-nogo","true","0","","true","<div class = centerbox><div  id = stim1></div></div>","32","32","750","","test","go","13","adv","","",""
"","-1","-1","1482","0","test_block","poldrack-single-stim","28","91400","0.0-5.0-14.0","go-nogo","true","0","","true","<div class = centerbox><div  id = stim2></div></div>","-1","32","750","","test","nogo","14","adv","","",""
"","277","32","1385","0","test_block","poldrack-single-stim","29","92800","0.0-5.0-15.0","go-nogo","true","0","","true","<div class = centerbox><div  id = stim1></div></div>","32","32","750","","test","go","15","adv","","",""
"","-1","-1","1234","0","test_block","poldrack-single-stim","30","94049","0.0-5.0-16.0","go-nogo","true","0","","true","<div class = centerbox><div  id = stim2></div></div>","-1","32","750","","test","nogo","16","adv","","",""
"","353","32","1074","0","test_block","poldrack-single-stim","31","95142","0.0-5.0-17.0","go-nogo","true","0","","true","<div class = centerbox><div  id = stim1></div></div>","32","32","750","","test","go","17","adv","","",""
"","415","32","1068","0","test_block","poldrack-single-stim","32","96225","0.0-5.0-18.0","go-nogo","true","0","","true","<div class = centerbox><div  id = stim1></div></div>","32","32","750","","test","go","18","adv","","",""
"","470","32","1080","0","test_block","poldrack-single-stim","33","97318","0.0-5.0-19.0","go-nogo","true","0","","true","<div class = centerbox><div  id = stim1></div></div>","32","32","750","","test","go","19","adv","","",""
"","553","32","1480","0","test_block","poldrack-single-stim","34","98812","0.0-5.0-20.0","go-nogo","true","0","","true","<div class = centerbox><div  id = stim1></div></div>","32","32","750","","test","go","20","adv","","",""
"","418","32","1298","0","test_block","poldrack-single-stim","35","100124","0.0-5.0-21.0","go-nogo","true","0","","true","<div class = centerbox><div  id = stim1></div></div>","32","32","750","","test","go","21","adv","","",""
"","377","32","1148","0","test_block","poldrack-single-stim","36","101287","0.0-5.0-22.0","go-nogo","true","0","","true","<div class = centerbox><div  id = stim1></div></div>","32","32","750","","test","go","22","adv","","",""
"","270","32","1425","0","test_block","poldrack-single-stim","37","102727","0.0-5.0-23.0","go-nogo","true","0","","true","<div class = centerbox><div  id = stim1></div></div>","32","32","750","","test","go","23","adv","","",""
"","367","32","1286","0","test_block","poldrack-single-stim","38","104028","0.0-5.0-24.0","go-nogo","true","0","","true","<div class = centerbox><div  id = stim1></div></div>","32","32","750","","test","go","24","adv","","",""
"","307","32","1074","0","test_block","poldrack-single-stim","39","105115","0.0-5.0-25.0","go-nogo","true","0","","true","<div class = centerbox><div  id = stim1></div></div>","32","32","750","","test","go","25","adv","","",""
"","466","32","1493","0","test_block","poldrack-single-stim","40","106625","0.0-5.0-26.0","go-nogo","true","0","","true","<div class = centerbox><div  id = stim1></div></div>","32","32","750","","test","go","26","adv","","",""
"","303","32","1256","0","test_block","poldrack-single-stim","41","107894","0.0-5.0-27.0","go-nogo","true","0","","true","<div class = centerbox><div  id = stim1></div></div>","32","32","750","","test","go","27","adv","","",""
"","312","32","1309","0","test_block","poldrack-single-stim","42","109217","0.0-5.0-28.0","go-nogo","true","0","","true","<div class = centerbox><div  id = stim1></div></div>","32","32","750","","test","go","28","adv","","",""
"","361","32","1415","0","test_block","poldrack-single-stim","43","110645","0.0-5.0-29.0","go-nogo","true","0","","true","<div class = centerbox><div  id = stim1></div></div>","32","32","750","","test","go","29","adv","","",""
"","307","32","1093","0","test_block","poldrack-single-stim","44","111751","0.0-5.0-30.0","go-nogo","true","0","","true","<div class = centerbox><div  id = stim1></div></div>","32","32","750","","test","go","30","adv","","",""
"","432","32","1079","0","test_block","poldrack-single-stim","45","112843","0.0-5.0-31.0","go-nogo","true","0","","true","<div class = centerbox><div  id = stim1></div></div>","32","32","750","","test","go","31","adv","","",""
"","365","32","1162","0","test_block","poldrack-single-stim","46","114020","0.0-5.0-32.0","go-nogo","true","0","","true","<div class = centerbox><div  id = stim1></div></div>","32","32","750","","test","go","32","adv","","",""
"","302","32","1316","0","test_block","poldrack-single-stim","47","115348","0.0-5.0-33.0","go-nogo","true","0","","true","<div class = centerbox><div  id = stim1></div></div>","32","32","750","","test","go","33","adv","","",""
"","402","32","1472","0","test_block","poldrack-single-stim","48","116836","0.0-5.0-34.0","go-nogo","true","0","","true","<div class = centerbox><div  id = stim1></div></div>","32","32","750","","test","go","34","adv","","",""
"","331","32","1045","0","test_block","poldrack-single-stim","49","117895","0.0-5.0-35.0","go-nogo","true","0","","true","<div class = centerbox><div  id = stim1></div></div>","32","32","750","","test","go","35","adv","","",""
"","371","32","1290","0","test_block","poldrack-single-stim","50","119197","0.0-5.0-36.0","go-nogo","true","0","","true","<div class = centerbox><div  id = stim1></div></div>","32","32","750","","test","go","36","adv","","",""
"","300","32","1349","0","test_block","poldrack-single-stim","51","120559","0.0-5.0-37.0","go-nogo","true","0","","true","<div class = centerbox><div  id = stim1></div></div>","32","32","750","","test","go","37","adv","","",""
"","285","32","1165","0","test_block","poldrack-single-stim","52","121743","0.0-5.0-38.0","go-nogo","true","0","","true","<div class = centerbox><div  id = stim1></div></div>","32","32","750","","test","go","38","adv","","",""
"","368","32","1347","0","test_block","poldrack-single-stim","53","123105","0.0-5.0-39.0","go-nogo","true","0","","true","<div class = centerbox><div  id = stim1></div></div>","32","32","750","","test","go","39","adv","","",""
"","319","32","1437","0","test_block","poldrack-single-stim","54","124556","0.0-5.0-40.0","go-nogo","true","0","","true","<div class = centerbox><div  id = stim1></div></div>","32","32","750","","test","go","40","adv","","",""
"","357","32","1182","0","test_block","poldrack-single-stim","55","125750","0.0-5.0-41.0","go-nogo","true","0","","true","<div class = centerbox><div  id = stim1></div></div>","32","32","750","","test","go","41","adv","","",""
"","436","32","1077","0","test_block","poldrack-single-stim","56","126839","0.0-5.0-42.0","go-nogo","true","0","","true","<div class = centerbox><div  id = stim1></div></div>","32","32","750","","test","go","42","adv","","",""
"","419","32","1244","0","test_block","poldrack-single-stim","57","128094","0.0-5.0-43.0","go-nogo","true","0","","true","<div class = centerbox><div  id = stim1></div></div>","32","32","750","","test","go","43","adv","","",""
"","316","32","1383","0","test_block","poldrack-single-stim","58","129497","0.0-5.0-44.0","go-nogo","true","0","","true","<div class = centerbox><div  id = stim1></div></div>","32","32","750","","test","go","44","adv","","",""
"","374","32","1387","0","test_block","poldrack-single-stim","59","130898","0.0-5.0-45.0","go-nogo","true","0","","true","<div class = centerbox><div  id = stim1></div></div>","32","32","750","","test","go","45","adv","","",""
"","351","32","1215","0","test_block","poldrack-single-stim","60","132125","0.0-5.0-46.0","go-nogo","true","0","","true","<div class = centerbox><div  id = stim1></div></div>","32","32","750","","test","go","46","adv","","",""
"","377","32","1233","0","test_block","poldrack-single-stim","61","133375","0.0-5.0-47.0","go-nogo","true","0","","true","<div class = centerbox><div  id = stim1></div></div>","32","32","750","","test","go","47","adv","","",""
"","431","32","1024","0","test_block","poldrack-single-stim","62","134414","0.0-5.0-48.0","go-nogo","true","0","","true","<div class = centerbox><div  id = stim1></div></div>","32","32","750","","test","go","48","adv","","",""
"","565","32","1451","0","test_block","poldrack-single-stim","63","135876","0.0-5.0-49.0","go-nogo","true","0","","true","<div class = centerbox><div  id = stim1></div></div>","32","32","750","","test","go","49","adv","","",""
"","379","32","1265","0","test_block","poldrack-single-stim","64","137156","0.0-5.0-50.0","go-nogo","true","0","","true","<div class = centerbox><div  id = stim1></div></div>","32","32","750","","test","go","50","adv","","",""
"","414","32","1452","0","test_block","poldrack-single-stim","65","138620","0.0-5.0-51.0","go-nogo","true","0","","true","<div class = centerbox><div  id = stim1></div></div>","32","32","750","","test","go","51","adv","","",""
"","455","32","1299","0","test_block","poldrack-single-stim","66","139929","0.0-5.0-52.0","go-nogo","true","0","","true","<div class = centerbox><div  id = stim1></div></div>","32","32","750","","test","go","52","adv","","",""
"","458","32","1433","0","test_block","poldrack-single-stim","67","141373","0.0-5.0-53.0","go-nogo","true","0","","true","<div class = centerbox><div  id = stim1></div></div>","32","32","750","","test","go","53","adv","","",""
"","326","32","1169","0","test_block","poldrack-single-stim","68","142553","0.0-5.0-54.0","go-nogo","true","0","","true","<div class = centerbox><div  id = stim1></div></div>","32","32","750","","test","go","54","adv","","",""
"","450","32","1354","0","test_block","poldrack-single-stim","69","143918","0.0-5.0-55.0","go-nogo","true","0","","true","<div class = centerbox><div  id = stim1></div></div>","32","32","750","","test","go","55","adv","","",""
"","476","32","1251","0","test_block","poldrack-single-stim","70","145180","0.0-5.0-56.0","go-nogo","true","0","","true","<div class = centerbox><div  id = stim1></div></div>","32","32","750","","test","go","56","adv","","",""
"","407","32","1432","0","test_block","poldrack-single-stim","71","146623","0.0-5.0-57.0","go-nogo","true","0","","true","<div class = centerbox><div  id = stim1></div></div>","32","32","750","","test","go","57","adv","","",""
"","347","32","1312","0","test_block","poldrack-single-stim","72","147946","0.0-5.0-58.0","go-nogo","true","0","","true","<div class = centerbox><div  id = stim1></div></div>","32","32","750","","test","go","58","adv","","",""
"","393","32","1469","0","test_block","poldrack-single-stim","73","149433","0.0-5.0-59.0","go-nogo","true","0","","true","<div class = centerbox><div  id = stim1></div></div>","32","32","750","","test","go","59","adv","","",""
"","337","32","1440","0","test_block","poldrack-single-stim","74","150883","0.0-5.0-60.0","go-nogo","true","0","","true","<div class = centerbox><div  id = stim1></div></div>","32","32","750","","test","go","60","adv","","",""
"","591","32","1237","0","test_block","poldrack-single-stim","75","152131","0.0-5.0-61.0","go-nogo","true","0","","true","<div class = centerbox><div  id = stim1></div></div>","32","32","750","","test","go","61","adv","","",""
"","406","32","1027","0","test_block","poldrack-single-stim","76","153170","0.0-5.0-62.0","go-nogo","true","0","","true","<div class = centerbox><div  id = stim1></div></div>","32","32","750","","test","go","62","adv","","",""
"","502","32","1175","0","test_block","poldrack-single-stim","77","154357","0.0-5.0-63.0","go-nogo","true","0","","true","<div class = centerbox><div  id = stim1></div></div>","32","32","750","","test","go","63","adv","","",""
"","583","32","1286","0","test_block","poldrack-single-stim","78","155660","0.0-5.0-64.0","go-nogo","true","0","","true","<div class = centerbox><div  id = stim1></div></div>","32","32","750","","test","go","64","adv","","",""
"","382","32","1474","0","test_block","poldrack-single-stim","79","157145","0.0-5.0-65.0","go-nogo","true","0","","true","<div class = centerbox><div  id = stim1></div></div>","32","32","750","","test","go","65","adv","","",""
"","401","32","1456","0","test_block","poldrack-single-stim","80","158612","0.0-5.0-66.0","go-nogo","true","0","","true","<div class = centerbox><div  id = stim1></div></div>","32","32","750","","test","go","66","adv","","",""
"","373","32","1259","0","test_block","poldrack-single-stim","81","159883","0.0-5.0-67.0","go-nogo","true","0","","true","<div class = centerbox><div  id = stim1></div></div>","32","32","750","","test","go","67","adv","","",""
"","335","32","1446","0","test_block","poldrack-single-stim","82","161339","0.0-5.0-68.0","go-nogo","true","0","","true","<div class = centerbox><div  id = stim1></div></div>","32","32","750","","test","go","68","adv","","",""
"","367","32","1278","0","test_block","poldrack-single-stim","83","162628","0.0-5.0-69.0","go-nogo","true","0","","true","<div class = centerbox><div  id = stim1></div></div>","32","32","750","","test","go","69","adv","","",""
"","317","32","1342","0","test_block","poldrack-single-stim","84","163981","0.0-5.0-70.0","go-nogo","true","0","","true","<div class = centerbox><div  id = stim1></div></div>","32","32","750","","test","go","70","adv","","",""
"","331","32","1208","0","test_block","poldrack-single-stim","85","165202","0.0-5.0-71.0","go-nogo","true","0","","true","<div class = centerbox><div  id = stim1></div></div>","32","32","750","","test","go","71","adv","","",""
"","384","32","1045","0","test_block","poldrack-single-stim","86","166257","0.0-5.0-72.0","go-nogo","true","0","","true","<div class = centerbox><div  id = stim1></div></div>","32","32","750","","test","go","72","adv","","",""
"","515","32","1233","0","test_block","poldrack-single-stim","87","167506","0.0-5.0-73.0","go-nogo","true","0","","true","<div class = centerbox><div  id = stim1></div></div>","32","32","750","","test","go","73","adv","","",""
"","400","32","1115","0","test_block","poldrack-single-stim","88","168631","0.0-5.0-74.0","go-nogo","true","0","","true","<div class = centerbox><div  id = stim1></div></div>","32","32","750","","test","go","74","adv","","",""
"","419","32","1145","0","test_block","poldrack-single-stim","89","169786","0.0-5.0-75.0","go-nogo","true","0","","true","<div class = centerbox><div  id = stim1></div></div>","32","32","750","","test","go","75","adv","","",""
"","415","32","1153","0","test_block","poldrack-single-stim","90","170950","0.0-5.0-76.0","go-nogo","true","0","","true","<div class = centerbox><div  id = stim1></div></div>","32","32","750","","test","go","76","adv","","",""
"","691","32","1037","0","test_block","poldrack-single-stim","91","171998","0.0-5.0-77.0","go-nogo","true","0","","true","<div class = centerbox><div  id = stim1></div></div>","32","32","750","","test","go","77","adv","","",""
"","1010","32","1253","0","test_block","poldrack-single-stim","92","173263","0.0-5.0-78.0","go-nogo","true","0","","true","<div class = centerbox><div  id = stim1></div></div>","32","32","750","","test","go","78","adv","","",""
"","731","32","1068","0","test_block","poldrack-single-stim","93","174343","0.0-5.0-79.0","go-nogo","true","0","","true","<div class = centerbox><div  id = stim1></div></div>","32","32","750","","test","go","79","adv","","",""
"","586","32","1411","0","test_block","poldrack-single-stim","94","175766","0.0-5.0-80.0","go-nogo","true","0","","true","<div class = centerbox><div  id = stim1></div></div>","32","32","750","","test","go","80","adv","","",""
"","309","32","1176","0","test_block","poldrack-single-stim","95","176952","0.0-5.0-81.0","go-nogo","true","0","","true","<div class = centerbox><div  id = stim1></div></div>","32","32","750","","test","go","81","adv","","",""
"","394","32","1398","0","test_block","poldrack-single-stim","96","178361","0.0-5.0-82.0","go-nogo","true","0","","true","<div class = centerbox><div  id = stim1></div></div>","32","32","750","","test","go","82","adv","","",""
"","306","32","1420","0","test_block","poldrack-single-stim","97","179790","0.0-5.0-83.0","go-nogo","true","0","","true","<div class = centerbox><div  id = stim1></div></div>","32","32","750","","test","go","83","adv","","",""
"","324","32","1473","0","test_block","poldrack-single-stim","98","181274","0.0-5.0-84.0","go-nogo","true","0","","true","<div class = centerbox><div  id = stim1></div></div>","32","32","750","","test","go","84","adv","","",""
"","353","32","1407","0","test_block","poldrack-single-stim","99","182691","0.0-5.0-85.0","go-nogo","true","0","","true","<div class = centerbox><div  id = stim1></div></div>","32","32","750","","test","go","85","adv","","",""
"","424","32","1118","0","test_block","poldrack-single-stim","100","183820","0.0-5.0-86.0","go-nogo","true","0","","true","<div class = centerbox><div  id = stim1></div></div>","32","32","750","","test","go","86","adv","","",""
"","471","32","1434","0","test_block","poldrack-single-stim","101","185265","0.0-5.0-87.0","go-nogo","true","0","","true","<div class = centerbox><div  id = stim1></div></div>","32","32","750","","test","go","87","adv","","",""
"","378","32","1102","0","test_block","poldrack-single-stim","102","186377","0.0-5.0-88.0","go-nogo","true","0","","true","<div class = centerbox><div  id = stim1></div></div>","32","32","750","","test","go","88","adv","","",""
"","506","32","1003","0","test_block","poldrack-single-stim","103","187391","0.0-5.0-89.0","go-nogo","true","0","","true","<div class = centerbox><div  id = stim1></div></div>","32","32","750","","test","go","89","adv","","",""
"","741","32","1088","0","test_block","poldrack-single-stim","104","188488","0.0-5.0-90.0","go-nogo","true","0","","true","<div class = centerbox><div  id = stim1></div></div>","32","32","750","","test","go","90","adv","","",""
"","835","32","1204","0","test_block","poldrack-single-stim","105","189710","0.0-5.0-91.0","go-nogo","true","0","","true","<div class = centerbox><div  id = stim1></div></div>","32","32","750","","test","go","91","adv","","",""
"","643","32","1188","0","test_block","poldrack-single-stim","106","190910","0.0-5.0-92.0","go-nogo","true","0","","true","<div class = centerbox><div  id = stim1></div></div>","32","32","750","","test","go","92","adv","","",""
"","453","32","1088","0","test_block","poldrack-single-stim","107","192008","0.0-5.0-93.0","go-nogo","true","0","","true","<div class = centerbox><div  id = stim1></div></div>","32","32","750","","test","go","93","adv","","",""
"","403","32","1292","0","test_block","poldrack-single-stim","108","193310","0.0-5.0-94.0","go-nogo","true","0","","true","<div class = centerbox><div  id = stim1></div></div>","32","32","750","","test","go","94","adv","","",""
"","325","32","1287","0","test_block","poldrack-single-stim","109","194607","0.0-5.0-95.0","go-nogo","true","0","","true","<div class = centerbox><div  id = stim1></div></div>","32","32","750","","test","go","95","adv","","",""
"","330","32","1165","0","test_block","poldrack-single-stim","110","195783","0.0-5.0-96.0","go-nogo","true","0","","true","<div class = centerbox><div  id = stim1></div></div>","32","32","750","","test","go","96","adv","","",""
"","339","32","1178","0","test_block","poldrack-single-stim","111","196971","0.0-5.0-97.0","go-nogo","true","0","","true","<div class = centerbox><div  id = stim1></div></div>","32","32","750","","test","go","97","adv","","",""
"","335","32","1168","0","test_block","poldrack-single-stim","112","198149","0.0-5.0-98.0","go-nogo","true","0","","true","<div class = centerbox><div  id = stim1></div></div>","32","32","750","","test","go","98","adv","","",""
"","390","32","1015","0","test_block","poldrack-single-stim","113","199174","0.0-5.0-99.0","go-nogo","true","0","","true","<div class = centerbox><div  id = stim1></div></div>","32","32","750","","test","go","99","adv","","",""
"","588","32","1113","0","test_block","poldrack-single-stim","114","200298","0.0-5.0-100.0","go-nogo","true","0","","true","<div class = centerbox><div  id = stim1></div></div>","32","32","750","","test","go","100","adv","","",""
"","556","32","1089","0","test_block","poldrack-single-stim","115","201402","0.0-5.0-101.0","go-nogo","true","0","","true","<div class = centerbox><div  id = stim1></div></div>","32","32","750","","test","go","101","adv","","",""
"","592","32","1360","0","test_block","poldrack-single-stim","116","202772","0.0-5.0-102.0","go-nogo","true","0","","true","<div class = centerbox><div  id = stim1></div></div>","32","32","750","","test","go","102","adv","","",""
"","663","32","1254","0","test_block","poldrack-single-stim","117","204036","0.0-5.0-103.0","go-nogo","true","0","","true","<div class = centerbox><div  id = stim1></div></div>","32","32","750","","test","go","103","adv","","",""
"","686","32","1216","0","test_block","poldrack-single-stim","118","205262","0.0-5.0-104.0","go-nogo","true","0","","true","<div class = centerbox><div  id = stim1></div></div>","32","32","750","","test","go","104","adv","","",""
"","530","32","1112","0","test_block","poldrack-single-stim","119","206386","0.0-5.0-105.0","go-nogo","true","0","","true","<div class = centerbox><div  id = stim1></div></div>","32","32","750","","test","go","105","adv","","",""
"","641","32","1220","0","test_block","poldrack-single-stim","120","207615","0.0-5.0-106.0","go-nogo","true","0","","true","<div class = centerbox><div  id = stim1></div></div>","32","32","750","","test","go","106","adv","","",""
"","634","32","1190","0","test_block","poldrack-single-stim","121","208816","0.0-5.0-107.0","go-nogo","true","0","","true","<div class = centerbox><div  id = stim1></div></div>","32","32","750","","test","go","107","adv","","",""
"","738","32","1050","0","test_block","poldrack-single-stim","122","209876","0.0-5.0-108.0","go-nogo","true","0","","true","<div class = centerbox><div  id = stim1></div></div>","32","32","750","","test","go","108","adv","","",""
"","973","32","1094","0","test_block","poldrack-single-stim","123","210981","0.0-5.0-109.0","go-nogo","true","0","","true","<div class = centerbox><div  id = stim1></div></div>","32","32","750","","test","go","109","adv","","",""
"","831","32","1259","0","test_block","poldrack-single-stim","124","212256","0.0-5.0-110.0","go-nogo","true","0","","true","<div class = centerbox><div  id = stim1></div></div>","32","32","750","","test","go","110","adv","","",""
"","796","32","1430","0","test_block","poldrack-single-stim","125","213702","0.0-5.0-111.0","go-nogo","true","0","","true","<div class = centerbox><div  id = stim1></div></div>","32","32","750","","test","go","111","adv","","",""
"","927","32","1079","0","test_block","poldrack-single-stim","126","214796","0.0-5.0-112.0","go-nogo","true","0","","true","<div class = centerbox><div  id = stim1></div></div>","32","32","750","","test","go","112","adv","","",""
"","950","32","1255","0","test_block","poldrack-single-stim","127","216061","0.0-5.0-113.0","go-nogo","true","0","","true","<div class = centerbox><div  id = stim1></div></div>","32","32","750","","test","go","113","adv","","",""
"","654","32","1304","0","test_block","poldrack-single-stim","128","217374","0.0-5.0-114.0","go-nogo","true","0","","true","<div class = centerbox><div  id = stim1></div></div>","32","32","750","","test","go","114","adv","","",""
"","379","32","1300","0","test_block","poldrack-single-stim","129","218685","0.0-5.0-115.0","go-nogo","true","0","","true","<div class = centerbox><div  id = stim1></div></div>","32","32","750","","test","go","115","adv","","",""
"","429","32","1098","0","test_block","poldrack-single-stim","130","219793","0.0-5.0-116.0","go-nogo","true","0","","true","<div class = centerbox><div  id = stim1></div></div>","32","32","750","","test","go","116","adv","","",""
"","457","32","1095","0","test_block","poldrack-single-stim","131","220899","0.0-5.0-117.0","go-nogo","true","0","","true","<div class = centerbox><div  id = stim1></div></div>","32","32","750","","test","go","117","adv","","",""
"","423","32","1044","0","test_block","poldrack-single-stim","132","221971","0.0-5.0-118.0","go-nogo","true","0","","true","<div class = centerbox><div  id = stim1></div></div>","32","32","750","","test","go","118","adv","","",""
"","422","32","1248","0","test_block","poldrack-single-stim","133","223231","0.0-5.0-119.0","go-nogo","true","0","","true","<div class = centerbox><div  id = stim1></div></div>","32","32","750","","test","go","119","adv","","",""
"","322","32","1380","0","test_block","poldrack-single-stim","134","224621","0.0-5.0-120.0","go-nogo","true","0","","true","<div class = centerbox><div  id = stim1></div></div>","32","32","750","","test","go","120","adv","","",""
"","349","32","1342","0","test_block","poldrack-single-stim","135","225973","0.0-5.0-121.0","go-nogo","true","0","","true","<div class = centerbox><div  id = stim1></div></div>","32","32","750","","test","go","121","adv","","",""
"","365","32","1426","0","test_block","poldrack-single-stim","136","227409","0.0-5.0-122.0","go-nogo","true","0","","true","<div class = centerbox><div  id = stim1></div></div>","32","32","750","","test","go","122","adv","","",""
"","336","32","1395","0","test_block","poldrack-single-stim","137","228814","0.0-5.0-123.0","go-nogo","true","0","","true","<div class = centerbox><div  id = stim1></div></div>","32","32","750","","test","go","123","adv","","",""
"","434","32","1214","0","test_block","poldrack-single-stim","138","230040","0.0-5.0-124.0","go-nogo","true","0","","true","<div class = centerbox><div  id = stim1></div></div>","32","32","750","","test","go","124","adv","","",""
"","426","32","1130","0","test_block","poldrack-single-stim","139","231180","0.0-5.0-125.0","go-nogo","true","0","","true","<div class = centerbox><div  id = stim1></div></div>","32","32","750","","test","go","125","adv","","",""
"","439","32","1303","0","test_block","poldrack-single-stim","140","232493","0.0-5.0-126.0","go-nogo","true","0","","true","<div class = centerbox><div  id = stim1></div></div>","32","32","750","","test","go","126","adv","","",""
"","277","32","1047","0","test_block","poldrack-single-stim","141","233550","0.0-5.0-127.0","go-nogo","true","0","","true","<div class = centerbox><div  id = stim1></div></div>","32","32","750","","test","go","127","adv","","",""
"","363","32","1251","0","test_block","poldrack-single-stim","142","234813","0.0-5.0-128.0","go-nogo","true","0","","true","<div class = centerbox><div  id = stim1></div></div>","32","32","750","","test","go","128","adv","","",""
"","383","32","1113","0","test_block","poldrack-single-stim","143","235936","0.0-5.0-129.0","go-nogo","true","0","","true","<div class = centerbox><div  id = stim1></div></div>","32","32","750","","test","go","129","adv","","",""
"","516","32","1149","0","test_block","poldrack-single-stim","144","237095","0.0-5.0-130.0","go-nogo","true","0","","true","<div class = centerbox><div  id = stim1></div></div>","32","32","750","","test","go","130","adv","","",""
"","-1","-1","1064","0","test_block","poldrack-single-stim","145","238172","0.0-5.0-131.0","go-nogo","true","0","","true","<div class = centerbox><div  id = stim2></div></div>","-1","32","750","","test","nogo","131","adv","","",""
"","446","32","1399","0","test_block","poldrack-single-stim","146","239583","0.0-5.0-132.0","go-nogo","true","0","","true","<div class = centerbox><div  id = stim1></div></div>","32","32","750","","test","go","132","adv","","",""
"","380","32","1039","0","test_block","poldrack-single-stim","147","240632","0.0-5.0-133.0","go-nogo","true","0","","true","<div class = centerbox><div  id = stim1></div></div>","32","32","750","","test","go","133","adv","","",""
"","590","32","1260","0","test_block","poldrack-single-stim","148","241908","0.0-5.0-134.0","go-nogo","true","0","","true","<div class = centerbox><div  id = stim1></div></div>","32","32","750","","test","go","134","adv","","",""
"","384","32","1493","0","test_block","poldrack-single-stim","149","243411","0.0-5.0-135.0","go-nogo","true","0","","true","<div class = centerbox><div  id = stim1></div></div>","32","32","750","","test","go","135","adv","","",""
"","344","32","1247","0","test_block","poldrack-single-stim","150","244668","0.0-5.0-136.0","go-nogo","true","0","","true","<div class = centerbox><div  id = stim1></div></div>","32","32","750","","test","go","136","adv","","",""
"","319","32","1429","0","test_block","poldrack-single-stim","151","246107","0.0-5.0-137.0","go-nogo","true","0","","true","<div class = centerbox><div  id = stim1></div></div>","32","32","750","","test","go","137","adv","","",""
"","297","32","1055","0","test_block","poldrack-single-stim","152","247171","0.0-5.0-138.0","go-nogo","true","0","","false","<div class = centerbox><div  id = stim2></div></div>","-1","32","750","","test","nogo","138","adv","","",""
"","-1","-1","1225","0","test_block","poldrack-single-stim","153","248406","0.0-5.0-139.0","go-nogo","true","0","","true","<div class = centerbox><div  id = stim2></div></div>","-1","32","750","","test","nogo","139","adv","","",""
"","508","32","1404","0","test_block","poldrack-single-stim","154","249820","0.0-5.0-140.0","go-nogo","true","0","","true","<div class = centerbox><div  id = stim1></div></div>","32","32","750","","test","go","140","adv","","",""
"","382","32","1155","0","test_block","poldrack-single-stim","155","250985","0.0-5.0-141.0","go-nogo","true","0","","true","<div class = centerbox><div  id = stim1></div></div>","32","32","750","","test","go","141","adv","","",""
"","361","32","1147","0","test_block","poldrack-single-stim","156","252142","0.0-5.0-142.0","go-nogo","true","0","","true","<div class = centerbox><div  id = stim1></div></div>","32","32","750","","test","go","142","adv","","",""
"","550","32","1323","0","test_block","poldrack-single-stim","157","253475","0.0-5.0-143.0","go-nogo","true","0","","true","<div class = centerbox><div  id = stim1></div></div>","32","32","750","","test","go","143","adv","","",""
"","-1","-1","1361","0","test_block","poldrack-single-stim","158","254846","0.0-5.0-144.0","go-nogo","true","0","","true","<div class = centerbox><div  id = stim2></div></div>","-1","32","750","","test","nogo","144","adv","","",""
"","428","32","1437","0","test_block","poldrack-single-stim","159","256293","0.0-5.0-145.0","go-nogo","true","0","","true","<div class = centerbox><div  id = stim1></div></div>","32","32","750","","test","go","145","adv","","",""
"","556","32","1446","0","test_block","poldrack-single-stim","160","257750","0.0-5.0-146.0","go-nogo","true","0","","true","<div class = centerbox><div  id = stim1></div></div>","32","32","750","","test","go","146","adv","","",""
"","396","32","1267","0","test_block","poldrack-single-stim","161","259027","0.0-5.0-147.0","go-nogo","true","0","","true","<div class = centerbox><div  id = stim1></div></div>","32","32","750","","test","go","147","adv","","",""
"","375","32","1082","0","test_block","poldrack-single-stim","162","260119","0.0-5.0-148.0","go-nogo","true","0","","true","<div class = centerbox><div  id = stim1></div></div>","32","32","750","","test","go","148","adv","","",""
"","395","32","1244","0","test_block","poldrack-single-stim","163","261373","0.0-5.0-149.0","go-nogo","true","0","","true","<div class = centerbox><div  id = stim1></div></div>","32","32","750","","test","go","149","adv","","",""
"","-1","-1","1179","0","test_block","poldrack-single-stim","164","262563","0.0-5.0-150.0","go-nogo","true","0","","true","<div class = centerbox><div  id = stim2></div></div>","-1","32","750","","test","nogo","150","adv","","",""
"","343","32","1251","0","test_block","poldrack-single-stim","165","263824","0.0-5.0-151.0","go-nogo","true","0","","true","<div class = centerbox><div  id = stim1></div></div>","32","32","750","","test","go","151","adv","","",""
"","411","32","1075","0","test_block","poldrack-single-stim","166","264908","0.0-5.0-152.0","go-nogo","true","0","","true","<div class = centerbox><div  id = stim1></div></div>","32","32","750","","test","go","152","adv","","",""
"","470","32","1440","0","test_block","poldrack-single-stim","167","266367","0.0-5.0-153.0","go-nogo","true","0","","true","<div class = centerbox><div  id = stim1></div></div>","32","32","750","","test","go","153","adv","","",""
"","332","32","1386","0","test_block","poldrack-single-stim","168","267763","0.0-5.0-154.0","go-nogo","true","0","","true","<div class = centerbox><div  id = stim1></div></div>","32","32","750","","test","go","154","adv","","",""
"","416","32","1492","0","test_block","poldrack-single-stim","169","269265","0.0-5.0-155.0","go-nogo","true","0","","true","<div class = centerbox><div  id = stim1></div></div>","32","32","750","","test","go","155","adv","","",""
"","353","32","1132","0","test_block","poldrack-single-stim","170","270406","0.0-5.0-156.0","go-nogo","true","0","","true","<div class = centerbox><div  id = stim1></div></div>","32","32","750","","test","go","156","adv","","",""
"","496","32","1141","0","test_block","poldrack-single-stim","171","271560","0.0-5.0-157.0","go-nogo","true","0","","true","<div class = centerbox><div  id = stim1></div></div>","32","32","750","","test","go","157","adv","","",""
"","385","32","1289","0","test_block","poldrack-single-stim","172","272860","0.0-5.0-158.0","go-nogo","true","0","","true","<div class = centerbox><div  id = stim1></div></div>","32","32","750","","test","go","158","adv","","",""
"","-1","-1","1138","0","test_block","poldrack-single-stim","173","274008","0.0-5.0-159.0","go-nogo","true","0","","true","<div class = centerbox><div  id = stim2></div></div>","-1","32","750","","test","nogo","159","adv","","",""
"","298","32","1411","0","test_block","poldrack-single-stim","174","275429","0.0-5.0-160.0","go-nogo","true","0","","true","<div class = centerbox><div  id = stim1></div></div>","32","32","750","","test","go","160","adv","","",""
"","337","32","1495","0","test_block","poldrack-single-stim","175","276939","0.0-5.0-161.0","go-nogo","true","0","","true","<div class = centerbox><div  id = stim1></div></div>","32","32","750","","test","go","161","adv","","",""
"","304","32","1444","0","test_block","poldrack-single-stim","176","278392","0.0-5.0-162.0","go-nogo","true","0","","true","<div class = centerbox><div  id = stim1></div></div>","32","32","750","","test","go","162","adv","","",""
"","450","32","1258","0","test_block","poldrack-single-stim","177","279660","0.0-5.0-163.0","go-nogo","true","0","","true","<div class = centerbox><div  id = stim1></div></div>","32","32","750","","test","go","163","adv","","",""
"","364","32","1173","0","test_block","poldrack-single-stim","178","280844","0.0-5.0-164.0","go-nogo","true","0","","true","<div class = centerbox><div  id = stim1></div></div>","32","32","750","","test","go","164","adv","","",""
"","373","32","1194","0","test_block","poldrack-single-stim","179","282048","0.0-5.0-165.0","go-nogo","true","0","","true","<div class = centerbox><div  id = stim1></div></div>","32","32","750","","test","go","165","adv","","",""
"","298","32","1150","0","test_block","poldrack-single-stim","180","283208","0.0-5.0-166.0","go-nogo","true","0","","true","<div class = centerbox><div  id = stim1></div></div>","32","32","750","","test","go","166","adv","","",""
"","345","32","1049","0","test_block","poldrack-single-stim","181","284267","0.0-5.0-167.0","go-nogo","true","0","","true","<div class = centerbox><div  id = stim1></div></div>","32","32","750","","test","go","167","adv","","",""
"","461","32","1351","0","test_block","poldrack-single-stim","182","285629","0.0-5.0-168.0","go-nogo","true","0","","true","<div class = centerbox><div  id = stim1></div></div>","32","32","750","","test","go","168","adv","","",""
"","-1","-1","1041","0","test_block","poldrack-single-stim","183","286679","0.0-5.0-169.0","go-nogo","true","0","","true","<div class = centerbox><div  id = stim2></div></div>","-1","32","750","","test","nogo","169","adv","","",""
"","282","32","1380","0","test_block","poldrack-single-stim","184","288069","0.0-5.0-170.0","go-nogo","true","0","","true","<div class = centerbox><div  id = stim1></div></div>","32","32","750","","test","go","170","adv","","",""
"","500","32","1368","0","test_block","poldrack-single-stim","185","289447","0.0-5.0-171.0","go-nogo","true","0","","true","<div class = centerbox><div  id = stim1></div></div>","32","32","750","","test","go","171","adv","","",""
"","330","32","1078","0","test_block","poldrack-single-stim","186","290535","0.0-5.0-172.0","go-nogo","true","0","","true","<div class = centerbox><div  id = stim1></div></div>","32","32","750","","test","go","172","adv","","",""
"","498","32","1459","0","test_block","poldrack-single-stim","187","292012","0.0-5.0-173.0","go-nogo","true","0","","true","<div class = centerbox><div  id = stim1></div></div>","32","32","750","","test","go","173","adv","","",""
"","332","32","1385","0","test_block","poldrack-single-stim","188","293408","0.0-5.0-174.0","go-nogo","true","0","","true","<div class = centerbox><div  id = stim1></div></div>","32","32","750","","test","go","174","adv","","",""
"","433","32","1341","0","test_block","poldrack-single-stim","189","294759","0.0-5.0-175.0","go-nogo","true","0","","true","<div class = centerbox><div  id = stim1></div></div>","32","32","750","","test","go","175","adv","","",""
"","357","32","1315","0","test_block","poldrack-single-stim","190","296094","0.0-5.0-176.0","go-nogo","true","0","","true","<div class = centerbox><div  id = stim1></div></div>","32","32","750","","test","go","176","adv","","",""
"","351","32","1394","0","test_block","poldrack-single-stim","191","297497","0.0-5.0-177.0","go-nogo","true","0","","true","<div class = centerbox><div  id = stim1></div></div>","32","32","750","","test","go","177","adv","","",""
"","386","32","1327","0","test_block","poldrack-single-stim","192","298834","0.0-5.0-178.0","go-nogo","true","0","","true","<div class = centerbox><div  id = stim1></div></div>","32","32","750","","test","go","178","adv","","",""
"","322","32","1277","0","test_block","poldrack-single-stim","193","300121","0.0-5.0-179.0","go-nogo","true","0","","true","<div class = centerbox><div  id = stim1></div></div>","32","32","750","","test","go","179","adv","","",""
"","347","32","1195","0","test_block","poldrack-single-stim","194","301342","0.0-5.0-180.0","go-nogo","true","0","","false","<div class = centerbox><div  id = stim2></div></div>","-1","32","750","","test","nogo","180","adv","","",""
"","-1","-1","1046","0","test_block","poldrack-single-stim","195","302397","0.0-5.0-181.0","go-nogo","true","0","","true","<div class = centerbox><div  id = stim2></div></div>","-1","32","750","","test","nogo","181","adv","","",""
"","454","32","1123","0","test_block","poldrack-single-stim","196","303530","0.0-5.0-182.0","go-nogo","true","0","","true","<div class = centerbox><div  id = stim1></div></div>","32","32","750","","test","go","182","adv","","",""
"","362","32","1439","0","test_block","poldrack-single-stim","197","304979","0.0-5.0-183.0","go-nogo","true","0","","true","<div class = centerbox><div  id = stim1></div></div>","32","32","750","","test","go","183","adv","","",""
"","447","32","1465","0","test_block","poldrack-single-stim","198","306455","0.0-5.0-184.0","go-nogo","true","0","","true","<div class = centerbox><div  id = stim1></div></div>","32","32","750","","test","go","184","adv","","",""
"","317","32","1254","0","test_block","poldrack-single-stim","199","307719","0.0-5.0-185.0","go-nogo","true","0","","true","<div class = centerbox><div  id = stim1></div></div>","32","32","750","","test","go","185","adv","","",""
"","-1","-1","1135","0","test_block","poldrack-single-stim","200","308864","0.0-5.0-186.0","go-nogo","true","0","","true","<div class = centerbox><div  id = stim2></div></div>","-1","32","750","","test","nogo","186","adv","","",""
"","412","32","1477","0","test_block","poldrack-single-stim","201","310351","0.0-5.0-187.0","go-nogo","true","0","","true","<div class = centerbox><div  id = stim1></div></div>","32","32","750","","test","go","187","adv","","",""
"","722","32","1392","0","test_block","poldrack-single-stim","202","311755","0.0-5.0-188.0","go-nogo","true","0","","true","<div class = centerbox><div  id = stim1></div></div>","32","32","750","","test","go","188","adv","","",""
"","320","32","1239","0","test_block","poldrack-single-stim","203","313004","0.0-5.0-189.0","go-nogo","true","0","","true","<div class = centerbox><div  id = stim1></div></div>","32","32","750","","test","go","189","adv","","",""
"","328","32","1325","0","test_block","poldrack-single-stim","204","314338","0.0-5.0-190.0","go-nogo","true","0","","true","<div class = centerbox><div  id = stim1></div></div>","32","32","750","","test","go","190","adv","","",""
"","382","32","1398","0","test_block","poldrack-single-stim","205","315748","0.0-5.0-191.0","go-nogo","true","0","","true","<div class = centerbox><div  id = stim1></div></div>","32","32","750","","test","go","191","adv","","",""
"","343","32","1418","0","test_block","poldrack-single-stim","206","317176","0.0-5.0-192.0","go-nogo","true","0","","true","<div class = centerbox><div  id = stim1></div></div>","32","32","750","","test","go","192","adv","","",""
"","338","32","1341","0","test_block","poldrack-single-stim","207","318528","0.0-5.0-193.0","go-nogo","true","0","","false","<div class = centerbox><div  id = stim2></div></div>","-1","32","750","","test","nogo","193","adv","","",""
"","-1","-1","1301","0","test_block","poldrack-single-stim","208","319840","0.0-5.0-194.0","go-nogo","true","0","","true","<div class = centerbox><div  id = stim2></div></div>","-1","32","750","","test","nogo","194","adv","","",""
"","419","32","1256","0","test_block","poldrack-single-stim","209","321105","0.0-5.0-195.0","go-nogo","true","0","","true","<div class = centerbox><div  id = stim1></div></div>","32","32","750","","test","go","195","adv","","",""
"","378","32","1019","0","test_block","poldrack-single-stim","210","322133","0.0-5.0-196.0","go-nogo","true","0","","true","<div class = centerbox><div  id = stim1></div></div>","32","32","750","","test","go","196","adv","","",""
"","367","32","1164","0","test_block","poldrack-single-stim","211","323306","0.0-5.0-197.0","go-nogo","true","0","","true","<div class = centerbox><div  id = stim1></div></div>","32","32","750","","test","go","197","adv","","",""
"","313","32","1208","0","test_block","poldrack-single-stim","212","324524","0.0-5.0-198.0","go-nogo","true","0","","true","<div class = centerbox><div  id = stim1></div></div>","32","32","750","","test","go","198","adv","","",""
"","-1","-1","1075","0","test_block","poldrack-single-stim","213","325608","0.0-5.0-199.0","go-nogo","true","0","","true","<div class = centerbox><div  id = stim2></div></div>","-1","32","750","","test","nogo","199","adv","","",""
"","515","32","1416","0","test_block","poldrack-single-stim","214","327034","0.0-5.0-200.0","go-nogo","true","0","","true","<div class = centerbox><div  id = stim1></div></div>","32","32","750","","test","go","200","adv","","",""
"","361","32","1340","0","test_block","poldrack-single-stim","215","328383","0.0-5.0-201.0","go-nogo","true","0","","true","<div class = centerbox><div  id = stim1></div></div>","32","32","750","","test","go","201","adv","","",""
"","404","32","1092","0","test_block","poldrack-single-stim","216","329485","0.0-5.0-202.0","go-nogo","true","0","","true","<div class = centerbox><div  id = stim1></div></div>","32","32","750","","test","go","202","adv","","",""
"","398","32","1075","0","test_block","poldrack-single-stim","217","330570","0.0-5.0-203.0","go-nogo","true","0","","true","<div class = centerbox><div  id = stim1></div></div>","32","32","750","","test","go","203","adv","","",""
"","378","32","1381","0","test_block","poldrack-single-stim","218","331960","0.0-5.0-204.0","go-nogo","true","0","","true","<div class = centerbox><div  id = stim1></div></div>","32","32","750","","test","go","204","adv","","",""
"","-1","-1","1292","0","test_block","poldrack-single-stim","219","333261","0.0-5.0-205.0","go-nogo","true","0","","true","<div class = centerbox><div  id = stim2></div></div>","-1","32","750","","test","nogo","205","adv","","",""
"","382","32","1391","0","test_block","poldrack-single-stim","220","334661","0.0-5.0-206.0","go-nogo","true","0","","true","<div class = centerbox><div  id = stim1></div></div>","32","32","750","","test","go","206","adv","","",""
"","305","32","1164","0","test_block","poldrack-single-stim","221","335840","0.0-5.0-207.0","go-nogo","true","0","","true","<div class = centerbox><div  id = stim1></div></div>","32","32","750","","test","go","207","adv","","",""
"","307","32","1299","0","test_block","poldrack-single-stim","222","337148","0.0-5.0-208.0","go-nogo","true","0","","true","<div class = centerbox><div  id = stim1></div></div>","32","32","750","","test","go","208","adv","","",""
"","327","32","1140","0","test_block","poldrack-single-stim","223","338297","0.0-5.0-209.0","go-nogo","true","0","","true","<div class = centerbox><div  id = stim1></div></div>","32","32","750","","test","go","209","adv","","",""
"","338","32","1494","0","test_block","poldrack-single-stim","224","339801","0.0-5.0-210.0","go-nogo","true","0","","true","<div class = centerbox><div  id = stim1></div></div>","32","32","750","","test","go","210","adv","","",""
"","410","32","1384","0","test_block","poldrack-single-stim","225","341194","0.0-5.0-211.0","go-nogo","true","0","","true","<div class = centerbox><div  id = stim1></div></div>","32","32","750","","test","go","211","adv","","",""
"","350","32","1442","0","test_block","poldrack-single-stim","226","342647","0.0-5.0-212.0","go-nogo","true","0","","true","<div class = centerbox><div  id = stim1></div></div>","32","32","750","","test","go","212","adv","","",""
"","331","32","1377","0","test_block","poldrack-single-stim","227","344033","0.0-5.0-213.0","go-nogo","true","0","","true","<div class = centerbox><div  id = stim1></div></div>","32","32","750","","test","go","213","adv","","",""
"","313","32","1446","0","test_block","poldrack-single-stim","228","345489","0.0-5.0-214.0","go-nogo","true","0","","true","<div class = centerbox><div  id = stim1></div></div>","32","32","750","","test","go","214","adv","","",""
"","360","32","1289","0","test_block","poldrack-single-stim","229","346788","0.0-5.0-215.0","go-nogo","true","0","","true","<div class = centerbox><div  id = stim1></div></div>","32","32","750","","test","go","215","adv","","",""
"","-1","-1","1367","0","test_block","poldrack-single-stim","230","348164","0.0-5.0-216.0","go-nogo","true","0","","true","<div class = centerbox><div  id = stim2></div></div>","-1","32","750","","test","nogo","216","adv","","",""
"","454","32","1082","0","test_block","poldrack-single-stim","231","349256","0.0-5.0-217.0","go-nogo","true","0","","true","<div class = centerbox><div  id = stim1></div></div>","32","32","750","","test","go","217","adv","","",""
"","394","32","1033","0","test_block","poldrack-single-stim","232","350298","0.0-5.0-218.0","go-nogo","true","0","","true","<div class = centerbox><div  id = stim1></div></div>","32","32","750","","test","go","218","adv","","",""
"","412","32","1105","0","test_block","poldrack-single-stim","233","351417","0.0-5.0-219.0","go-nogo","true","0","","true","<div class = centerbox><div  id = stim1></div></div>","32","32","750","","test","go","219","adv","","",""
"","435","32","1282","0","test_block","poldrack-single-stim","234","352714","0.0-5.0-220.0","go-nogo","true","0","","true","<div class = centerbox><div  id = stim1></div></div>","32","32","750","","test","go","220","adv","","",""
"","309","32","1433","0","test_block","poldrack-single-stim","235","354159","0.0-5.0-221.0","go-nogo","true","0","","true","<div class = centerbox><div  id = stim1></div></div>","32","32","750","","test","go","221","adv","","",""
"","361","32","1105","0","test_block","poldrack-single-stim","236","355277","0.0-5.0-222.0","go-nogo","true","0","","true","<div class = centerbox><div  id = stim1></div></div>","32","32","750","","test","go","222","adv","","",""
"","479","32","1200","0","test_block","poldrack-single-stim","237","356486","0.0-5.0-223.0","go-nogo","true","0","","true","<div class = centerbox><div  id = stim1></div></div>","32","32","750","","test","go","223","adv","","",""
"","452","32","1030","0","test_block","poldrack-single-stim","238","357527","0.0-5.0-224.0","go-nogo","true","0","","true","<div class = centerbox><div  id = stim1></div></div>","32","32","750","","test","go","224","adv","","",""
"","715","32","1111","0","test_block","poldrack-single-stim","239","358649","0.0-5.0-225.0","go-nogo","true","0","","true","<div class = centerbox><div  id = stim1></div></div>","32","32","750","","test","go","225","adv","","",""
"","-1","-1","1197","0","test_block","poldrack-single-stim","240","359857","0.0-5.0-226.0","go-nogo","true","0","","true","<div class = centerbox><div  id = stim2></div></div>","-1","32","750","","test","nogo","226","adv","","",""
"","314","32","1189","0","test_block","poldrack-single-stim","241","361056","0.0-5.0-227.0","go-nogo","true","0","","true","<div class = centerbox><div  id = stim1></div></div>","32","32","750","","test","go","227","adv","","",""
"","379","32","1044","0","test_block","poldrack-single-stim","242","362110","0.0-5.0-228.0","go-nogo","true","0","","true","<div class = centerbox><div  id = stim1></div></div>","32","32","750","","test","go","228","adv","","",""
"","436","32","1370","0","test_block","poldrack-single-stim","243","363490","0.0-5.0-229.0","go-nogo","true","0","","true","<div class = centerbox><div  id = stim1></div></div>","32","32","750","","test","go","229","adv","","",""
"","320","32","1351","0","test_block","poldrack-single-stim","244","364851","0.0-5.0-230.0","go-nogo","true","0","","true","<div class = centerbox><div  id = stim1></div></div>","32","32","750","","test","go","230","adv","","",""
"","342","32","1326","0","test_block","poldrack-single-stim","245","366188","0.0-5.0-231.0","go-nogo","true","0","","true","<div class = centerbox><div  id = stim1></div></div>","32","32","750","","test","go","231","adv","","",""
"","438","32","1040","0","test_block","poldrack-single-stim","246","367238","0.0-5.0-232.0","go-nogo","true","0","","true","<div class = centerbox><div  id = stim1></div></div>","32","32","750","","test","go","232","adv","","",""
"","377","32","1199","0","test_block","poldrack-single-stim","247","368451","0.0-5.0-233.0","go-nogo","true","0","","true","<div class = centerbox><div  id = stim1></div></div>","32","32","750","","test","go","233","adv","","",""
"","783","32","1424","0","test_block","poldrack-single-stim","248","369885","0.0-5.0-234.0","go-nogo","true","0","","true","<div class = centerbox><div  id = stim1></div></div>","32","32","750","","test","go","234","adv","","",""
"","339","32","1268","0","test_block","poldrack-single-stim","249","371164","0.0-5.0-235.0","go-nogo","true","0","","true","<div class = centerbox><div  id = stim1></div></div>","32","32","750","","test","go","235","adv","","",""
"","310","32","1491","0","test_block","poldrack-single-stim","250","372698","0.0-5.0-236.0","go-nogo","true","0","","true","<div class = centerbox><div  id = stim1></div></div>","32","32","750","","test","go","236","adv","","",""
"","-1","-1","1410","0","test_block","poldrack-single-stim","251","374118","0.0-5.0-237.0","go-nogo","true","0","","true","<div class = centerbox><div  id = stim2></div></div>","-1","32","750","","test","nogo","237","adv","","",""
"","340","32","1300","0","test_block","poldrack-single-stim","252","375428","0.0-5.0-238.0","go-nogo","true","0","","true","<div class = centerbox><div  id = stim1></div></div>","32","32","750","","test","go","238","adv","","",""
"","359","32","1236","0","test_block","poldrack-single-stim","253","376673","0.0-5.0-239.0","go-nogo","true","0","","true","<div class = centerbox><div  id = stim1></div></div>","32","32","750","","test","go","239","adv","","",""
"","338","32","1347","0","test_block","poldrack-single-stim","254","378030","0.0-5.0-240.0","go-nogo","true","0","","true","<div class = centerbox><div  id = stim1></div></div>","32","32","750","","test","go","240","adv","","",""
"","372","32","1407","0","test_block","poldrack-single-stim","255","379447","0.0-5.0-241.0","go-nogo","true","0","","true","<div class = centerbox><div  id = stim1></div></div>","32","32","750","","test","go","241","adv","","",""
"","419","32","1154","0","test_block","poldrack-single-stim","256","380611","0.0-5.0-242.0","go-nogo","true","0","","true","<div class = centerbox><div  id = stim1></div></div>","32","32","750","","test","go","242","adv","","",""
"","389","32","1103","0","test_block","poldrack-single-stim","257","381726","0.0-5.0-243.0","go-nogo","true","0","","true","<div class = centerbox><div  id = stim1></div></div>","32","32","750","","test","go","243","adv","","",""
"","349","32","1054","0","test_block","poldrack-single-stim","258","382789","0.0-5.0-244.0","go-nogo","true","0","","true","<div class = centerbox><div  id = stim1></div></div>","32","32","750","","test","go","244","adv","","",""
"","398","32","1344","0","test_block","poldrack-single-stim","259","384143","0.0-5.0-245.0","go-nogo","true","0","","true","<div class = centerbox><div  id = stim1></div></div>","32","32","750","","test","go","245","adv","","",""
"","340","32","1180","0","test_block","poldrack-single-stim","260","385332","0.0-5.0-246.0","go-nogo","true","0","","true","<div class = centerbox><div  id = stim1></div></div>","32","32","750","","test","go","246","adv","","",""
"","309","32","1308","0","test_block","poldrack-single-stim","261","386650","0.0-5.0-247.0","go-nogo","true","0","","true","<div class = centerbox><div  id = stim1></div></div>","32","32","750","","test","go","247","adv","","",""
"","-1","-1","1387","0","test_block","poldrack-single-stim","262","388047","0.0-5.0-248.0","go-nogo","true","0","","true","<div class = centerbox><div  id = stim2></div></div>","-1","32","750","","test","nogo","248","adv","","",""
"","339","32","1331","0","test_block","poldrack-single-stim","263","389388","0.0-5.0-249.0","go-nogo","true","0","","true","<div class = centerbox><div  id = stim1></div></div>","32","32","750","","test","go","249","adv","","",""
"","294","32","1164","0","test_block","poldrack-single-stim","264","390561","0.0-5.0-250.0","go-nogo","true","0","","true","<div class = centerbox><div  id = stim1></div></div>","32","32","750","","test","go","250","adv","","",""
"","337","32","1110","0","test_block","poldrack-single-stim","265","391680","0.0-5.0-251.0","go-nogo","true","0","","true","<div class = centerbox><div  id = stim1></div></div>","32","32","750","","test","go","251","adv","","",""
"","318","32","1313","0","test_block","poldrack-single-stim","266","393007","0.0-5.0-252.0","go-nogo","true","0","","true","<div class = centerbox><div  id = stim1></div></div>","32","32","750","","test","go","252","adv","","",""
"","113","32","1252","0","test_block","poldrack-single-stim","267","394270","0.0-5.0-253.0","go-nogo","true","0","","true","<div class = centerbox><div  id = stim1></div></div>","32","32","750","","test","go","253","adv","","",""
"","948","32","1005","0","test_block","poldrack-single-stim","268","395293","0.0-5.0-254.0","go-nogo","true","0","","true","<div class = centerbox><div  id = stim1></div></div>","32","32","750","","test","go","254","adv","","",""
"","-1","-1","1183","0","test_block","poldrack-single-stim","269","396486","0.0-5.0-255.0","go-nogo","true","0","","false","<div class = centerbox><div  id = stim1></div></div>","32","32","750","","test","go","255","adv","","",""
"","243","32","1470","0","test_block","poldrack-single-stim","270","397966","0.0-5.0-256.0","go-nogo","true","0","","true","<div class = centerbox><div  id = stim1></div></div>","32","32","750","","test","go","256","adv","","",""
"","-1","-1","1157","0","test_block","poldrack-single-stim","271","399174","0.0-5.0-257.0","go-nogo","true","0","","true","<div class = centerbox><div  id = stim2></div></div>","-1","32","750","","test","nogo","257","adv","","",""
"","309","32","1172","0","test_block","poldrack-single-stim","272","400354","0.0-5.0-258.0","go-nogo","true","0","","true","<div class = centerbox><div  id = stim1></div></div>","32","32","750","","test","go","258","adv","","",""
"","-1","-1","1461","0","test_block","poldrack-single-stim","273","401825","0.0-5.0-259.0","go-nogo","true","0","","true","<div class = centerbox><div  id = stim2></div></div>","-1","32","750","","test","nogo","259","adv","","",""
"","346","32","1357","0","test_block","poldrack-single-stim","274","403190","0.0-5.0-260.0","go-nogo","true","0","","true","<div class = centerbox><div  id = stim1></div></div>","32","32","750","","test","go","260","adv","","",""
"","372","32","1029","0","test_block","poldrack-single-stim","275","404229","0.0-5.0-261.0","go-nogo","true","0","","true","<div class = centerbox><div  id = stim1></div></div>","32","32","750","","test","go","261","adv","","",""
"","381","32","1438","0","test_block","poldrack-single-stim","276","405676","0.0-5.0-262.0","go-nogo","true","0","","true","<div class = centerbox><div  id = stim1></div></div>","32","32","750","","test","go","262","adv","","",""
"","-1","-1","1018","0","test_block","poldrack-single-stim","277","406704","0.0-5.0-263.0","go-nogo","true","0","","true","<div class = centerbox><div  id = stim2></div></div>","-1","32","750","","test","nogo","263","adv","","",""
"","363","32","1337","0","test_block","poldrack-single-stim","278","408049","0.0-5.0-264.0","go-nogo","true","0","","true","<div class = centerbox><div  id = stim1></div></div>","32","32","750","","test","go","264","adv","","",""
"","304","32","1423","0","test_block","poldrack-single-stim","279","409482","0.0-5.0-265.0","go-nogo","true","0","","true","<div class = centerbox><div  id = stim1></div></div>","32","32","750","","test","go","265","adv","","",""
"","303","32","1164","0","test_block","poldrack-single-stim","280","410657","0.0-5.0-266.0","go-nogo","true","0","","true","<div class = centerbox><div  id = stim1></div></div>","32","32","750","","test","go","266","adv","","",""
"","362","32","1066","0","test_block","poldrack-single-stim","281","411732","0.0-5.0-267.0","go-nogo","true","0","","false","<div class = centerbox><div  id = stim2></div></div>","-1","32","750","","test","nogo","267","adv","","",""
"","-1","-1","1270","0","test_block","poldrack-single-stim","282","413011","0.0-5.0-268.0","go-nogo","true","0","","true","<div class = centerbox><div  id = stim2></div></div>","-1","32","750","","test","nogo","268","adv","","",""
"","351","32","1427","0","test_block","poldrack-single-stim","283","414447","0.0-5.0-269.0","go-nogo","true","0","","true","<div class = centerbox><div  id = stim1></div></div>","32","32","750","","test","go","269","adv","","",""
"","370","32","1214","0","test_block","poldrack-single-stim","284","415671","0.0-5.0-270.0","go-nogo","true","0","","true","<div class = centerbox><div  id = stim1></div></div>","32","32","750","","test","go","270","adv","","",""
"","405","32","1205","0","test_block","poldrack-single-stim","285","416884","0.0-5.0-271.0","go-nogo","true","0","","true","<div class = centerbox><div  id = stim1></div></div>","32","32","750","","test","go","271","adv","","",""
"","-1","-1","1170","0","test_block","poldrack-single-stim","286","418063","0.0-5.0-272.0","go-nogo","true","0","","true","<div class = centerbox><div  id = stim2></div></div>","-1","32","750","","test","nogo","272","adv","","",""
"","308","32","1123","0","test_block","poldrack-single-stim","287","419195","0.0-5.0-273.0","go-nogo","true","0","","true","<div class = centerbox><div  id = stim1></div></div>","32","32","750","","test","go","273","adv","","",""
"","392","32","1243","0","test_block","poldrack-single-stim","288","420447","0.0-5.0-274.0","go-nogo","true","0","","true","<div class = centerbox><div  id = stim1></div></div>","32","32","750","","test","go","274","adv","","",""
"","355","32","1189","0","test_block","poldrack-single-stim","289","421645","0.0-5.0-275.0","go-nogo","true","0","","true","<div class = centerbox><div  id = stim1></div></div>","32","32","750","","test","go","275","adv","","",""
"","-1","-1","1005","0","test_block","poldrack-single-stim","290","422659","0.0-5.0-276.0","go-nogo","true","0","","true","<div class = centerbox><div  id = stim2></div></div>","-1","32","750","","test","nogo","276","adv","","",""
"","400","32","1298","0","test_block","poldrack-single-stim","291","423965","0.0-5.0-277.0","go-nogo","true","0","","true","<div class = centerbox><div  id = stim1></div></div>","32","32","750","","test","go","277","adv","","",""
"","342","32","1314","0","test_block","poldrack-single-stim","292","425288","0.0-5.0-278.0","go-nogo","true","0","","true","<div class = centerbox><div  id = stim1></div></div>","32","32","750","","test","go","278","adv","","",""
"","431","32","1206","0","test_block","poldrack-single-stim","293","426507","0.0-5.0-279.0","go-nogo","true","0","","true","<div class = centerbox><div  id = stim1></div></div>","32","32","750","","test","go","279","adv","","",""
"","359","32","1381","0","test_block","poldrack-single-stim","294","427898","0.0-5.0-280.0","go-nogo","true","0","","true","<div class = centerbox><div  id = stim1></div></div>","32","32","750","","test","go","280","adv","","",""
"","408","32","1352","0","test_block","poldrack-single-stim","295","429260","0.0-5.0-281.0","go-nogo","true","0","","true","<div class = centerbox><div  id = stim1></div></div>","32","32","750","","test","go","281","adv","","",""
"","-1","-1","1066","0","test_block","poldrack-single-stim","296","430335","0.0-5.0-282.0","go-nogo","true","0","","true","<div class = centerbox><div  id = stim2></div></div>","-1","32","750","","test","nogo","282","adv","","",""
"","498","32","1104","0","test_block","poldrack-single-stim","297","431450","0.0-5.0-283.0","go-nogo","true","0","","true","<div class = centerbox><div  id = stim1></div></div>","32","32","750","","test","go","283","adv","","",""
"","397","32","1492","0","test_block","poldrack-single-stim","298","432953","0.0-5.0-284.0","go-nogo","true","0","","true","<div class = centerbox><div  id = stim1></div></div>","32","32","750","","test","go","284","adv","","",""
"","344","32","1095","0","test_block","poldrack-single-stim","299","434059","0.0-5.0-285.0","go-nogo","true","0","","true","<div class = centerbox><div  id = stim1></div></div>","32","32","750","","test","go","285","adv","","",""
"","391","32","1112","0","test_block","poldrack-single-stim","300","435180","0.0-5.0-286.0","go-nogo","true","0","","true","<div class = centerbox><div  id = stim1></div></div>","32","32","750","","test","go","286","adv","","",""
"","319","32","1141","0","test_block","poldrack-single-stim","301","436330","0.0-5.0-287.0","go-nogo","true","0","","true","<div class = centerbox><div  id = stim1></div></div>","32","32","750","","test","go","287","adv","","",""
"","385","32","1295","0","test_block","poldrack-single-stim","302","437642","0.0-5.0-288.0","go-nogo","true","0","","true","<div class = centerbox><div  id = stim1></div></div>","32","32","750","","test","go","288","adv","","",""
"","333","32","1031","0","test_block","poldrack-single-stim","303","438685","0.0-5.0-289.0","go-nogo","true","0","","true","<div class = centerbox><div  id = stim1></div></div>","32","32","750","","test","go","289","adv","","",""
"","382","32","1408","0","test_block","poldrack-single-stim","304","440102","0.0-5.0-290.0","go-nogo","true","0","","true","<div class = centerbox><div  id = stim1></div></div>","32","32","750","","test","go","290","adv","","",""
"","332","32","1400","0","test_block","poldrack-single-stim","305","441511","0.0-5.0-291.0","go-nogo","true","0","","true","<div class = centerbox><div  id = stim1></div></div>","32","32","750","","test","go","291","adv","","",""
"","387","32","1100","0","test_block","poldrack-single-stim","306","442621","0.0-5.0-292.0","go-nogo","true","0","","true","<div class = centerbox><div  id = stim1></div></div>","32","32","750","","test","go","292","adv","","",""
"","325","32","1109","0","test_block","poldrack-single-stim","307","443739","0.0-5.0-293.0","go-nogo","true","0","","false","<div class = centerbox><div  id = stim2></div></div>","-1","32","750","","test","nogo","293","adv","","",""
"","-1","-1","1258","0","test_block","poldrack-single-stim","308","445007","0.0-5.0-294.0","go-nogo","true","0","","true","<div class = centerbox><div  id = stim2></div></div>","-1","32","750","","test","nogo","294","adv","","",""
"","323","32","1445","0","test_block","poldrack-single-stim","309","446462","0.0-5.0-295.0","go-nogo","true","0","","true","<div class = centerbox><div  id = stim1></div></div>","32","32","750","","test","go","295","adv","","",""
"","578","32","1050","0","test_block","poldrack-single-stim","310","447523","0.0-5.0-296.0","go-nogo","true","0","","true","<div class = centerbox><div  id = stim1></div></div>","32","32","750","","test","go","296","adv","","",""
"","455","32","1074","0","test_block","poldrack-single-stim","311","448605","0.0-5.0-297.0","go-nogo","true","0","","true","<div class = centerbox><div  id = stim1></div></div>","32","32","750","","test","go","297","adv","","",""
"","-1","-1","1488","0","test_block","poldrack-single-stim","312","450102","0.0-5.0-298.0","go-nogo","true","0","","true","<div class = centerbox><div  id = stim2></div></div>","-1","32","750","","test","nogo","298","adv","","",""
"","276","32","1200","0","test_block","poldrack-single-stim","313","451311","0.0-5.0-299.0","go-nogo","true","0","","true","<div class = centerbox><div  id = stim1></div></div>","32","32","750","","test","go","299","adv","","",""
"","362","32","1157","0","test_block","poldrack-single-stim","314","452478","0.0-5.0-300.0","go-nogo","true","0","","true","<div class = centerbox><div  id = stim1></div></div>","32","32","750","","test","go","300","adv","","",""
"","371","32","1093","0","test_block","poldrack-single-stim","315","453580","0.0-5.0-301.0","go-nogo","true","0","","true","<div class = centerbox><div  id = stim1></div></div>","32","32","750","","test","go","301","adv","","",""
"","405","32","1164","0","test_block","poldrack-single-stim","316","454753","0.0-5.0-302.0","go-nogo","true","0","","true","<div class = centerbox><div  id = stim1></div></div>","32","32","750","","test","go","302","adv","","",""
"","353","32","1462","0","test_block","poldrack-single-stim","317","456223","0.0-5.0-303.0","go-nogo","true","0","","false","<div class = centerbox><div  id = stim2></div></div>","-1","32","750","","test","nogo","303","adv","","",""
"","-1","-1","1131","0","test_block","poldrack-single-stim","318","457363","0.0-5.0-304.0","go-nogo","true","0","","true","<div class = centerbox><div  id = stim2></div></div>","-1","32","750","","test","nogo","304","adv","","",""
"","365","32","1183","0","test_block","poldrack-single-stim","319","458556","0.0-5.0-305.0","go-nogo","true","0","","true","<div class = centerbox><div  id = stim1></div></div>","32","32","750","","test","go","305","adv","","",""
"","333","32","1285","0","test_block","poldrack-single-stim","320","459851","0.0-5.0-306.0","go-nogo","true","0","","true","<div class = centerbox><div  id = stim1></div></div>","32","32","750","","test","go","306","adv","","",""
"","374","32","1385","0","test_block","poldrack-single-stim","321","461245","0.0-5.0-307.0","go-nogo","true","0","","true","<div class = centerbox><div  id = stim1></div></div>","32","32","750","","test","go","307","adv","","",""
"","-1","-1","1460","0","test_block","poldrack-single-stim","322","462716","0.0-5.0-308.0","go-nogo","true","0","","true","<div class = centerbox><div  id = stim2></div></div>","-1","32","750","","test","nogo","308","adv","","",""
"","349","32","1062","0","test_block","poldrack-single-stim","323","463788","0.0-5.0-309.0","go-nogo","true","0","","true","<div class = centerbox><div  id = stim1></div></div>","32","32","750","","test","go","309","adv","","",""
"","535","32","1092","0","test_block","poldrack-single-stim","324","464888","0.0-5.0-310.0","go-nogo","true","0","","true","<div class = centerbox><div  id = stim1></div></div>","32","32","750","","test","go","310","adv","","",""
"","689","32","1356","0","test_block","poldrack-single-stim","325","466253","0.0-5.0-311.0","go-nogo","true","0","","true","<div class = centerbox><div  id = stim1></div></div>","32","32","750","","test","go","311","adv","","",""
"","621","32","1269","0","test_block","poldrack-single-stim","326","467531","0.0-5.0-312.0","go-nogo","true","0","","true","<div class = centerbox><div  id = stim1></div></div>","32","32","750","","test","go","312","adv","","",""
"","-1","-1","1042","0","test_block","poldrack-single-stim","327","468583","0.0-5.0-313.0","go-nogo","true","0","","true","<div class = centerbox><div  id = stim2></div></div>","-1","32","750","","test","nogo","313","adv","","",""
"","282","32","1052","0","test_block","poldrack-single-stim","328","469645","0.0-5.0-314.0","go-nogo","true","0","","true","<div class = centerbox><div  id = stim1></div></div>","32","32","750","","test","go","314","adv","","",""
"","372","32","1436","0","test_block","poldrack-single-stim","329","471090","0.0-5.0-315.0","go-nogo","true","0","","true","<div class = centerbox><div  id = stim1></div></div>","32","32","750","","test","go","315","adv","","",""
"","416","32","1397","0","test_block","poldrack-single-stim","330","472495","0.0-5.0-316.0","go-nogo","true","0","","true","<div class = centerbox><div  id = stim1></div></div>","32","32","750","","test","go","316","adv","","",""
"","386","32","1454","0","test_block","poldrack-single-stim","331","473958","0.0-5.0-317.0","go-nogo","true","0","","true","<div class = centerbox><div  id = stim1></div></div>","32","32","750","","test","go","317","adv","","",""
"","371","32","1276","0","test_block","poldrack-single-stim","332","475243","0.0-5.0-318.0","go-nogo","true","0","","true","<div class = centerbox><div  id = stim1></div></div>","32","32","750","","test","go","318","adv","","",""
"","366","32","1326","0","test_block","poldrack-single-stim","333","476579","0.0-5.0-319.0","go-nogo","true","0","","true","<div class = centerbox><div  id = stim1></div></div>","32","32","750","","test","go","319","adv","","",""
"","436","32","1108","0","test_block","poldrack-single-stim","334","477699","0.0-5.0-320.0","go-nogo","true","0","","true","<div class = centerbox><div  id = stim1></div></div>","32","32","750","","test","go","320","adv","","",""
"","455","32","1018","0","test_block","poldrack-single-stim","335","478725","0.0-5.0-321.0","go-nogo","true","0","","true","<div class = centerbox><div  id = stim1></div></div>","32","32","750","","test","go","321","adv","","",""
"","397","32","1191","0","test_block","poldrack-single-stim","336","479925","0.0-5.0-322.0","go-nogo","true","0","","true","<div class = centerbox><div  id = stim1></div></div>","32","32","750","","test","go","322","adv","","",""
"","406","32","1273","0","test_block","poldrack-single-stim","337","481206","0.0-5.0-323.0","go-nogo","true","0","","true","<div class = centerbox><div  id = stim1></div></div>","32","32","750","","test","go","323","adv","","",""
"","438","32","1330","0","test_block","poldrack-single-stim","338","482546","0.0-5.0-324.0","go-nogo","true","0","","true","<div class = centerbox><div  id = stim1></div></div>","32","32","750","","test","go","324","adv","","",""
"","333","32","1118","0","test_block","poldrack-single-stim","339","483677","0.0-5.0-325.0","go-nogo","true","0","","true","<div class = centerbox><div  id = stim1></div></div>","32","32","750","","test","go","325","adv","","",""
"","422","32","1398","0","test_block","poldrack-single-stim","340","485084","0.0-5.0-326.0","go-nogo","true","0","","true","<div class = centerbox><div  id = stim1></div></div>","32","32","750","","test","go","326","adv","","",""
"","358","32","1120","0","test_block","poldrack-single-stim","341","486213","0.0-5.0-327.0","go-nogo","true","0","","true","<div class = centerbox><div  id = stim1></div></div>","32","32","750","","test","go","327","adv","","",""
"","365","32","1285","0","test_block","poldrack-single-stim","342","487507","0.0-5.0-328.0","go-nogo","true","0","","true","<div class = centerbox><div  id = stim1></div></div>","32","32","750","","test","go","328","adv","","",""
"","420","32","1195","0","test_block","poldrack-single-stim","343","488714","0.0-5.0-329.0","go-nogo","true","0","","true","<div class = centerbox><div  id = stim1></div></div>","32","32","750","","test","go","329","adv","","",""
"","520","32","1025","0","test_block","poldrack-single-stim","344","489749","0.0-5.0-330.0","go-nogo","true","0","","true","<div class = centerbox><div  id = stim1></div></div>","32","32","750","","test","go","330","adv","","",""
"","541","32","1264","0","test_block","poldrack-single-stim","345","491023","0.0-5.0-331.0","go-nogo","true","0","","true","<div class = centerbox><div  id = stim1></div></div>","32","32","750","","test","go","331","adv","","",""
"","378","32","1467","0","test_block","poldrack-single-stim","346","492501","0.0-5.0-332.0","go-nogo","true","0","","true","<div class = centerbox><div  id = stim1></div></div>","32","32","750","","test","go","332","adv","","",""
"","216","32","1179","0","test_block","poldrack-single-stim","347","493695","0.0-5.0-333.0","go-nogo","true","0","","true","<div class = centerbox><div  id = stim1></div></div>","32","32","750","","test","go","333","adv","","",""
"","426","32","1334","0","test_block","poldrack-single-stim","348","495038","0.0-5.0-334.0","go-nogo","true","0","","true","<div class = centerbox><div  id = stim1></div></div>","32","32","750","","test","go","334","adv","","",""
"","508","32","1273","0","test_block","poldrack-single-stim","349","496320","0.0-5.0-335.0","go-nogo","true","0","","true","<div class = centerbox><div  id = stim1></div></div>","32","32","750","","test","go","335","adv","","",""
"","410","32","1277","0","test_block","poldrack-single-stim","350","497605","0.0-5.0-336.0","go-nogo","true","0","","true","<div class = centerbox><div  id = stim1></div></div>","32","32","750","","test","go","336","adv","","",""
"","364","32","1111","0","test_block","poldrack-single-stim","351","498725","0.0-5.0-337.0","go-nogo","true","0","","true","<div class = centerbox><div  id = stim1></div></div>","32","32","750","","test","go","337","adv","","",""
"","636","32","1093","0","test_block","poldrack-single-stim","352","499868","0.0-5.0-338.0","go-nogo","true","0","","true","<div class = centerbox><div  id = stim1></div></div>","32","32","750","","test","go","338","adv","","",""
"","797","32","1333","0","test_block","poldrack-single-stim","353","501210","0.0-5.0-339.0","go-nogo","true","0","","true","<div class = centerbox><div  id = stim1></div></div>","32","32","750","","test","go","339","adv","","",""
"","319","32","1377","0","test_block","poldrack-single-stim","354","502596","0.0-5.0-340.0","go-nogo","true","0","","true","<div class = centerbox><div  id = stim1></div></div>","32","32","750","","test","go","340","adv","","",""
"","372","32","1134","0","test_block","poldrack-single-stim","355","503740","0.0-5.0-341.0","go-nogo","true","0","","true","<div class = centerbox><div  id = stim1></div></div>","32","32","750","","test","go","341","adv","","",""
"","387","32","1020","0","test_block","poldrack-single-stim","356","504771","0.0-5.0-342.0","go-nogo","true","0","","true","<div class = centerbox><div  id = stim1></div></div>","32","32","750","","test","go","342","adv","","",""
"","398","32","1085","0","test_block","poldrack-single-stim","357","505865","0.0-5.0-343.0","go-nogo","true","0","","true","<div class = centerbox><div  id = stim1></div></div>","32","32","750","","test","go","343","adv","","",""
"","359","32","1177","0","test_block","poldrack-single-stim","358","507051","0.0-5.0-344.0","go-nogo","true","0","","true","<div class = centerbox><div  id = stim1></div></div>","32","32","750","","test","go","344","adv","","",""
"","333","32","1391","0","test_block","poldrack-single-stim","359","508452","0.0-5.0-345.0","go-nogo","true","0","","true","<div class = centerbox><div  id = stim1></div></div>","32","32","750","","test","go","345","adv","","",""
"","325","32","1093","0","test_block","poldrack-single-stim","360","509554","0.0-5.0-346.0","go-nogo","true","0","","true","<div class = centerbox><div  id = stim1></div></div>","32","32","750","","test","go","346","adv","","",""
"","319","32","1452","0","test_block","poldrack-single-stim","361","511015","0.0-5.0-347.0","go-nogo","true","0","","true","<div class = centerbox><div  id = stim1></div></div>","32","32","750","","test","go","347","adv","","",""
"","250","32","1313","0","test_block","poldrack-single-stim","362","512338","0.0-5.0-348.0","go-nogo","true","0","","true","<div class = centerbox><div  id = stim1></div></div>","32","32","750","","test","go","348","adv","","",""
"","392","32","1021","0","test_block","poldrack-single-stim","363","513367","0.0-5.0-349.0","go-nogo","true","0","","true","<div class = centerbox><div  id = stim1></div></div>","32","32","750","","test","go","349","adv","","",""
"","52172","","","","post task questions","survey-text","364","565560","0.0-7.0","go-nogo","true","0","","","","","","","","","","","","{""Q0"":""Click spacebar for orange box only not for the blue box."",""Q1"":""It is nice.""}","",""
"<div class = centerbox><p class = center-block-text>Thanks for completing this task!</p><p class = center-block-text>Insert the following code to collect your payment at Amazon Mechanical Turk:</p><p class = center-block-text>56136317</p><p class = center-block-text>Press <strong>enter</strong> to continue.</p></div>","6415","13","6415","0","end","poldrack-text","365","572978","0.0-8.0","go-nogo","true","0","","","","","","","","","","","","","56136317","true"
