"text","rt","key_press","block_duration","timing_post_trial","trial_id","trial_type","trial_index","time_elapsed","internal_node_id","exp_id","full_screen","focus_shifts","view_history","correct","stimulus","correct_response","possible_responses","stim_duration","feedback_duration","exp_stage","condition","trial_num","mode","responses","payment_id","credit_var"
"<div class = centerbox><p class = center-block-text>Welcome to the experiment. This task will take around 10 minutes. Press <strong>enter</strong> to begin.</p></div>","9171","13","9171","0","instruction","poldrack-text","0","9177","0.0-0.0-0.0","go-nogo","false","0","","","","","","","","","","","","","",""
"","13879","","","","instruction","poldrack-instructions","1","23059","0.0-0.0-1.0","go-nogo","false","0","[{""page_index"":0,""viewing_time"":13878}]","","","","","","","","","","","","",""
"","-1","-1","1405","250","practice","poldrack-categorize","2","26472","0.0-1.0-0.0","go-nogo","false","0","","true","<div class = centerbox><div id = stim2></div></div>","-1","32","750","1000","practice","nogo","0","adv","","",""
"","-1","-1","1320","250","practice","poldrack-categorize","3","29047","0.0-1.0-1.0","go-nogo","false","0","","false","<div class = centerbox><div  id = stim1></div></div>","32","32","750","1000","practice","go","1","adv","","",""
"","-1","-1","1273","250","practice","poldrack-categorize","4","31573","0.0-1.0-2.0","go-nogo","false","0","","false","<div class = centerbox><div  id = stim1></div></div>","32","32","750","1000","practice","go","2","adv","","",""
"","596","32","1101","250","practice","poldrack-categorize","5","33928","0.0-1.0-3.0","go-nogo","false","0","","false","<div class = centerbox><div id = stim2></div></div>","-1","32","750","1000","practice","nogo","3","adv","","",""
"","-1","-1","1389","250","practice","poldrack-categorize","6","36573","0.0-1.0-4.0","go-nogo","false","0","","false","<div class = centerbox><div  id = stim1></div></div>","32","32","750","1000","practice","go","4","adv","","",""
"","-1","-1","1435","250","practice","poldrack-categorize","7","39265","0.0-1.0-5.0","go-nogo","false","0","","false","<div class = centerbox><div  id = stim1></div></div>","32","32","750","1000","practice","go","5","adv","","",""
"","-1","-1","1373","250","practice","poldrack-categorize","8","41893","0.0-1.0-6.0","go-nogo","false","0","","true","<div class = centerbox><div id = stim2></div></div>","-1","32","750","1000","practice","nogo","6","adv","","",""
"","-1","-1","1406","250","practice","poldrack-categorize","9","44555","0.0-1.0-7.0","go-nogo","false","0","","true","<div class = centerbox><div id = stim2></div></div>","-1","32","750","1000","practice","nogo","7","adv","","",""
"","-1","-1","1327","250","practice","poldrack-categorize","10","47136","0.0-1.0-8.0","go-nogo","false","0","","false","<div class = centerbox><div  id = stim1></div></div>","32","32","750","1000","practice","go","8","adv","","",""
"","-1","-1","1263","250","practice","poldrack-categorize","11","49654","0.0-1.0-9.0","go-nogo","false","0","","true","<div class = centerbox><div id = stim2></div></div>","-1","32","750","1000","practice","nogo","9","adv","","",""
"","","","","","reset_trial","call-function","12","49906","0.0-3.0","go-nogo","false","0","","","","","","","","","","","","","",""
"<div class = centerbox><p class = block-text>Practice is over, we will now begin the experiment. You will no longer get feedback about your responses.</p><p class = block-text>Remember, if you see the <font color=""orange"">orange</font> square you should <strong> respond by pressing the spacebar as quickly as possible</strong>. If you see the <font color=""blue"">blue</font> square you should <strong> not respond</strong>. Press <strong>enter</strong> to begin.</p></div>","24933","13","24933","1000","test_intro","poldrack-text","13","74839","0.0-4.0","go-nogo","false","0","","","","","","","","","","","","","",""
"","578","32","1246","0","test_block","poldrack-single-stim","14","77089","0.0-5.0-0.0","go-nogo","false","0","","true","<div class = centerbox><div  id = stim1></div></div>","32","32","750","","test","go","0","adv","","",""
"","413","32","1379","0","test_block","poldrack-single-stim","15","78587","0.0-5.0-1.0","go-nogo","false","0","","true","<div class = centerbox><div  id = stim1></div></div>","32","32","750","","test","go","1","adv","","",""
"","389","32","1133","0","test_block","poldrack-single-stim","16","79789","0.0-5.0-2.0","go-nogo","false","0","","true","<div class = centerbox><div  id = stim1></div></div>","32","32","750","","test","go","2","adv","","",""
"","398","32","1021","0","test_block","poldrack-single-stim","17","80869","0.0-5.0-3.0","go-nogo","false","0","","true","<div class = centerbox><div  id = stim1></div></div>","32","32","750","","test","go","3","adv","","",""
"","534","32","1475","0","test_block","poldrack-single-stim","18","82403","0.0-5.0-4.0","go-nogo","false","0","","true","<div class = centerbox><div  id = stim1></div></div>","32","32","750","","test","go","4","adv","","",""
"","382","32","1389","0","test_block","poldrack-single-stim","19","83845","0.0-5.0-5.0","go-nogo","false","0","","true","<div class = centerbox><div  id = stim1></div></div>","32","32","750","","test","go","5","adv","","",""
"","513","32","1459","0","test_block","poldrack-single-stim","20","85399","0.0-5.0-6.0","go-nogo","false","0","","true","<div class = centerbox><div  id = stim1></div></div>","32","32","750","","test","go","6","adv","","",""
"","347","32","1434","0","test_block","poldrack-single-stim","21","86900","0.0-5.0-7.0","go-nogo","false","0","","true","<div class = centerbox><div  id = stim1></div></div>","32","32","750","","test","go","7","adv","","",""
"","381","32","1021","0","test_block","poldrack-single-stim","22","87974","0.0-5.0-8.0","go-nogo","false","0","","true","<div class = centerbox><div  id = stim1></div></div>","32","32","750","","test","go","8","adv","","",""
"","455","32","1186","0","test_block","poldrack-single-stim","23","89216","0.0-5.0-9.0","go-nogo","false","0","","true","<div class = centerbox><div  id = stim1></div></div>","32","32","750","","test","go","9","adv","","",""
"","317","32","1381","0","test_block","poldrack-single-stim","24","90674","0.0-5.0-10.0","go-nogo","false","0","","true","<div class = centerbox><div  id = stim1></div></div>","32","32","750","","test","go","10","adv","","",""
"","428","32","1420","0","test_block","poldrack-single-stim","25","92197","0.0-5.0-11.0","go-nogo","false","0","","true","<div class = centerbox><div  id = stim1></div></div>","32","32","750","","test","go","11","adv","","",""
"","-1","-1","1358","0","test_block","poldrack-single-stim","26","93614","0.0-5.0-12.0","go-nogo","false","0","","false","<div class = centerbox><div  id = stim1></div></div>","32","32","750","","test","go","12","adv","","",""
"","351","32","1194","0","test_block","poldrack-single-stim","27","94880","0.0-5.0-13.0","go-nogo","false","0","","true","<div class = centerbox><div  id = stim1></div></div>","32","32","750","","test","go","13","adv","","",""
"","289","32","1065","0","test_block","poldrack-single-stim","28","96013","0.0-5.0-14.0","go-nogo","false","0","","false","<div class = centerbox><div  id = stim2></div></div>","-1","32","750","","test","nogo","14","adv","","",""
"","-1","-1","1180","0","test_block","poldrack-single-stim","29","97265","0.0-5.0-15.0","go-nogo","false","0","","true","<div class = centerbox><div  id = stim2></div></div>","-1","32","750","","test","nogo","15","adv","","",""
"","934","32","1393","0","test_block","poldrack-single-stim","30","98707","0.0-5.0-16.0","go-nogo","false","0","","true","<div class = centerbox><div  id = stim1></div></div>","32","32","750","","test","go","16","adv","","",""
"","557","32","1166","0","test_block","poldrack-single-stim","31","99943","0.0-5.0-17.0","go-nogo","false","0","","true","<div class = centerbox><div  id = stim1></div></div>","32","32","750","","test","go","17","adv","","",""
"","487","32","1142","0","test_block","poldrack-single-stim","32","101141","0.0-5.0-18.0","go-nogo","false","0","","true","<div class = centerbox><div  id = stim1></div></div>","32","32","750","","test","go","18","adv","","",""
"","605","32","1243","0","test_block","poldrack-single-stim","33","102453","0.0-5.0-19.0","go-nogo","false","0","","true","<div class = centerbox><div  id = stim1></div></div>","32","32","750","","test","go","19","adv","","",""
"","386","32","1405","0","test_block","poldrack-single-stim","34","103920","0.0-5.0-20.0","go-nogo","false","0","","true","<div class = centerbox><div  id = stim1></div></div>","32","32","750","","test","go","20","adv","","",""
"","-1","-1","1126","0","test_block","poldrack-single-stim","35","105111","0.0-5.0-21.0","go-nogo","false","0","","false","<div class = centerbox><div  id = stim1></div></div>","32","32","750","","test","go","21","adv","","",""
"","330","32","1130","0","test_block","poldrack-single-stim","36","106293","0.0-5.0-22.0","go-nogo","false","0","","true","<div class = centerbox><div  id = stim1></div></div>","32","32","750","","test","go","22","adv","","",""
"","331","32","1157","0","test_block","poldrack-single-stim","37","107519","0.0-5.0-23.0","go-nogo","false","0","","true","<div class = centerbox><div  id = stim1></div></div>","32","32","750","","test","go","23","adv","","",""
"","-1","-1","1307","0","test_block","poldrack-single-stim","38","108889","0.0-5.0-24.0","go-nogo","false","0","","false","<div class = centerbox><div  id = stim1></div></div>","32","32","750","","test","go","24","adv","","",""
"","-1","-1","1054","0","test_block","poldrack-single-stim","39","110015","0.0-5.0-25.0","go-nogo","false","0","","false","<div class = centerbox><div  id = stim1></div></div>","32","32","750","","test","go","25","adv","","",""
"","470","32","1196","0","test_block","poldrack-single-stim","40","111275","0.0-5.0-26.0","go-nogo","false","0","","true","<div class = centerbox><div  id = stim1></div></div>","32","32","750","","test","go","26","adv","","",""
"","83","32","1427","0","test_block","poldrack-single-stim","41","112740","0.0-5.0-27.0","go-nogo","false","0","","false","<div class = centerbox><div  id = stim2></div></div>","-1","32","750","","test","nogo","27","adv","","",""
"","-1","-1","1030","0","test_block","poldrack-single-stim","42","113859","0.0-5.0-28.0","go-nogo","false","0","","true","<div class = centerbox><div  id = stim2></div></div>","-1","32","750","","test","nogo","28","adv","","",""
"","623","32","1297","0","test_block","poldrack-single-stim","43","115208","0.0-5.0-29.0","go-nogo","false","0","","true","<div class = centerbox><div  id = stim1></div></div>","32","32","750","","test","go","29","adv","","",""
"","-1","-1","1053","0","test_block","poldrack-single-stim","44","116335","0.0-5.0-30.0","go-nogo","false","0","","false","<div class = centerbox><div  id = stim1></div></div>","32","32","750","","test","go","30","adv","","",""
"","314","32","1178","0","test_block","poldrack-single-stim","45","117557","0.0-5.0-31.0","go-nogo","false","0","","true","<div class = centerbox><div  id = stim1></div></div>","32","32","750","","test","go","31","adv","","",""
"","366","32","1337","0","test_block","poldrack-single-stim","46","118943","0.0-5.0-32.0","go-nogo","false","0","","true","<div class = centerbox><div  id = stim1></div></div>","32","32","750","","test","go","32","adv","","",""
"","419","32","1293","0","test_block","poldrack-single-stim","47","120287","0.0-5.0-33.0","go-nogo","false","0","","true","<div class = centerbox><div  id = stim1></div></div>","32","32","750","","test","go","33","adv","","",""
"","397","32","1002","0","test_block","poldrack-single-stim","48","121345","0.0-5.0-34.0","go-nogo","false","0","","true","<div class = centerbox><div  id = stim1></div></div>","32","32","750","","test","go","34","adv","","",""
"","403","32","1282","0","test_block","poldrack-single-stim","49","122691","0.0-5.0-35.0","go-nogo","false","0","","true","<div class = centerbox><div  id = stim1></div></div>","32","32","750","","test","go","35","adv","","",""
"","466","32","1445","0","test_block","poldrack-single-stim","50","124233","0.0-5.0-36.0","go-nogo","false","0","","true","<div class = centerbox><div  id = stim1></div></div>","32","32","750","","test","go","36","adv","","",""
"","340","32","1480","0","test_block","poldrack-single-stim","51","125769","0.0-5.0-37.0","go-nogo","false","0","","true","<div class = centerbox><div  id = stim1></div></div>","32","32","750","","test","go","37","adv","","",""
"","348","32","1240","0","test_block","poldrack-single-stim","52","127089","0.0-5.0-38.0","go-nogo","false","0","","true","<div class = centerbox><div  id = stim1></div></div>","32","32","750","","test","go","38","adv","","",""
"","375","32","1400","0","test_block","poldrack-single-stim","53","128534","0.0-5.0-39.0","go-nogo","false","0","","true","<div class = centerbox><div  id = stim1></div></div>","32","32","750","","test","go","39","adv","","",""
"","-1","-1","1278","0","test_block","poldrack-single-stim","54","129861","0.0-5.0-40.0","go-nogo","false","0","","false","<div class = centerbox><div  id = stim1></div></div>","32","32","750","","test","go","40","adv","","",""
"","468","32","1428","0","test_block","poldrack-single-stim","55","131334","0.0-5.0-41.0","go-nogo","false","0","","true","<div class = centerbox><div  id = stim1></div></div>","32","32","750","","test","go","41","adv","","",""
"","587","32","1474","0","test_block","poldrack-single-stim","56","132859","0.0-5.0-42.0","go-nogo","false","0","","true","<div class = centerbox><div  id = stim1></div></div>","32","32","750","","test","go","42","adv","","",""
"","-1","-1","1454","0","test_block","poldrack-single-stim","57","134371","0.0-5.0-43.0","go-nogo","false","0","","false","<div class = centerbox><div  id = stim1></div></div>","32","32","750","","test","go","43","adv","","",""
"","278","32","1017","0","test_block","poldrack-single-stim","58","135448","0.0-5.0-44.0","go-nogo","false","0","","true","<div class = centerbox><div  id = stim1></div></div>","32","32","750","","test","go","44","adv","","",""
"","685","32","1444","0","test_block","poldrack-single-stim","59","136940","0.0-5.0-45.0","go-nogo","false","0","","true","<div class = centerbox><div  id = stim1></div></div>","32","32","750","","test","go","45","adv","","",""
"","343","32","1316","0","test_block","poldrack-single-stim","60","138307","0.0-5.0-46.0","go-nogo","false","0","","true","<div class = centerbox><div  id = stim1></div></div>","32","32","750","","test","go","46","adv","","",""
"","468","32","1381","0","test_block","poldrack-single-stim","61","139733","0.0-5.0-47.0","go-nogo","false","0","","true","<div class = centerbox><div  id = stim1></div></div>","32","32","750","","test","go","47","adv","","",""
"","334","32","1381","0","test_block","poldrack-single-stim","62","141165","0.0-5.0-48.0","go-nogo","false","0","","true","<div class = centerbox><div  id = stim1></div></div>","32","32","750","","test","go","48","adv","","",""
"","319","32","1114","0","test_block","poldrack-single-stim","63","142337","0.0-5.0-49.0","go-nogo","false","0","","true","<div class = centerbox><div  id = stim1></div></div>","32","32","750","","test","go","49","adv","","",""
"","287","32","1112","0","test_block","poldrack-single-stim","64","143503","0.0-5.0-50.0","go-nogo","false","0","","true","<div class = centerbox><div  id = stim1></div></div>","32","32","750","","test","go","50","adv","","",""
"","327","32","1331","0","test_block","poldrack-single-stim","65","144898","0.0-5.0-51.0","go-nogo","false","0","","true","<div class = centerbox><div  id = stim1></div></div>","32","32","750","","test","go","51","adv","","",""
"","27","32","1292","0","test_block","poldrack-single-stim","66","146262","0.0-5.0-52.0","go-nogo","false","0","","true","<div class = centerbox><div  id = stim1></div></div>","32","32","750","","test","go","52","adv","","",""
"","352","32","1163","0","test_block","poldrack-single-stim","67","147475","0.0-5.0-53.0","go-nogo","false","0","","true","<div class = centerbox><div  id = stim1></div></div>","32","32","750","","test","go","53","adv","","",""
"","331","32","1185","0","test_block","poldrack-single-stim","68","148718","0.0-5.0-54.0","go-nogo","false","0","","true","<div class = centerbox><div  id = stim1></div></div>","32","32","750","","test","go","54","adv","","",""
"","326","32","1021","0","test_block","poldrack-single-stim","69","149809","0.0-5.0-55.0","go-nogo","false","0","","true","<div class = centerbox><div  id = stim1></div></div>","32","32","750","","test","go","55","adv","","",""
"","345","32","1468","0","test_block","poldrack-single-stim","70","151353","0.0-5.0-56.0","go-nogo","false","0","","true","<div class = centerbox><div  id = stim1></div></div>","32","32","750","","test","go","56","adv","","",""
"","352","32","1222","0","test_block","poldrack-single-stim","71","152635","0.0-5.0-57.0","go-nogo","false","0","","true","<div class = centerbox><div  id = stim1></div></div>","32","32","750","","test","go","57","adv","","",""
"","363","32","1061","0","test_block","poldrack-single-stim","72","153775","0.0-5.0-58.0","go-nogo","false","0","","true","<div class = centerbox><div  id = stim1></div></div>","32","32","750","","test","go","58","adv","","",""
"","352","32","1203","0","test_block","poldrack-single-stim","73","155016","0.0-5.0-59.0","go-nogo","false","0","","true","<div class = centerbox><div  id = stim1></div></div>","32","32","750","","test","go","59","adv","","",""
"","323","32","1226","0","test_block","poldrack-single-stim","74","156286","0.0-5.0-60.0","go-nogo","false","0","","true","<div class = centerbox><div  id = stim1></div></div>","32","32","750","","test","go","60","adv","","",""
"","349","32","1104","0","test_block","poldrack-single-stim","75","157466","0.0-5.0-61.0","go-nogo","false","0","","true","<div class = centerbox><div  id = stim1></div></div>","32","32","750","","test","go","61","adv","","",""
"","408","32","1451","0","test_block","poldrack-single-stim","76","158968","0.0-5.0-62.0","go-nogo","false","0","","true","<div class = centerbox><div  id = stim1></div></div>","32","32","750","","test","go","62","adv","","",""
"","355","32","1362","0","test_block","poldrack-single-stim","77","160389","0.0-5.0-63.0","go-nogo","false","0","","true","<div class = centerbox><div  id = stim1></div></div>","32","32","750","","test","go","63","adv","","",""
"","359","32","1276","0","test_block","poldrack-single-stim","78","161722","0.0-5.0-64.0","go-nogo","false","0","","true","<div class = centerbox><div  id = stim1></div></div>","32","32","750","","test","go","64","adv","","",""
"","353","32","1442","0","test_block","poldrack-single-stim","79","163239","0.0-5.0-65.0","go-nogo","false","0","","true","<div class = centerbox><div  id = stim1></div></div>","32","32","750","","test","go","65","adv","","",""
"","369","32","1332","0","test_block","poldrack-single-stim","80","164648","0.0-5.0-66.0","go-nogo","false","0","","true","<div class = centerbox><div  id = stim1></div></div>","32","32","750","","test","go","66","adv","","",""
"","345","32","1217","0","test_block","poldrack-single-stim","81","165918","0.0-5.0-67.0","go-nogo","false","0","","true","<div class = centerbox><div  id = stim1></div></div>","32","32","750","","test","go","67","adv","","",""
"","367","32","1351","0","test_block","poldrack-single-stim","82","167326","0.0-5.0-68.0","go-nogo","false","0","","true","<div class = centerbox><div  id = stim1></div></div>","32","32","750","","test","go","68","adv","","",""
"","348","32","1267","0","test_block","poldrack-single-stim","83","168655","0.0-5.0-69.0","go-nogo","false","0","","true","<div class = centerbox><div  id = stim1></div></div>","32","32","750","","test","go","69","adv","","",""
"","241","32","1460","0","test_block","poldrack-single-stim","84","170201","0.0-5.0-70.0","go-nogo","false","0","","true","<div class = centerbox><div  id = stim1></div></div>","32","32","750","","test","go","70","adv","","",""
"","223","32","1441","0","test_block","poldrack-single-stim","85","171702","0.0-5.0-71.0","go-nogo","false","0","","true","<div class = centerbox><div  id = stim1></div></div>","32","32","750","","test","go","71","adv","","",""
"","300","32","1473","0","test_block","poldrack-single-stim","86","173227","0.0-5.0-72.0","go-nogo","false","0","","true","<div class = centerbox><div  id = stim1></div></div>","32","32","750","","test","go","72","adv","","",""
"","102","32","1036","0","test_block","poldrack-single-stim","87","174331","0.0-5.0-73.0","go-nogo","false","0","","true","<div class = centerbox><div  id = stim1></div></div>","32","32","750","","test","go","73","adv","","",""
"","324","32","1052","0","test_block","poldrack-single-stim","88","175437","0.0-5.0-74.0","go-nogo","false","0","","true","<div class = centerbox><div  id = stim1></div></div>","32","32","750","","test","go","74","adv","","",""
"","589","32","1398","0","test_block","poldrack-single-stim","89","176878","0.0-5.0-75.0","go-nogo","false","0","","true","<div class = centerbox><div  id = stim1></div></div>","32","32","750","","test","go","75","adv","","",""
"","57","32","1228","0","test_block","poldrack-single-stim","90","178152","0.0-5.0-76.0","go-nogo","false","0","","true","<div class = centerbox><div  id = stim1></div></div>","32","32","750","","test","go","76","adv","","",""
"","74","32","1115","0","test_block","poldrack-single-stim","91","179318","0.0-5.0-77.0","go-nogo","false","0","","true","<div class = centerbox><div  id = stim1></div></div>","32","32","750","","test","go","77","adv","","",""
"","-1","-1","1158","0","test_block","poldrack-single-stim","92","180510","0.0-5.0-78.0","go-nogo","false","0","","false","<div class = centerbox><div  id = stim1></div></div>","32","32","750","","test","go","78","adv","","",""
"","-1","-1","1210","0","test_block","poldrack-single-stim","93","181795","0.0-5.0-79.0","go-nogo","false","0","","false","<div class = centerbox><div  id = stim1></div></div>","32","32","750","","test","go","79","adv","","",""
"","-1","-1","1184","0","test_block","poldrack-single-stim","94","183042","0.0-5.0-80.0","go-nogo","false","0","","false","<div class = centerbox><div  id = stim1></div></div>","32","32","750","","test","go","80","adv","","",""
"","-1","-1","1027","0","test_block","poldrack-single-stim","95","184138","0.0-5.0-81.0","go-nogo","false","0","","false","<div class = centerbox><div  id = stim1></div></div>","32","32","750","","test","go","81","adv","","",""
"","-1","-1","1409","0","test_block","poldrack-single-stim","96","185590","0.0-5.0-82.0","go-nogo","false","0","","false","<div class = centerbox><div  id = stim1></div></div>","32","32","750","","test","go","82","adv","","",""
"","530","32","1023","0","test_block","poldrack-single-stim","97","186678","0.0-5.0-83.0","go-nogo","false","0","","true","<div class = centerbox><div  id = stim1></div></div>","32","32","750","","test","go","83","adv","","",""
"","25","32","1029","0","test_block","poldrack-single-stim","98","187777","0.0-5.0-84.0","go-nogo","false","0","","false","<div class = centerbox><div  id = stim2></div></div>","-1","32","750","","test","nogo","84","adv","","",""
"","-1","-1","1414","0","test_block","poldrack-single-stim","99","189252","0.0-5.0-85.0","go-nogo","false","0","","true","<div class = centerbox><div  id = stim2></div></div>","-1","32","750","","test","nogo","85","adv","","",""
"","501","32","1170","0","test_block","poldrack-single-stim","100","190467","0.0-5.0-86.0","go-nogo","false","0","","true","<div class = centerbox><div  id = stim1></div></div>","32","32","750","","test","go","86","adv","","",""
"","-1","-1","1367","0","test_block","poldrack-single-stim","101","191893","0.0-5.0-87.0","go-nogo","false","0","","false","<div class = centerbox><div  id = stim1></div></div>","32","32","750","","test","go","87","adv","","",""
"","-1","-1","1333","0","test_block","poldrack-single-stim","102","193276","0.0-5.0-88.0","go-nogo","false","0","","false","<div class = centerbox><div  id = stim1></div></div>","32","32","750","","test","go","88","adv","","",""
"","338","32","1375","0","test_block","poldrack-single-stim","103","194706","0.0-5.0-89.0","go-nogo","false","0","","true","<div class = centerbox><div  id = stim1></div></div>","32","32","750","","test","go","89","adv","","",""
"","-1","-1","1373","0","test_block","poldrack-single-stim","104","196137","0.0-5.0-90.0","go-nogo","false","0","","true","<div class = centerbox><div  id = stim2></div></div>","-1","32","750","","test","nogo","90","adv","","",""
"","431","32","1208","0","test_block","poldrack-single-stim","105","197390","0.0-5.0-91.0","go-nogo","false","0","","true","<div class = centerbox><div  id = stim1></div></div>","32","32","750","","test","go","91","adv","","",""
"","-1","-1","1063","0","test_block","poldrack-single-stim","106","198499","0.0-5.0-92.0","go-nogo","false","0","","true","<div class = centerbox><div  id = stim2></div></div>","-1","32","750","","test","nogo","92","adv","","",""
"","451","32","1099","0","test_block","poldrack-single-stim","107","199645","0.0-5.0-93.0","go-nogo","false","0","","true","<div class = centerbox><div  id = stim1></div></div>","32","32","750","","test","go","93","adv","","",""
"","-1","-1","1030","0","test_block","poldrack-single-stim","108","200722","0.0-5.0-94.0","go-nogo","false","0","","true","<div class = centerbox><div  id = stim2></div></div>","-1","32","750","","test","nogo","94","adv","","",""
"","-1","-1","1402","0","test_block","poldrack-single-stim","109","202181","0.0-5.0-95.0","go-nogo","false","0","","false","<div class = centerbox><div  id = stim1></div></div>","32","32","750","","test","go","95","adv","","",""
"","-1","-1","1418","0","test_block","poldrack-single-stim","110","203650","0.0-5.0-96.0","go-nogo","false","0","","false","<div class = centerbox><div  id = stim1></div></div>","32","32","750","","test","go","96","adv","","",""
"","370","32","1262","0","test_block","poldrack-single-stim","111","204962","0.0-5.0-97.0","go-nogo","false","0","","true","<div class = centerbox><div  id = stim1></div></div>","32","32","750","","test","go","97","adv","","",""
"","-1","-1","1244","0","test_block","poldrack-single-stim","112","206253","0.0-5.0-98.0","go-nogo","false","0","","true","<div class = centerbox><div  id = stim2></div></div>","-1","32","750","","test","nogo","98","adv","","",""
"","353","32","1169","0","test_block","poldrack-single-stim","113","207478","0.0-5.0-99.0","go-nogo","false","0","","true","<div class = centerbox><div  id = stim1></div></div>","32","32","750","","test","go","99","adv","","",""
"","-1","-1","1025","0","test_block","poldrack-single-stim","114","208556","0.0-5.0-100.0","go-nogo","false","0","","true","<div class = centerbox><div  id = stim2></div></div>","-1","32","750","","test","nogo","100","adv","","",""
"","510","32","1181","0","test_block","poldrack-single-stim","115","209780","0.0-5.0-101.0","go-nogo","false","0","","true","<div class = centerbox><div  id = stim1></div></div>","32","32","750","","test","go","101","adv","","",""
"","507","32","1176","0","test_block","poldrack-single-stim","116","211010","0.0-5.0-102.0","go-nogo","false","0","","true","<div class = centerbox><div  id = stim1></div></div>","32","32","750","","test","go","102","adv","","",""
"","318","32","1383","0","test_block","poldrack-single-stim","117","212447","0.0-5.0-103.0","go-nogo","false","0","","true","<div class = centerbox><div  id = stim1></div></div>","32","32","750","","test","go","103","adv","","",""
"","-1","-1","1472","0","test_block","poldrack-single-stim","118","213965","0.0-5.0-104.0","go-nogo","false","0","","false","<div class = centerbox><div  id = stim1></div></div>","32","32","750","","test","go","104","adv","","",""
"","321","32","1492","0","test_block","poldrack-single-stim","119","215512","0.0-5.0-105.0","go-nogo","false","0","","true","<div class = centerbox><div  id = stim1></div></div>","32","32","750","","test","go","105","adv","","",""
"","-1","-1","1473","0","test_block","poldrack-single-stim","120","217031","0.0-5.0-106.0","go-nogo","false","0","","false","<div class = centerbox><div  id = stim1></div></div>","32","32","750","","test","go","106","adv","","",""
"","407","32","1044","0","test_block","poldrack-single-stim","121","218114","0.0-5.0-107.0","go-nogo","false","0","","true","<div class = centerbox><div  id = stim1></div></div>","32","32","750","","test","go","107","adv","","",""
"","159","32","1151","0","test_block","poldrack-single-stim","122","219317","0.0-5.0-108.0","go-nogo","false","0","","true","<div class = centerbox><div  id = stim1></div></div>","32","32","750","","test","go","108","adv","","",""
"","339","32","1135","0","test_block","poldrack-single-stim","123","220497","0.0-5.0-109.0","go-nogo","false","0","","true","<div class = centerbox><div  id = stim1></div></div>","32","32","750","","test","go","109","adv","","",""
"","134","32","1295","0","test_block","poldrack-single-stim","124","221838","0.0-5.0-110.0","go-nogo","false","0","","true","<div class = centerbox><div  id = stim1></div></div>","32","32","750","","test","go","110","adv","","",""
"","-1","-1","1339","0","test_block","poldrack-single-stim","125","223246","0.0-5.0-111.0","go-nogo","false","0","","false","<div class = centerbox><div  id = stim1></div></div>","32","32","750","","test","go","111","adv","","",""
"","289","32","1013","0","test_block","poldrack-single-stim","126","224312","0.0-5.0-112.0","go-nogo","false","0","","true","<div class = centerbox><div  id = stim1></div></div>","32","32","750","","test","go","112","adv","","",""
"","279","32","1396","0","test_block","poldrack-single-stim","127","225762","0.0-5.0-113.0","go-nogo","false","0","","true","<div class = centerbox><div  id = stim1></div></div>","32","32","750","","test","go","113","adv","","",""
"","3","32","1407","0","test_block","poldrack-single-stim","128","227200","0.0-5.0-114.0","go-nogo","false","0","","true","<div class = centerbox><div  id = stim1></div></div>","32","32","750","","test","go","114","adv","","",""
"","-1","-1","1379","0","test_block","poldrack-single-stim","129","228636","0.0-5.0-115.0","go-nogo","false","0","","false","<div class = centerbox><div  id = stim1></div></div>","32","32","750","","test","go","115","adv","","",""
"","-1","-1","1038","0","test_block","poldrack-single-stim","130","229727","0.0-5.0-116.0","go-nogo","false","0","","false","<div class = centerbox><div  id = stim1></div></div>","32","32","750","","test","go","116","adv","","",""
"","-1","-1","1188","0","test_block","poldrack-single-stim","131","230960","0.0-5.0-117.0","go-nogo","false","0","","false","<div class = centerbox><div  id = stim1></div></div>","32","32","750","","test","go","117","adv","","",""
"","-1","-1","1194","0","test_block","poldrack-single-stim","132","232198","0.0-5.0-118.0","go-nogo","false","0","","false","<div class = centerbox><div  id = stim1></div></div>","32","32","750","","test","go","118","adv","","",""
"","517","32","1081","0","test_block","poldrack-single-stim","133","233321","0.0-5.0-119.0","go-nogo","false","0","","true","<div class = centerbox><div  id = stim1></div></div>","32","32","750","","test","go","119","adv","","",""
"","-1","-1","1299","0","test_block","poldrack-single-stim","134","234669","0.0-5.0-120.0","go-nogo","false","0","","true","<div class = centerbox><div  id = stim2></div></div>","-1","32","750","","test","nogo","120","adv","","",""
"","-1","-1","1310","0","test_block","poldrack-single-stim","135","236030","0.0-5.0-121.0","go-nogo","false","0","","false","<div class = centerbox><div  id = stim1></div></div>","32","32","750","","test","go","121","adv","","",""
"","-1","-1","1300","0","test_block","poldrack-single-stim","136","237376","0.0-5.0-122.0","go-nogo","false","0","","false","<div class = centerbox><div  id = stim1></div></div>","32","32","750","","test","go","122","adv","","",""
"","341","32","1305","0","test_block","poldrack-single-stim","137","238730","0.0-5.0-123.0","go-nogo","false","0","","true","<div class = centerbox><div  id = stim1></div></div>","32","32","750","","test","go","123","adv","","",""
"","-1","-1","1356","0","test_block","poldrack-single-stim","138","240159","0.0-5.0-124.0","go-nogo","false","0","","true","<div class = centerbox><div  id = stim2></div></div>","-1","32","750","","test","nogo","124","adv","","",""
"","-1","-1","1153","0","test_block","poldrack-single-stim","139","241370","0.0-5.0-125.0","go-nogo","false","0","","false","<div class = centerbox><div  id = stim1></div></div>","32","32","750","","test","go","125","adv","","",""
"","302","32","1014","0","test_block","poldrack-single-stim","140","242429","0.0-5.0-126.0","go-nogo","false","0","","true","<div class = centerbox><div  id = stim1></div></div>","32","32","750","","test","go","126","adv","","",""
"","274","32","1428","0","test_block","poldrack-single-stim","141","243910","0.0-5.0-127.0","go-nogo","false","0","","false","<div class = centerbox><div  id = stim2></div></div>","-1","32","750","","test","nogo","127","adv","","",""
"","-1","-1","1392","0","test_block","poldrack-single-stim","142","245347","0.0-5.0-128.0","go-nogo","false","0","","true","<div class = centerbox><div  id = stim2></div></div>","-1","32","750","","test","nogo","128","adv","","",""
"","444","32","1188","0","test_block","poldrack-single-stim","143","246588","0.0-5.0-129.0","go-nogo","false","0","","true","<div class = centerbox><div  id = stim1></div></div>","32","32","750","","test","go","129","adv","","",""
"","364","32","1266","0","test_block","poldrack-single-stim","144","247899","0.0-5.0-130.0","go-nogo","false","0","","true","<div class = centerbox><div  id = stim1></div></div>","32","32","750","","test","go","130","adv","","",""
"","-1","-1","1498","0","test_block","poldrack-single-stim","145","249451","0.0-5.0-131.0","go-nogo","false","0","","false","<div class = centerbox><div  id = stim1></div></div>","32","32","750","","test","go","131","adv","","",""
"","-1","-1","1184","0","test_block","poldrack-single-stim","146","250689","0.0-5.0-132.0","go-nogo","false","0","","false","<div class = centerbox><div  id = stim1></div></div>","32","32","750","","test","go","132","adv","","",""
"","-1","-1","1407","0","test_block","poldrack-single-stim","147","252143","0.0-5.0-133.0","go-nogo","false","0","","false","<div class = centerbox><div  id = stim1></div></div>","32","32","750","","test","go","133","adv","","",""
"","-1","-1","1265","0","test_block","poldrack-single-stim","148","253452","0.0-5.0-134.0","go-nogo","false","0","","false","<div class = centerbox><div  id = stim1></div></div>","32","32","750","","test","go","134","adv","","",""
"","-1","-1","1097","0","test_block","poldrack-single-stim","149","254594","0.0-5.0-135.0","go-nogo","false","0","","false","<div class = centerbox><div  id = stim1></div></div>","32","32","750","","test","go","135","adv","","",""
"","-1","-1","1389","0","test_block","poldrack-single-stim","150","256028","0.0-5.0-136.0","go-nogo","false","0","","false","<div class = centerbox><div  id = stim1></div></div>","32","32","750","","test","go","136","adv","","",""
"","-1","-1","1050","0","test_block","poldrack-single-stim","151","257130","0.0-5.0-137.0","go-nogo","false","0","","false","<div class = centerbox><div  id = stim1></div></div>","32","32","750","","test","go","137","adv","","",""
"","452","32","1472","0","test_block","poldrack-single-stim","152","258643","0.0-5.0-138.0","go-nogo","false","0","","true","<div class = centerbox><div  id = stim1></div></div>","32","32","750","","test","go","138","adv","","",""
"","-1","-1","1393","0","test_block","poldrack-single-stim","153","260096","0.0-5.0-139.0","go-nogo","false","0","","true","<div class = centerbox><div  id = stim2></div></div>","-1","32","750","","test","nogo","139","adv","","",""
"","357","32","1293","0","test_block","poldrack-single-stim","154","261438","0.0-5.0-140.0","go-nogo","false","0","","true","<div class = centerbox><div  id = stim1></div></div>","32","32","750","","test","go","140","adv","","",""
"","442","32","1305","0","test_block","poldrack-single-stim","155","262788","0.0-5.0-141.0","go-nogo","false","0","","false","<div class = centerbox><div  id = stim2></div></div>","-1","32","750","","test","nogo","141","adv","","",""
"","-1","-1","1005","0","test_block","poldrack-single-stim","156","263852","0.0-5.0-142.0","go-nogo","false","0","","true","<div class = centerbox><div  id = stim2></div></div>","-1","32","750","","test","nogo","142","adv","","",""
"","-1","-1","1367","0","test_block","poldrack-single-stim","157","265272","0.0-5.0-143.0","go-nogo","false","0","","false","<div class = centerbox><div  id = stim1></div></div>","32","32","750","","test","go","143","adv","","",""
"","-1","-1","1102","0","test_block","poldrack-single-stim","158","266407","0.0-5.0-144.0","go-nogo","false","0","","false","<div class = centerbox><div  id = stim1></div></div>","32","32","750","","test","go","144","adv","","",""
"","-1","-1","1442","0","test_block","poldrack-single-stim","159","267899","0.0-5.0-145.0","go-nogo","false","0","","false","<div class = centerbox><div  id = stim1></div></div>","32","32","750","","test","go","145","adv","","",""
"","-1","-1","1029","0","test_block","poldrack-single-stim","160","268982","0.0-5.0-146.0","go-nogo","false","0","","false","<div class = centerbox><div  id = stim1></div></div>","32","32","750","","test","go","146","adv","","",""
"","-1","-1","1442","0","test_block","poldrack-single-stim","161","270476","0.0-5.0-147.0","go-nogo","false","0","","false","<div class = centerbox><div  id = stim1></div></div>","32","32","750","","test","go","147","adv","","",""
"","-1","-1","1397","0","test_block","poldrack-single-stim","162","271915","0.0-5.0-148.0","go-nogo","false","0","","false","<div class = centerbox><div  id = stim1></div></div>","32","32","750","","test","go","148","adv","","",""
"","-1","-1","1098","0","test_block","poldrack-single-stim","163","273056","0.0-5.0-149.0","go-nogo","false","0","","false","<div class = centerbox><div  id = stim1></div></div>","32","32","750","","test","go","149","adv","","",""
"","822","32","1410","0","test_block","poldrack-single-stim","164","274497","0.0-5.0-150.0","go-nogo","false","0","","true","<div class = centerbox><div  id = stim1></div></div>","32","32","750","","test","go","150","adv","","",""
"","-1","-1","1406","0","test_block","poldrack-single-stim","165","275944","0.0-5.0-151.0","go-nogo","false","0","","true","<div class = centerbox><div  id = stim2></div></div>","-1","32","750","","test","nogo","151","adv","","",""
"","-1","-1","1281","0","test_block","poldrack-single-stim","166","277284","0.0-5.0-152.0","go-nogo","false","0","","false","<div class = centerbox><div  id = stim1></div></div>","32","32","750","","test","go","152","adv","","",""
"","-1","-1","1374","0","test_block","poldrack-single-stim","167","278701","0.0-5.0-153.0","go-nogo","false","0","","false","<div class = centerbox><div  id = stim1></div></div>","32","32","750","","test","go","153","adv","","",""
"","-1","-1","1422","0","test_block","poldrack-single-stim","168","280181","0.0-5.0-154.0","go-nogo","false","0","","false","<div class = centerbox><div  id = stim1></div></div>","32","32","750","","test","go","154","adv","","",""
"","-1","-1","1285","0","test_block","poldrack-single-stim","169","281514","0.0-5.0-155.0","go-nogo","false","0","","false","<div class = centerbox><div  id = stim1></div></div>","32","32","750","","test","go","155","adv","","",""
"","-1","-1","1113","0","test_block","poldrack-single-stim","170","282676","0.0-5.0-156.0","go-nogo","false","0","","false","<div class = centerbox><div  id = stim1></div></div>","32","32","750","","test","go","156","adv","","",""
"","-1","-1","1334","0","test_block","poldrack-single-stim","171","284059","0.0-5.0-157.0","go-nogo","false","0","","false","<div class = centerbox><div  id = stim1></div></div>","32","32","750","","test","go","157","adv","","",""
"","-1","-1","1451","0","test_block","poldrack-single-stim","172","285553","0.0-5.0-158.0","go-nogo","false","0","","false","<div class = centerbox><div  id = stim1></div></div>","32","32","750","","test","go","158","adv","","",""
"","-1","-1","1135","0","test_block","poldrack-single-stim","173","286735","0.0-5.0-159.0","go-nogo","false","0","","false","<div class = centerbox><div  id = stim1></div></div>","32","32","750","","test","go","159","adv","","",""
"","-1","-1","1235","0","test_block","poldrack-single-stim","174","288070","0.0-5.0-160.0","go-nogo","false","0","","false","<div class = centerbox><div  id = stim1></div></div>","32","32","750","","test","go","160","adv","","",""
"","-1","-1","1290","0","test_block","poldrack-single-stim","175","289393","0.0-5.0-161.0","go-nogo","false","0","","false","<div class = centerbox><div  id = stim1></div></div>","32","32","750","","test","go","161","adv","","",""
"","-1","-1","1201","0","test_block","poldrack-single-stim","176","290644","0.0-5.0-162.0","go-nogo","false","0","","false","<div class = centerbox><div  id = stim1></div></div>","32","32","750","","test","go","162","adv","","",""
"","-1","-1","1483","0","test_block","poldrack-single-stim","177","292182","0.0-5.0-163.0","go-nogo","false","0","","false","<div class = centerbox><div  id = stim1></div></div>","32","32","750","","test","go","163","adv","","",""
"","457","32","1438","0","test_block","poldrack-single-stim","178","293674","0.0-5.0-164.0","go-nogo","false","0","","true","<div class = centerbox><div  id = stim1></div></div>","32","32","750","","test","go","164","adv","","",""
"","-1","-1","1144","0","test_block","poldrack-single-stim","179","294871","0.0-5.0-165.0","go-nogo","false","0","","true","<div class = centerbox><div  id = stim2></div></div>","-1","32","750","","test","nogo","165","adv","","",""
"","-1","-1","1182","0","test_block","poldrack-single-stim","180","296084","0.0-5.0-166.0","go-nogo","false","0","","false","<div class = centerbox><div  id = stim1></div></div>","32","32","750","","test","go","166","adv","","",""
"","-1","-1","1107","0","test_block","poldrack-single-stim","181","297222","0.0-5.0-167.0","go-nogo","false","0","","false","<div class = centerbox><div  id = stim1></div></div>","32","32","750","","test","go","167","adv","","",""
"","1235","32","1314","0","test_block","poldrack-single-stim","182","298595","0.0-5.0-168.0","go-nogo","false","0","","true","<div class = centerbox><div  id = stim1></div></div>","32","32","750","","test","go","168","adv","","",""
"","-1","-1","1324","0","test_block","poldrack-single-stim","183","299975","0.0-5.0-169.0","go-nogo","false","0","","true","<div class = centerbox><div  id = stim2></div></div>","-1","32","750","","test","nogo","169","adv","","",""
"","317","32","1419","0","test_block","poldrack-single-stim","184","301425","0.0-5.0-170.0","go-nogo","false","0","","true","<div class = centerbox><div  id = stim1></div></div>","32","32","750","","test","go","170","adv","","",""
"","-1","-1","1026","0","test_block","poldrack-single-stim","185","302499","0.0-5.0-171.0","go-nogo","false","0","","true","<div class = centerbox><div  id = stim2></div></div>","-1","32","750","","test","nogo","171","adv","","",""
"","481","32","1072","0","test_block","poldrack-single-stim","186","303619","0.0-5.0-172.0","go-nogo","false","0","","true","<div class = centerbox><div  id = stim1></div></div>","32","32","750","","test","go","172","adv","","",""
"","-1","-1","1430","0","test_block","poldrack-single-stim","187","305094","0.0-5.0-173.0","go-nogo","false","0","","true","<div class = centerbox><div  id = stim2></div></div>","-1","32","750","","test","nogo","173","adv","","",""
"","307","32","1005","0","test_block","poldrack-single-stim","188","306143","0.0-5.0-174.0","go-nogo","false","0","","true","<div class = centerbox><div  id = stim1></div></div>","32","32","750","","test","go","174","adv","","",""
"","-1","-1","1266","0","test_block","poldrack-single-stim","189","307452","0.0-5.0-175.0","go-nogo","false","0","","false","<div class = centerbox><div  id = stim1></div></div>","32","32","750","","test","go","175","adv","","",""
"","308","32","1165","0","test_block","poldrack-single-stim","190","308669","0.0-5.0-176.0","go-nogo","false","0","","true","<div class = centerbox><div  id = stim1></div></div>","32","32","750","","test","go","176","adv","","",""
"","346","32","1072","0","test_block","poldrack-single-stim","191","309787","0.0-5.0-177.0","go-nogo","false","0","","true","<div class = centerbox><div  id = stim1></div></div>","32","32","750","","test","go","177","adv","","",""
"","323","32","1349","0","test_block","poldrack-single-stim","192","311207","0.0-5.0-178.0","go-nogo","false","0","","true","<div class = centerbox><div  id = stim1></div></div>","32","32","750","","test","go","178","adv","","",""
"","364","32","1402","0","test_block","poldrack-single-stim","193","312706","0.0-5.0-179.0","go-nogo","false","0","","true","<div class = centerbox><div  id = stim1></div></div>","32","32","750","","test","go","179","adv","","",""
"","343","32","1456","0","test_block","poldrack-single-stim","194","314206","0.0-5.0-180.0","go-nogo","false","0","","true","<div class = centerbox><div  id = stim1></div></div>","32","32","750","","test","go","180","adv","","",""
"","321","32","1232","0","test_block","poldrack-single-stim","195","315493","0.0-5.0-181.0","go-nogo","false","0","","true","<div class = centerbox><div  id = stim1></div></div>","32","32","750","","test","go","181","adv","","",""
"","358","32","1198","0","test_block","poldrack-single-stim","196","316732","0.0-5.0-182.0","go-nogo","false","0","","true","<div class = centerbox><div  id = stim1></div></div>","32","32","750","","test","go","182","adv","","",""
"","346","32","1237","0","test_block","poldrack-single-stim","197","318018","0.0-5.0-183.0","go-nogo","false","0","","true","<div class = centerbox><div  id = stim1></div></div>","32","32","750","","test","go","183","adv","","",""
"","-1","-1","1000","0","test_block","poldrack-single-stim","198","319068","0.0-5.0-184.0","go-nogo","false","0","","false","<div class = centerbox><div  id = stim1></div></div>","32","32","750","","test","go","184","adv","","",""
"","-1","-1","1047","0","test_block","poldrack-single-stim","199","320166","0.0-5.0-185.0","go-nogo","false","0","","false","<div class = centerbox><div  id = stim1></div></div>","32","32","750","","test","go","185","adv","","",""
"","-1","-1","1043","0","test_block","poldrack-single-stim","200","321259","0.0-5.0-186.0","go-nogo","false","0","","false","<div class = centerbox><div  id = stim1></div></div>","32","32","750","","test","go","186","adv","","",""
"","-1","-1","1210","0","test_block","poldrack-single-stim","201","322507","0.0-5.0-187.0","go-nogo","false","0","","false","<div class = centerbox><div  id = stim1></div></div>","32","32","750","","test","go","187","adv","","",""
"","423","32","1197","0","test_block","poldrack-single-stim","202","323755","0.0-5.0-188.0","go-nogo","false","0","","true","<div class = centerbox><div  id = stim1></div></div>","32","32","750","","test","go","188","adv","","",""
"","-1","-1","1169","0","test_block","poldrack-single-stim","203","324969","0.0-5.0-189.0","go-nogo","false","0","","true","<div class = centerbox><div  id = stim2></div></div>","-1","32","750","","test","nogo","189","adv","","",""
"","987","32","1362","0","test_block","poldrack-single-stim","204","326381","0.0-5.0-190.0","go-nogo","false","0","","true","<div class = centerbox><div  id = stim1></div></div>","32","32","750","","test","go","190","adv","","",""
"","408","32","1111","0","test_block","poldrack-single-stim","205","327541","0.0-5.0-191.0","go-nogo","false","0","","false","<div class = centerbox><div  id = stim2></div></div>","-1","32","750","","test","nogo","191","adv","","",""
"","384","32","1367","0","test_block","poldrack-single-stim","206","328957","0.0-5.0-192.0","go-nogo","false","0","","false","<div class = centerbox><div  id = stim2></div></div>","-1","32","750","","test","nogo","192","adv","","",""
"","-1","-1","1105","0","test_block","poldrack-single-stim","207","330115","0.0-5.0-193.0","go-nogo","false","0","","true","<div class = centerbox><div  id = stim2></div></div>","-1","32","750","","test","nogo","193","adv","","",""
"","440","32","1221","0","test_block","poldrack-single-stim","208","331378","0.0-5.0-194.0","go-nogo","false","0","","true","<div class = centerbox><div  id = stim1></div></div>","32","32","750","","test","go","194","adv","","",""
"","410","32","1478","0","test_block","poldrack-single-stim","209","332897","0.0-5.0-195.0","go-nogo","false","0","","true","<div class = centerbox><div  id = stim1></div></div>","32","32","750","","test","go","195","adv","","",""
"","360","32","1033","0","test_block","poldrack-single-stim","210","333974","0.0-5.0-196.0","go-nogo","false","0","","true","<div class = centerbox><div  id = stim1></div></div>","32","32","750","","test","go","196","adv","","",""
"","-1","-1","1432","0","test_block","poldrack-single-stim","211","335445","0.0-5.0-197.0","go-nogo","false","0","","false","<div class = centerbox><div  id = stim1></div></div>","32","32","750","","test","go","197","adv","","",""
"","288","32","1061","0","test_block","poldrack-single-stim","212","336553","0.0-5.0-198.0","go-nogo","false","0","","true","<div class = centerbox><div  id = stim1></div></div>","32","32","750","","test","go","198","adv","","",""
"","-1","-1","1416","0","test_block","poldrack-single-stim","213","338018","0.0-5.0-199.0","go-nogo","false","0","","true","<div class = centerbox><div  id = stim2></div></div>","-1","32","750","","test","nogo","199","adv","","",""
"","491","32","1001","0","test_block","poldrack-single-stim","214","339059","0.0-5.0-200.0","go-nogo","false","0","","true","<div class = centerbox><div  id = stim1></div></div>","32","32","750","","test","go","200","adv","","",""
"","-1","-1","1131","0","test_block","poldrack-single-stim","215","340221","0.0-5.0-201.0","go-nogo","false","0","","false","<div class = centerbox><div  id = stim1></div></div>","32","32","750","","test","go","201","adv","","",""
"","-1","-1","1251","0","test_block","poldrack-single-stim","216","341511","0.0-5.0-202.0","go-nogo","false","0","","false","<div class = centerbox><div  id = stim1></div></div>","32","32","750","","test","go","202","adv","","",""
"","-1","-1","1206","0","test_block","poldrack-single-stim","217","342766","0.0-5.0-203.0","go-nogo","false","0","","false","<div class = centerbox><div  id = stim1></div></div>","32","32","750","","test","go","203","adv","","",""
"","-1","-1","1058","0","test_block","poldrack-single-stim","218","343882","0.0-5.0-204.0","go-nogo","false","0","","false","<div class = centerbox><div  id = stim1></div></div>","32","32","750","","test","go","204","adv","","",""
"","-1","-1","1313","0","test_block","poldrack-single-stim","219","345237","0.0-5.0-205.0","go-nogo","false","0","","false","<div class = centerbox><div  id = stim1></div></div>","32","32","750","","test","go","205","adv","","",""
"","-1","-1","1217","0","test_block","poldrack-single-stim","220","346509","0.0-5.0-206.0","go-nogo","false","0","","false","<div class = centerbox><div  id = stim1></div></div>","32","32","750","","test","go","206","adv","","",""
"","-1","-1","1122","0","test_block","poldrack-single-stim","221","347680","0.0-5.0-207.0","go-nogo","false","0","","false","<div class = centerbox><div  id = stim1></div></div>","32","32","750","","test","go","207","adv","","",""
"","-1","-1","1473","0","test_block","poldrack-single-stim","222","349200","0.0-5.0-208.0","go-nogo","false","0","","false","<div class = centerbox><div  id = stim1></div></div>","32","32","750","","test","go","208","adv","","",""
"","-1","-1","1335","0","test_block","poldrack-single-stim","223","350591","0.0-5.0-209.0","go-nogo","false","0","","false","<div class = centerbox><div  id = stim1></div></div>","32","32","750","","test","go","209","adv","","",""
"","-1","-1","1228","0","test_block","poldrack-single-stim","224","351870","0.0-5.0-210.0","go-nogo","false","0","","false","<div class = centerbox><div  id = stim1></div></div>","32","32","750","","test","go","210","adv","","",""
"","-1","-1","1484","0","test_block","poldrack-single-stim","225","353395","0.0-5.0-211.0","go-nogo","false","0","","false","<div class = centerbox><div  id = stim1></div></div>","32","32","750","","test","go","211","adv","","",""
"","-1","-1","1220","0","test_block","poldrack-single-stim","226","354662","0.0-5.0-212.0","go-nogo","false","0","","false","<div class = centerbox><div  id = stim1></div></div>","32","32","750","","test","go","212","adv","","",""
"","-1","-1","1376","0","test_block","poldrack-single-stim","227","356102","0.0-5.0-213.0","go-nogo","false","0","","false","<div class = centerbox><div  id = stim1></div></div>","32","32","750","","test","go","213","adv","","",""
"","-1","-1","1411","0","test_block","poldrack-single-stim","228","357563","0.0-5.0-214.0","go-nogo","false","0","","false","<div class = centerbox><div  id = stim1></div></div>","32","32","750","","test","go","214","adv","","",""
"","-1","-1","1433","0","test_block","poldrack-single-stim","229","359040","0.0-5.0-215.0","go-nogo","false","0","","false","<div class = centerbox><div  id = stim1></div></div>","32","32","750","","test","go","215","adv","","",""
"","-1","-1","1462","0","test_block","poldrack-single-stim","230","360556","0.0-5.0-216.0","go-nogo","false","0","","false","<div class = centerbox><div  id = stim1></div></div>","32","32","750","","test","go","216","adv","","",""
"","-1","-1","1162","0","test_block","poldrack-single-stim","231","361766","0.0-5.0-217.0","go-nogo","false","0","","false","<div class = centerbox><div  id = stim1></div></div>","32","32","750","","test","go","217","adv","","",""
"","-1","-1","1390","0","test_block","poldrack-single-stim","232","363189","0.0-5.0-218.0","go-nogo","false","0","","false","<div class = centerbox><div  id = stim1></div></div>","32","32","750","","test","go","218","adv","","",""
"","-1","-1","1125","0","test_block","poldrack-single-stim","233","364362","0.0-5.0-219.0","go-nogo","false","0","","false","<div class = centerbox><div  id = stim1></div></div>","32","32","750","","test","go","219","adv","","",""
"","-1","-1","1318","0","test_block","poldrack-single-stim","234","365721","0.0-5.0-220.0","go-nogo","false","0","","false","<div class = centerbox><div  id = stim1></div></div>","32","32","750","","test","go","220","adv","","",""
"","-1","-1","1123","0","test_block","poldrack-single-stim","235","366887","0.0-5.0-221.0","go-nogo","false","0","","false","<div class = centerbox><div  id = stim1></div></div>","32","32","750","","test","go","221","adv","","",""
"","-1","-1","1172","0","test_block","poldrack-single-stim","236","368101","0.0-5.0-222.0","go-nogo","false","0","","false","<div class = centerbox><div  id = stim1></div></div>","32","32","750","","test","go","222","adv","","",""
"","-1","-1","1223","0","test_block","poldrack-single-stim","237","369354","0.0-5.0-223.0","go-nogo","false","0","","false","<div class = centerbox><div  id = stim1></div></div>","32","32","750","","test","go","223","adv","","",""
"","-1","-1","1131","0","test_block","poldrack-single-stim","238","370529","0.0-5.0-224.0","go-nogo","false","0","","false","<div class = centerbox><div  id = stim1></div></div>","32","32","750","","test","go","224","adv","","",""
"","-1","-1","1238","0","test_block","poldrack-single-stim","239","371815","0.0-5.0-225.0","go-nogo","false","0","","false","<div class = centerbox><div  id = stim1></div></div>","32","32","750","","test","go","225","adv","","",""
"","-1","-1","1196","0","test_block","poldrack-single-stim","240","373065","0.0-5.0-226.0","go-nogo","false","0","","false","<div class = centerbox><div  id = stim1></div></div>","32","32","750","","test","go","226","adv","","",""
"","-1","-1","1304","0","test_block","poldrack-single-stim","241","374416","0.0-5.0-227.0","go-nogo","false","0","","false","<div class = centerbox><div  id = stim1></div></div>","32","32","750","","test","go","227","adv","","",""
"","-1","-1","1478","0","test_block","poldrack-single-stim","242","375938","0.0-5.0-228.0","go-nogo","false","0","","false","<div class = centerbox><div  id = stim1></div></div>","32","32","750","","test","go","228","adv","","",""
"","-1","-1","1275","0","test_block","poldrack-single-stim","243","377264","0.0-5.0-229.0","go-nogo","false","0","","false","<div class = centerbox><div  id = stim1></div></div>","32","32","750","","test","go","229","adv","","",""
"","-1","-1","1143","0","test_block","poldrack-single-stim","244","378447","0.0-5.0-230.0","go-nogo","false","0","","false","<div class = centerbox><div  id = stim1></div></div>","32","32","750","","test","go","230","adv","","",""
"","-1","-1","1191","0","test_block","poldrack-single-stim","245","379680","0.0-5.0-231.0","go-nogo","false","0","","false","<div class = centerbox><div  id = stim1></div></div>","32","32","750","","test","go","231","adv","","",""
"","-1","-1","1147","0","test_block","poldrack-single-stim","246","380877","0.0-5.0-232.0","go-nogo","false","0","","false","<div class = centerbox><div  id = stim1></div></div>","32","32","750","","test","go","232","adv","","",""
"","-1","-1","1146","0","test_block","poldrack-single-stim","247","382078","0.0-5.0-233.0","go-nogo","false","0","","false","<div class = centerbox><div  id = stim1></div></div>","32","32","750","","test","go","233","adv","","",""
"","-1","-1","1162","0","test_block","poldrack-single-stim","248","383290","0.0-5.0-234.0","go-nogo","false","0","","false","<div class = centerbox><div  id = stim1></div></div>","32","32","750","","test","go","234","adv","","",""
"","-1","-1","1412","0","test_block","poldrack-single-stim","249","384733","0.0-5.0-235.0","go-nogo","false","0","","false","<div class = centerbox><div  id = stim1></div></div>","32","32","750","","test","go","235","adv","","",""
"","-1","-1","1138","0","test_block","poldrack-single-stim","250","385919","0.0-5.0-236.0","go-nogo","false","0","","false","<div class = centerbox><div  id = stim1></div></div>","32","32","750","","test","go","236","adv","","",""
"","-1","-1","1063","0","test_block","poldrack-single-stim","251","387027","0.0-5.0-237.0","go-nogo","false","0","","false","<div class = centerbox><div  id = stim1></div></div>","32","32","750","","test","go","237","adv","","",""
"","-1","-1","1224","0","test_block","poldrack-single-stim","252","388281","0.0-5.0-238.0","go-nogo","false","0","","false","<div class = centerbox><div  id = stim1></div></div>","32","32","750","","test","go","238","adv","","",""
"","-1","-1","1153","0","test_block","poldrack-single-stim","253","389478","0.0-5.0-239.0","go-nogo","false","0","","false","<div class = centerbox><div  id = stim1></div></div>","32","32","750","","test","go","239","adv","","",""
"","-1","-1","1150","0","test_block","poldrack-single-stim","254","390674","0.0-5.0-240.0","go-nogo","false","0","","false","<div class = centerbox><div  id = stim1></div></div>","32","32","750","","test","go","240","adv","","",""
"","-1","-1","1116","0","test_block","poldrack-single-stim","255","391835","0.0-5.0-241.0","go-nogo","false","0","","false","<div class = centerbox><div  id = stim1></div></div>","32","32","750","","test","go","241","adv","","",""
"","-1","-1","1331","0","test_block","poldrack-single-stim","256","393198","0.0-5.0-242.0","go-nogo","false","0","","false","<div class = centerbox><div  id = stim1></div></div>","32","32","750","","test","go","242","adv","","",""
"","-1","-1","1254","0","test_block","poldrack-single-stim","257","394509","0.0-5.0-243.0","go-nogo","false","0","","false","<div class = centerbox><div  id = stim1></div></div>","32","32","750","","test","go","243","adv","","",""
"","-1","-1","1371","0","test_block","poldrack-single-stim","258","395927","0.0-5.0-244.0","go-nogo","false","0","","false","<div class = centerbox><div  id = stim1></div></div>","32","32","750","","test","go","244","adv","","",""
"","-1","-1","1484","0","test_block","poldrack-single-stim","259","397459","0.0-5.0-245.0","go-nogo","false","0","","false","<div class = centerbox><div  id = stim1></div></div>","32","32","750","","test","go","245","adv","","",""
"","-1","-1","1060","0","test_block","poldrack-single-stim","260","398577","0.0-5.0-246.0","go-nogo","false","0","","false","<div class = centerbox><div  id = stim1></div></div>","32","32","750","","test","go","246","adv","","",""
"","-1","-1","1132","0","test_block","poldrack-single-stim","261","399761","0.0-5.0-247.0","go-nogo","false","0","","false","<div class = centerbox><div  id = stim1></div></div>","32","32","750","","test","go","247","adv","","",""
"","-1","-1","1420","0","test_block","poldrack-single-stim","262","401230","0.0-5.0-248.0","go-nogo","false","0","","false","<div class = centerbox><div  id = stim1></div></div>","32","32","750","","test","go","248","adv","","",""
"","-1","-1","1316","0","test_block","poldrack-single-stim","263","402601","0.0-5.0-249.0","go-nogo","false","0","","false","<div class = centerbox><div  id = stim1></div></div>","32","32","750","","test","go","249","adv","","",""
"","-1","-1","1459","0","test_block","poldrack-single-stim","264","404104","0.0-5.0-250.0","go-nogo","false","0","","false","<div class = centerbox><div  id = stim1></div></div>","32","32","750","","test","go","250","adv","","",""
"","-1","-1","1028","0","test_block","poldrack-single-stim","265","405181","0.0-5.0-251.0","go-nogo","false","0","","false","<div class = centerbox><div  id = stim1></div></div>","32","32","750","","test","go","251","adv","","",""
"","-1","-1","1377","0","test_block","poldrack-single-stim","266","406593","0.0-5.0-252.0","go-nogo","false","0","","false","<div class = centerbox><div  id = stim1></div></div>","32","32","750","","test","go","252","adv","","",""
"","-1","-1","1411","0","test_block","poldrack-single-stim","267","408062","0.0-5.0-253.0","go-nogo","false","0","","false","<div class = centerbox><div  id = stim1></div></div>","32","32","750","","test","go","253","adv","","",""
"","-1","-1","1377","0","test_block","poldrack-single-stim","268","409480","0.0-5.0-254.0","go-nogo","false","0","","false","<div class = centerbox><div  id = stim1></div></div>","32","32","750","","test","go","254","adv","","",""
"","-1","-1","1405","0","test_block","poldrack-single-stim","269","410933","0.0-5.0-255.0","go-nogo","false","0","","false","<div class = centerbox><div  id = stim1></div></div>","32","32","750","","test","go","255","adv","","",""
"","-1","-1","1274","0","test_block","poldrack-single-stim","270","412266","0.0-5.0-256.0","go-nogo","false","0","","false","<div class = centerbox><div  id = stim1></div></div>","32","32","750","","test","go","256","adv","","",""
"","-1","-1","1022","0","test_block","poldrack-single-stim","271","413318","0.0-5.0-257.0","go-nogo","false","0","","false","<div class = centerbox><div  id = stim1></div></div>","32","32","750","","test","go","257","adv","","",""
"","-1","-1","1333","0","test_block","poldrack-single-stim","272","414700","0.0-5.0-258.0","go-nogo","false","0","","false","<div class = centerbox><div  id = stim1></div></div>","32","32","750","","test","go","258","adv","","",""
"","-1","-1","1266","0","test_block","poldrack-single-stim","273","416020","0.0-5.0-259.0","go-nogo","false","0","","false","<div class = centerbox><div  id = stim1></div></div>","32","32","750","","test","go","259","adv","","",""
"","-1","-1","1414","0","test_block","poldrack-single-stim","274","417487","0.0-5.0-260.0","go-nogo","false","0","","false","<div class = centerbox><div  id = stim1></div></div>","32","32","750","","test","go","260","adv","","",""
"","-1","-1","1148","0","test_block","poldrack-single-stim","275","418684","0.0-5.0-261.0","go-nogo","false","0","","false","<div class = centerbox><div  id = stim1></div></div>","32","32","750","","test","go","261","adv","","",""
"","-1","-1","1446","0","test_block","poldrack-single-stim","276","420183","0.0-5.0-262.0","go-nogo","false","0","","false","<div class = centerbox><div  id = stim1></div></div>","32","32","750","","test","go","262","adv","","",""
"","-1","-1","1366","0","test_block","poldrack-single-stim","277","421598","0.0-5.0-263.0","go-nogo","false","0","","false","<div class = centerbox><div  id = stim1></div></div>","32","32","750","","test","go","263","adv","","",""
"","-1","-1","1360","0","test_block","poldrack-single-stim","278","423004","0.0-5.0-264.0","go-nogo","false","0","","false","<div class = centerbox><div  id = stim1></div></div>","32","32","750","","test","go","264","adv","","",""
"","-1","-1","1228","0","test_block","poldrack-single-stim","279","424281","0.0-5.0-265.0","go-nogo","false","0","","false","<div class = centerbox><div  id = stim1></div></div>","32","32","750","","test","go","265","adv","","",""
"","-1","-1","1430","0","test_block","poldrack-single-stim","280","425753","0.0-5.0-266.0","go-nogo","false","0","","false","<div class = centerbox><div  id = stim1></div></div>","32","32","750","","test","go","266","adv","","",""
"","-1","-1","1277","0","test_block","poldrack-single-stim","281","427067","0.0-5.0-267.0","go-nogo","false","0","","false","<div class = centerbox><div  id = stim1></div></div>","32","32","750","","test","go","267","adv","","",""
"","-1","-1","1411","0","test_block","poldrack-single-stim","282","428523","0.0-5.0-268.0","go-nogo","false","0","","false","<div class = centerbox><div  id = stim1></div></div>","32","32","750","","test","go","268","adv","","",""
"","-1","-1","1481","0","test_block","poldrack-single-stim","283","430054","0.0-5.0-269.0","go-nogo","false","0","","false","<div class = centerbox><div  id = stim1></div></div>","32","32","750","","test","go","269","adv","","",""
"","-1","-1","1473","0","test_block","poldrack-single-stim","284","431581","0.0-5.0-270.0","go-nogo","false","0","","false","<div class = centerbox><div  id = stim1></div></div>","32","32","750","","test","go","270","adv","","",""
"","-1","-1","1164","0","test_block","poldrack-single-stim","285","432794","0.0-5.0-271.0","go-nogo","false","0","","false","<div class = centerbox><div  id = stim1></div></div>","32","32","750","","test","go","271","adv","","",""
"","-1","-1","1378","0","test_block","poldrack-single-stim","286","434215","0.0-5.0-272.0","go-nogo","false","0","","false","<div class = centerbox><div  id = stim1></div></div>","32","32","750","","test","go","272","adv","","",""
"","-1","-1","1065","0","test_block","poldrack-single-stim","287","435341","0.0-5.0-273.0","go-nogo","false","0","","false","<div class = centerbox><div  id = stim1></div></div>","32","32","750","","test","go","273","adv","","",""
"","-1","-1","1393","0","test_block","poldrack-single-stim","288","436783","0.0-5.0-274.0","go-nogo","false","0","","false","<div class = centerbox><div  id = stim1></div></div>","32","32","750","","test","go","274","adv","","",""
"","-1","-1","1229","0","test_block","poldrack-single-stim","289","438070","0.0-5.0-275.0","go-nogo","false","0","","false","<div class = centerbox><div  id = stim1></div></div>","32","32","750","","test","go","275","adv","","",""
"","-1","-1","1065","0","test_block","poldrack-single-stim","290","439181","0.0-5.0-276.0","go-nogo","false","0","","false","<div class = centerbox><div  id = stim1></div></div>","32","32","750","","test","go","276","adv","","",""
"","-1","-1","1467","0","test_block","poldrack-single-stim","291","440696","0.0-5.0-277.0","go-nogo","false","0","","false","<div class = centerbox><div  id = stim1></div></div>","32","32","750","","test","go","277","adv","","",""
"","-1","-1","1205","0","test_block","poldrack-single-stim","292","441943","0.0-5.0-278.0","go-nogo","false","0","","false","<div class = centerbox><div  id = stim1></div></div>","32","32","750","","test","go","278","adv","","",""
"","-1","-1","1343","0","test_block","poldrack-single-stim","293","443341","0.0-5.0-279.0","go-nogo","false","0","","false","<div class = centerbox><div  id = stim1></div></div>","32","32","750","","test","go","279","adv","","",""
"","-1","-1","1285","0","test_block","poldrack-single-stim","294","444668","0.0-5.0-280.0","go-nogo","false","0","","false","<div class = centerbox><div  id = stim1></div></div>","32","32","750","","test","go","280","adv","","",""
"","-1","-1","1456","0","test_block","poldrack-single-stim","295","446171","0.0-5.0-281.0","go-nogo","false","0","","false","<div class = centerbox><div  id = stim1></div></div>","32","32","750","","test","go","281","adv","","",""
"","-1","-1","1305","0","test_block","poldrack-single-stim","296","447507","0.0-5.0-282.0","go-nogo","false","0","","false","<div class = centerbox><div  id = stim1></div></div>","32","32","750","","test","go","282","adv","","",""
"","-1","-1","1228","0","test_block","poldrack-single-stim","297","448779","0.0-5.0-283.0","go-nogo","false","0","","false","<div class = centerbox><div  id = stim1></div></div>","32","32","750","","test","go","283","adv","","",""
"","-1","-1","1076","0","test_block","poldrack-single-stim","298","449886","0.0-5.0-284.0","go-nogo","false","0","","false","<div class = centerbox><div  id = stim1></div></div>","32","32","750","","test","go","284","adv","","",""
"","-1","-1","1415","0","test_block","poldrack-single-stim","299","451357","0.0-5.0-285.0","go-nogo","false","0","","false","<div class = centerbox><div  id = stim1></div></div>","32","32","750","","test","go","285","adv","","",""
"","-1","-1","1389","0","test_block","poldrack-single-stim","300","452794","0.0-5.0-286.0","go-nogo","false","0","","false","<div class = centerbox><div  id = stim1></div></div>","32","32","750","","test","go","286","adv","","",""
"","-1","-1","1312","0","test_block","poldrack-single-stim","301","454170","0.0-5.0-287.0","go-nogo","false","0","","false","<div class = centerbox><div  id = stim1></div></div>","32","32","750","","test","go","287","adv","","",""
"","-1","-1","1013","0","test_block","poldrack-single-stim","302","455213","0.0-5.0-288.0","go-nogo","false","0","","false","<div class = centerbox><div  id = stim1></div></div>","32","32","750","","test","go","288","adv","","",""
"","-1","-1","1005","0","test_block","poldrack-single-stim","303","456271","0.0-5.0-289.0","go-nogo","false","0","","false","<div class = centerbox><div  id = stim1></div></div>","32","32","750","","test","go","289","adv","","",""
"","-1","-1","1230","0","test_block","poldrack-single-stim","304","457551","0.0-5.0-290.0","go-nogo","false","0","","false","<div class = centerbox><div  id = stim1></div></div>","32","32","750","","test","go","290","adv","","",""
"","-1","-1","1145","0","test_block","poldrack-single-stim","305","458738","0.0-5.0-291.0","go-nogo","false","0","","false","<div class = centerbox><div  id = stim1></div></div>","32","32","750","","test","go","291","adv","","",""
"","-1","-1","1438","0","test_block","poldrack-single-stim","306","460218","0.0-5.0-292.0","go-nogo","false","0","","false","<div class = centerbox><div  id = stim1></div></div>","32","32","750","","test","go","292","adv","","",""
"","-1","-1","1042","0","test_block","poldrack-single-stim","307","461313","0.0-5.0-293.0","go-nogo","false","0","","false","<div class = centerbox><div  id = stim1></div></div>","32","32","750","","test","go","293","adv","","",""
"","-1","-1","1271","0","test_block","poldrack-single-stim","308","462614","0.0-5.0-294.0","go-nogo","false","0","","false","<div class = centerbox><div  id = stim1></div></div>","32","32","750","","test","go","294","adv","","",""
"","-1","-1","1158","0","test_block","poldrack-single-stim","309","463814","0.0-5.0-295.0","go-nogo","false","0","","false","<div class = centerbox><div  id = stim1></div></div>","32","32","750","","test","go","295","adv","","",""
"","-1","-1","1102","0","test_block","poldrack-single-stim","310","464956","0.0-5.0-296.0","go-nogo","false","0","","false","<div class = centerbox><div  id = stim1></div></div>","32","32","750","","test","go","296","adv","","",""
"","-1","-1","1043","0","test_block","poldrack-single-stim","311","466051","0.0-5.0-297.0","go-nogo","false","0","","false","<div class = centerbox><div  id = stim1></div></div>","32","32","750","","test","go","297","adv","","",""
"","-1","-1","1407","0","test_block","poldrack-single-stim","312","467487","0.0-5.0-298.0","go-nogo","false","0","","false","<div class = centerbox><div  id = stim1></div></div>","32","32","750","","test","go","298","adv","","",""
"","-1","-1","1224","0","test_block","poldrack-single-stim","313","468752","0.0-5.0-299.0","go-nogo","false","0","","false","<div class = centerbox><div  id = stim1></div></div>","32","32","750","","test","go","299","adv","","",""
"","-1","-1","1230","0","test_block","poldrack-single-stim","314","470032","0.0-5.0-300.0","go-nogo","false","0","","false","<div class = centerbox><div  id = stim1></div></div>","32","32","750","","test","go","300","adv","","",""
"","-1","-1","1338","0","test_block","poldrack-single-stim","315","471413","0.0-5.0-301.0","go-nogo","false","0","","false","<div class = centerbox><div  id = stim1></div></div>","32","32","750","","test","go","301","adv","","",""
"","-1","-1","1334","0","test_block","poldrack-single-stim","316","472788","0.0-5.0-302.0","go-nogo","false","0","","false","<div class = centerbox><div  id = stim1></div></div>","32","32","750","","test","go","302","adv","","",""
"","-1","-1","1104","0","test_block","poldrack-single-stim","317","473922","0.0-5.0-303.0","go-nogo","false","0","","false","<div class = centerbox><div  id = stim1></div></div>","32","32","750","","test","go","303","adv","","",""
"","-1","-1","1329","0","test_block","poldrack-single-stim","318","475298","0.0-5.0-304.0","go-nogo","false","0","","false","<div class = centerbox><div  id = stim1></div></div>","32","32","750","","test","go","304","adv","","",""
"","-1","-1","1428","0","test_block","poldrack-single-stim","319","476775","0.0-5.0-305.0","go-nogo","false","0","","false","<div class = centerbox><div  id = stim1></div></div>","32","32","750","","test","go","305","adv","","",""
"","-1","-1","1253","0","test_block","poldrack-single-stim","320","478079","0.0-5.0-306.0","go-nogo","false","0","","false","<div class = centerbox><div  id = stim1></div></div>","32","32","750","","test","go","306","adv","","",""
"","-1","-1","1484","0","test_block","poldrack-single-stim","321","479641","0.0-5.0-307.0","go-nogo","false","0","","false","<div class = centerbox><div  id = stim1></div></div>","32","32","750","","test","go","307","adv","","",""
"","-1","-1","1442","0","test_block","poldrack-single-stim","322","481137","0.0-5.0-308.0","go-nogo","false","0","","false","<div class = centerbox><div  id = stim1></div></div>","32","32","750","","test","go","308","adv","","",""
"","-1","-1","1480","0","test_block","poldrack-single-stim","323","482657","0.0-5.0-309.0","go-nogo","false","0","","false","<div class = centerbox><div  id = stim1></div></div>","32","32","750","","test","go","309","adv","","",""
"","-1","-1","1247","0","test_block","poldrack-single-stim","324","483965","0.0-5.0-310.0","go-nogo","false","0","","false","<div class = centerbox><div  id = stim1></div></div>","32","32","750","","test","go","310","adv","","",""
"","-1","-1","1396","0","test_block","poldrack-single-stim","325","485391","0.0-5.0-311.0","go-nogo","false","0","","false","<div class = centerbox><div  id = stim1></div></div>","32","32","750","","test","go","311","adv","","",""
"","-1","-1","1225","0","test_block","poldrack-single-stim","326","486660","0.0-5.0-312.0","go-nogo","false","0","","false","<div class = centerbox><div  id = stim1></div></div>","32","32","750","","test","go","312","adv","","",""
"","-1","-1","1131","0","test_block","poldrack-single-stim","327","487840","0.0-5.0-313.0","go-nogo","false","0","","false","<div class = centerbox><div  id = stim1></div></div>","32","32","750","","test","go","313","adv","","",""
"","-1","-1","1186","0","test_block","poldrack-single-stim","328","489059","0.0-5.0-314.0","go-nogo","false","0","","false","<div class = centerbox><div  id = stim1></div></div>","32","32","750","","test","go","314","adv","","",""
"","-1","-1","1475","0","test_block","poldrack-single-stim","329","490584","0.0-5.0-315.0","go-nogo","false","0","","false","<div class = centerbox><div  id = stim1></div></div>","32","32","750","","test","go","315","adv","","",""
"","-1","-1","1164","0","test_block","poldrack-single-stim","330","491795","0.0-5.0-316.0","go-nogo","false","0","","false","<div class = centerbox><div  id = stim1></div></div>","32","32","750","","test","go","316","adv","","",""
"","-1","-1","1250","0","test_block","poldrack-single-stim","331","493081","0.0-5.0-317.0","go-nogo","false","0","","false","<div class = centerbox><div  id = stim1></div></div>","32","32","750","","test","go","317","adv","","",""
"","-1","-1","1492","0","test_block","poldrack-single-stim","332","494623","0.0-5.0-318.0","go-nogo","false","0","","false","<div class = centerbox><div  id = stim1></div></div>","32","32","750","","test","go","318","adv","","",""
"","-1","-1","1176","0","test_block","poldrack-single-stim","333","495863","0.0-5.0-319.0","go-nogo","false","0","","false","<div class = centerbox><div  id = stim1></div></div>","32","32","750","","test","go","319","adv","","",""
"","-1","-1","1467","0","test_block","poldrack-single-stim","334","497373","0.0-5.0-320.0","go-nogo","false","0","","false","<div class = centerbox><div  id = stim1></div></div>","32","32","750","","test","go","320","adv","","",""
"","-1","-1","1327","0","test_block","poldrack-single-stim","335","498754","0.0-5.0-321.0","go-nogo","false","0","","false","<div class = centerbox><div  id = stim1></div></div>","32","32","750","","test","go","321","adv","","",""
"","-1","-1","1199","0","test_block","poldrack-single-stim","336","499996","0.0-5.0-322.0","go-nogo","false","0","","false","<div class = centerbox><div  id = stim1></div></div>","32","32","750","","test","go","322","adv","","",""
"","-1","-1","1013","0","test_block","poldrack-single-stim","337","501045","0.0-5.0-323.0","go-nogo","false","0","","false","<div class = centerbox><div  id = stim1></div></div>","32","32","750","","test","go","323","adv","","",""
"","-1","-1","1149","0","test_block","poldrack-single-stim","338","502239","0.0-5.0-324.0","go-nogo","false","0","","false","<div class = centerbox><div  id = stim1></div></div>","32","32","750","","test","go","324","adv","","",""
"","-1","-1","1218","0","test_block","poldrack-single-stim","339","503516","0.0-5.0-325.0","go-nogo","false","0","","false","<div class = centerbox><div  id = stim1></div></div>","32","32","750","","test","go","325","adv","","",""
"","-1","-1","1200","0","test_block","poldrack-single-stim","340","504761","0.0-5.0-326.0","go-nogo","false","0","","false","<div class = centerbox><div  id = stim1></div></div>","32","32","750","","test","go","326","adv","","",""
"","-1","-1","1047","0","test_block","poldrack-single-stim","341","505839","0.0-5.0-327.0","go-nogo","false","0","","false","<div class = centerbox><div  id = stim1></div></div>","32","32","750","","test","go","327","adv","","",""
"","-1","-1","1027","0","test_block","poldrack-single-stim","342","506913","0.0-5.0-328.0","go-nogo","false","0","","false","<div class = centerbox><div  id = stim1></div></div>","32","32","750","","test","go","328","adv","","",""
"","-1","-1","1075","0","test_block","poldrack-single-stim","343","508036","0.0-5.0-329.0","go-nogo","false","0","","false","<div class = centerbox><div  id = stim1></div></div>","32","32","750","","test","go","329","adv","","",""
"","-1","-1","1133","0","test_block","poldrack-single-stim","344","509221","0.0-5.0-330.0","go-nogo","false","0","","false","<div class = centerbox><div  id = stim1></div></div>","32","32","750","","test","go","330","adv","","",""
"","-1","-1","1311","0","test_block","poldrack-single-stim","345","510571","0.0-5.0-331.0","go-nogo","false","0","","false","<div class = centerbox><div  id = stim1></div></div>","32","32","750","","test","go","331","adv","","",""
"","-1","-1","1213","0","test_block","poldrack-single-stim","346","511822","0.0-5.0-332.0","go-nogo","false","0","","false","<div class = centerbox><div  id = stim1></div></div>","32","32","750","","test","go","332","adv","","",""
"","-1","-1","1062","0","test_block","poldrack-single-stim","347","512925","0.0-5.0-333.0","go-nogo","false","0","","false","<div class = centerbox><div  id = stim1></div></div>","32","32","750","","test","go","333","adv","","",""
"","-1","-1","1348","0","test_block","poldrack-single-stim","348","514318","0.0-5.0-334.0","go-nogo","false","0","","false","<div class = centerbox><div  id = stim1></div></div>","32","32","750","","test","go","334","adv","","",""
"","-1","-1","1310","0","test_block","poldrack-single-stim","349","515671","0.0-5.0-335.0","go-nogo","false","0","","false","<div class = centerbox><div  id = stim1></div></div>","32","32","750","","test","go","335","adv","","",""
"","-1","-1","1246","0","test_block","poldrack-single-stim","350","516974","0.0-5.0-336.0","go-nogo","false","0","","false","<div class = centerbox><div  id = stim1></div></div>","32","32","750","","test","go","336","adv","","",""
"","-1","-1","1122","0","test_block","poldrack-single-stim","351","518145","0.0-5.0-337.0","go-nogo","false","0","","false","<div class = centerbox><div  id = stim1></div></div>","32","32","750","","test","go","337","adv","","",""
"","-1","-1","1125","0","test_block","poldrack-single-stim","352","519309","0.0-5.0-338.0","go-nogo","false","0","","false","<div class = centerbox><div  id = stim1></div></div>","32","32","750","","test","go","338","adv","","",""
"","-1","-1","1076","0","test_block","poldrack-single-stim","353","520437","0.0-5.0-339.0","go-nogo","false","0","","false","<div class = centerbox><div  id = stim1></div></div>","32","32","750","","test","go","339","adv","","",""
"","-1","-1","1071","0","test_block","poldrack-single-stim","354","521560","0.0-5.0-340.0","go-nogo","false","0","","false","<div class = centerbox><div  id = stim1></div></div>","32","32","750","","test","go","340","adv","","",""
"","-1","-1","1097","0","test_block","poldrack-single-stim","355","522703","0.0-5.0-341.0","go-nogo","false","0","","false","<div class = centerbox><div  id = stim1></div></div>","32","32","750","","test","go","341","adv","","",""
"","-1","-1","1109","0","test_block","poldrack-single-stim","356","523875","0.0-5.0-342.0","go-nogo","false","0","","false","<div class = centerbox><div  id = stim1></div></div>","32","32","750","","test","go","342","adv","","",""
"","-1","-1","1089","0","test_block","poldrack-single-stim","357","525021","0.0-5.0-343.0","go-nogo","false","0","","true","<div class = centerbox><div  id = stim2></div></div>","-1","32","750","","test","nogo","343","adv","","",""
"","-1","-1","1319","0","test_block","poldrack-single-stim","358","526396","0.0-5.0-344.0","go-nogo","false","0","","true","<div class = centerbox><div  id = stim2></div></div>","-1","32","750","","test","nogo","344","adv","","",""
"","-1","-1","1018","0","test_block","poldrack-single-stim","359","527460","0.0-5.0-345.0","go-nogo","false","0","","true","<div class = centerbox><div  id = stim2></div></div>","-1","32","750","","test","nogo","345","adv","","",""
"","-1","-1","1253","0","test_block","poldrack-single-stim","360","528781","0.0-5.0-346.0","go-nogo","false","0","","true","<div class = centerbox><div  id = stim2></div></div>","-1","32","750","","test","nogo","346","adv","","",""
"","-1","-1","1465","0","test_block","poldrack-single-stim","361","530279","0.0-5.0-347.0","go-nogo","false","0","","true","<div class = centerbox><div  id = stim2></div></div>","-1","32","750","","test","nogo","347","adv","","",""
"","-1","-1","1039","0","test_block","poldrack-single-stim","362","531356","0.0-5.0-348.0","go-nogo","false","0","","true","<div class = centerbox><div  id = stim2></div></div>","-1","32","750","","test","nogo","348","adv","","",""
"","-1","-1","1338","0","test_block","poldrack-single-stim","363","532736","0.0-5.0-349.0","go-nogo","false","0","","true","<div class = centerbox><div  id = stim2></div></div>","-1","32","750","","test","nogo","349","adv","","",""
"","289800","","","","post task questions","survey-text","364","822588","0.0-7.0","go-nogo","false","0","","","","","","","","","","","","{""Q0"":""NOTHING"",""Q1"":""NICE STUDY""}","",""
"<div class = centerbox><p class = center-block-text>Thanks for completing this task!</p><p class = center-block-text>Insert the following code to collect your payment at Amazon Mechanical Turk:</p><p class = center-block-text>639866317</p><p class = center-block-text>Press <strong>enter</strong> to continue.</p></div>","4031","13","4031","0","end","poldrack-text","365","827621","0.0-8.0","go-nogo","false","0","","","","","","","","","","","","","639866317","true"
