"text","rt","key_press","block_duration","timing_post_trial","trial_id","trial_type","trial_index","time_elapsed","internal_node_id","exp_id","full_screen","focus_shifts","view_history","correct","stimulus","correct_response","possible_responses","stim_duration","feedback_duration","exp_stage","condition","trial_num","mode","responses","payment_id","credit_var"
"<div class = centerbox><p class = center-block-text>Welcome to the experiment. This task will take around 10 minutes. Press <strong>enter</strong> to begin.</p></div>","2873","13","2873","0","instruction","poldrack-text","0","2874","0.0-0.0-0.0","go-nogo","true","0","","","","","","","","","","","","","",""
"","19383","","","","instruction","poldrack-instructions","1","22258","0.0-0.0-1.0","go-nogo","true","0","[{""page_index"":0,""viewing_time"":19383}]","","","","","","","","","","","","",""
"","669","32","1166","250","practice","poldrack-categorize","2","25432","0.0-1.0-0.0","go-nogo","true","0","","true","<div class = centerbox><div  id = stim1></div></div>","32","32","750","1000","practice","go","0","adv","","",""
"","-1","-1","1074","250","practice","poldrack-categorize","3","27764","0.0-1.0-1.0","go-nogo","true","0","","true","<div class = centerbox><div id = stim2></div></div>","-1","32","750","1000","practice","nogo","1","adv","","",""
"","537","32","1145","250","practice","poldrack-categorize","4","30165","0.0-1.0-2.0","go-nogo","true","0","","true","<div class = centerbox><div  id = stim1></div></div>","32","32","750","1000","practice","go","2","adv","","",""
"","-1","-1","1188","250","practice","poldrack-categorize","5","32609","0.0-1.0-3.0","go-nogo","true","0","","true","<div class = centerbox><div id = stim2></div></div>","-1","32","750","1000","practice","nogo","3","adv","","",""
"","-1","-1","1487","250","practice","poldrack-categorize","6","35350","0.0-1.0-4.0","go-nogo","true","0","","true","<div class = centerbox><div id = stim2></div></div>","-1","32","750","1000","practice","nogo","4","adv","","",""
"","-1","-1","1153","250","practice","poldrack-categorize","7","37760","0.0-1.0-5.0","go-nogo","true","0","","true","<div class = centerbox><div id = stim2></div></div>","-1","32","750","1000","practice","nogo","5","adv","","",""
"","478","32","1068","250","practice","poldrack-categorize","8","40084","0.0-1.0-6.0","go-nogo","true","0","","true","<div class = centerbox><div  id = stim1></div></div>","32","32","750","1000","practice","go","6","adv","","",""
"","554","32","1011","250","practice","poldrack-categorize","9","42350","0.0-1.0-7.0","go-nogo","true","0","","true","<div class = centerbox><div  id = stim1></div></div>","32","32","750","1000","practice","go","7","adv","","",""
"","-1","-1","1247","250","practice","poldrack-categorize","10","44853","0.0-1.0-8.0","go-nogo","true","0","","true","<div class = centerbox><div id = stim2></div></div>","-1","32","750","1000","practice","nogo","8","adv","","",""
"","489","32","1387","250","practice","poldrack-categorize","11","47495","0.0-1.0-9.0","go-nogo","true","0","","true","<div class = centerbox><div  id = stim1></div></div>","32","32","750","1000","practice","go","9","adv","","",""
"","","","","","reset_trial","call-function","12","47747","0.0-3.0","go-nogo","true","0","","","","","","","","","","","","","",""
"<div class = centerbox><p class = block-text>Practice is over, we will now begin the experiment. You will no longer get feedback about your responses.</p><p class = block-text>Remember, if you see the <font color=""orange"">orange</font> square you should <strong> respond by pressing the spacebar as quickly as possible</strong>. If you see the <font color=""blue"">blue</font> square you should <strong> not respond</strong>. Press <strong>enter</strong> to begin.</p></div>","12406","13","12406","1000","test_intro","poldrack-text","13","60154","0.0-4.0","go-nogo","true","0","","","","","","","","","","","","","",""
"","437","32","1452","0","test_block","poldrack-single-stim","14","62611","0.0-5.0-0.0","go-nogo","true","0","","true","<div class = centerbox><div  id = stim1></div></div>","32","32","750","","test","go","0","adv","","",""
"","395","32","1057","0","test_block","poldrack-single-stim","15","63729","0.0-5.0-1.0","go-nogo","true","0","","true","<div class = centerbox><div  id = stim1></div></div>","32","32","750","","test","go","1","adv","","",""
"","446","32","1211","0","test_block","poldrack-single-stim","16","64969","0.0-5.0-2.0","go-nogo","true","0","","true","<div class = centerbox><div  id = stim1></div></div>","32","32","750","","test","go","2","adv","","",""
"","437","32","1028","0","test_block","poldrack-single-stim","17","66027","0.0-5.0-3.0","go-nogo","true","0","","true","<div class = centerbox><div  id = stim1></div></div>","32","32","750","","test","go","3","adv","","",""
"","454","32","1018","0","test_block","poldrack-single-stim","18","67071","0.0-5.0-4.0","go-nogo","true","0","","true","<div class = centerbox><div  id = stim1></div></div>","32","32","750","","test","go","4","adv","","",""
"","496","32","1194","0","test_block","poldrack-single-stim","19","68293","0.0-5.0-5.0","go-nogo","true","0","","true","<div class = centerbox><div  id = stim1></div></div>","32","32","750","","test","go","5","adv","","",""
"","363","32","1143","0","test_block","poldrack-single-stim","20","69464","0.0-5.0-6.0","go-nogo","true","0","","true","<div class = centerbox><div  id = stim1></div></div>","32","32","750","","test","go","6","adv","","",""
"","371","32","1190","0","test_block","poldrack-single-stim","21","70686","0.0-5.0-7.0","go-nogo","true","0","","true","<div class = centerbox><div  id = stim1></div></div>","32","32","750","","test","go","7","adv","","",""
"","356","32","1111","0","test_block","poldrack-single-stim","22","71824","0.0-5.0-8.0","go-nogo","true","0","","true","<div class = centerbox><div  id = stim1></div></div>","32","32","750","","test","go","8","adv","","",""
"","434","32","1484","0","test_block","poldrack-single-stim","23","73333","0.0-5.0-9.0","go-nogo","true","0","","true","<div class = centerbox><div  id = stim1></div></div>","32","32","750","","test","go","9","adv","","",""
"","366","32","1443","0","test_block","poldrack-single-stim","24","74800","0.0-5.0-10.0","go-nogo","true","0","","true","<div class = centerbox><div  id = stim1></div></div>","32","32","750","","test","go","10","adv","","",""
"","321","32","1358","0","test_block","poldrack-single-stim","25","76184","0.0-5.0-11.0","go-nogo","true","0","","true","<div class = centerbox><div  id = stim1></div></div>","32","32","750","","test","go","11","adv","","",""
"","316","32","1448","0","test_block","poldrack-single-stim","26","77656","0.0-5.0-12.0","go-nogo","true","0","","true","<div class = centerbox><div  id = stim1></div></div>","32","32","750","","test","go","12","adv","","",""
"","316","32","1406","0","test_block","poldrack-single-stim","27","79087","0.0-5.0-13.0","go-nogo","true","0","","true","<div class = centerbox><div  id = stim1></div></div>","32","32","750","","test","go","13","adv","","",""
"","308","32","1402","0","test_block","poldrack-single-stim","28","80513","0.0-5.0-14.0","go-nogo","true","0","","true","<div class = centerbox><div  id = stim1></div></div>","32","32","750","","test","go","14","adv","","",""
"","403","32","1207","0","test_block","poldrack-single-stim","29","81744","0.0-5.0-15.0","go-nogo","true","0","","true","<div class = centerbox><div  id = stim1></div></div>","32","32","750","","test","go","15","adv","","",""
"","437","32","1008","0","test_block","poldrack-single-stim","30","82775","0.0-5.0-16.0","go-nogo","true","0","","true","<div class = centerbox><div  id = stim1></div></div>","32","32","750","","test","go","16","adv","","",""
"","638","32","1445","0","test_block","poldrack-single-stim","31","84243","0.0-5.0-17.0","go-nogo","true","0","","true","<div class = centerbox><div  id = stim1></div></div>","32","32","750","","test","go","17","adv","","",""
"","485","32","1156","0","test_block","poldrack-single-stim","32","85419","0.0-5.0-18.0","go-nogo","true","0","","true","<div class = centerbox><div  id = stim1></div></div>","32","32","750","","test","go","18","adv","","",""
"","603","32","1252","0","test_block","poldrack-single-stim","33","86708","0.0-5.0-19.0","go-nogo","true","0","","true","<div class = centerbox><div  id = stim1></div></div>","32","32","750","","test","go","19","adv","","",""
"","538","32","1052","0","test_block","poldrack-single-stim","34","87789","0.0-5.0-20.0","go-nogo","true","0","","true","<div class = centerbox><div  id = stim1></div></div>","32","32","750","","test","go","20","adv","","",""
"","503","32","1170","0","test_block","poldrack-single-stim","35","88983","0.0-5.0-21.0","go-nogo","true","0","","true","<div class = centerbox><div  id = stim1></div></div>","32","32","750","","test","go","21","adv","","",""
"","351","32","1018","0","test_block","poldrack-single-stim","36","90022","0.0-5.0-22.0","go-nogo","true","0","","true","<div class = centerbox><div  id = stim1></div></div>","32","32","750","","test","go","22","adv","","",""
"","332","32","1187","0","test_block","poldrack-single-stim","37","91236","0.0-5.0-23.0","go-nogo","true","0","","true","<div class = centerbox><div  id = stim1></div></div>","32","32","750","","test","go","23","adv","","",""
"","370","32","1324","0","test_block","poldrack-single-stim","38","92582","0.0-5.0-24.0","go-nogo","true","0","","true","<div class = centerbox><div  id = stim1></div></div>","32","32","750","","test","go","24","adv","","",""
"","351","32","1229","0","test_block","poldrack-single-stim","39","93834","0.0-5.0-25.0","go-nogo","true","0","","true","<div class = centerbox><div  id = stim1></div></div>","32","32","750","","test","go","25","adv","","",""
"","347","32","1292","0","test_block","poldrack-single-stim","40","95150","0.0-5.0-26.0","go-nogo","true","0","","true","<div class = centerbox><div  id = stim1></div></div>","32","32","750","","test","go","26","adv","","",""
"","315","32","1048","0","test_block","poldrack-single-stim","41","96217","0.0-5.0-27.0","go-nogo","true","0","","true","<div class = centerbox><div  id = stim1></div></div>","32","32","750","","test","go","27","adv","","",""
"","331","32","1148","0","test_block","poldrack-single-stim","42","97388","0.0-5.0-28.0","go-nogo","true","0","","true","<div class = centerbox><div  id = stim1></div></div>","32","32","750","","test","go","28","adv","","",""
"","313","32","1239","0","test_block","poldrack-single-stim","43","98649","0.0-5.0-29.0","go-nogo","true","0","","true","<div class = centerbox><div  id = stim1></div></div>","32","32","750","","test","go","29","adv","","",""
"","477","32","1086","0","test_block","poldrack-single-stim","44","99757","0.0-5.0-30.0","go-nogo","true","0","","true","<div class = centerbox><div  id = stim1></div></div>","32","32","750","","test","go","30","adv","","",""
"","392","32","1077","0","test_block","poldrack-single-stim","45","100856","0.0-5.0-31.0","go-nogo","true","0","","true","<div class = centerbox><div  id = stim1></div></div>","32","32","750","","test","go","31","adv","","",""
"","317","32","1445","0","test_block","poldrack-single-stim","46","102324","0.0-5.0-32.0","go-nogo","true","0","","true","<div class = centerbox><div  id = stim1></div></div>","32","32","750","","test","go","32","adv","","",""
"","339","32","1112","0","test_block","poldrack-single-stim","47","103472","0.0-5.0-33.0","go-nogo","true","0","","true","<div class = centerbox><div  id = stim1></div></div>","32","32","750","","test","go","33","adv","","",""
"","375","32","1338","0","test_block","poldrack-single-stim","48","104833","0.0-5.0-34.0","go-nogo","true","0","","true","<div class = centerbox><div  id = stim1></div></div>","32","32","750","","test","go","34","adv","","",""
"","403","32","1401","0","test_block","poldrack-single-stim","49","106258","0.0-5.0-35.0","go-nogo","true","0","","true","<div class = centerbox><div  id = stim1></div></div>","32","32","750","","test","go","35","adv","","",""
"","327","32","1355","0","test_block","poldrack-single-stim","50","107633","0.0-5.0-36.0","go-nogo","true","0","","true","<div class = centerbox><div  id = stim1></div></div>","32","32","750","","test","go","36","adv","","",""
"","309","32","1220","0","test_block","poldrack-single-stim","51","108875","0.0-5.0-37.0","go-nogo","true","0","","true","<div class = centerbox><div  id = stim1></div></div>","32","32","750","","test","go","37","adv","","",""
"","348","32","1118","0","test_block","poldrack-single-stim","52","110016","0.0-5.0-38.0","go-nogo","true","0","","true","<div class = centerbox><div  id = stim1></div></div>","32","32","750","","test","go","38","adv","","",""
"","343","32","1212","0","test_block","poldrack-single-stim","53","111249","0.0-5.0-39.0","go-nogo","true","0","","true","<div class = centerbox><div  id = stim1></div></div>","32","32","750","","test","go","39","adv","","",""
"","328","32","1240","0","test_block","poldrack-single-stim","54","112507","0.0-5.0-40.0","go-nogo","true","0","","true","<div class = centerbox><div  id = stim1></div></div>","32","32","750","","test","go","40","adv","","",""
"","299","32","1258","0","test_block","poldrack-single-stim","55","113787","0.0-5.0-41.0","go-nogo","true","0","","true","<div class = centerbox><div  id = stim1></div></div>","32","32","750","","test","go","41","adv","","",""
"","298","32","1253","0","test_block","poldrack-single-stim","56","115063","0.0-5.0-42.0","go-nogo","true","0","","true","<div class = centerbox><div  id = stim1></div></div>","32","32","750","","test","go","42","adv","","",""
"","303","32","1461","0","test_block","poldrack-single-stim","57","116546","0.0-5.0-43.0","go-nogo","true","0","","true","<div class = centerbox><div  id = stim1></div></div>","32","32","750","","test","go","43","adv","","",""
"","274","32","1486","0","test_block","poldrack-single-stim","58","118056","0.0-5.0-44.0","go-nogo","true","0","","true","<div class = centerbox><div  id = stim1></div></div>","32","32","750","","test","go","44","adv","","",""
"","318","32","1347","0","test_block","poldrack-single-stim","59","119425","0.0-5.0-45.0","go-nogo","true","0","","true","<div class = centerbox><div  id = stim1></div></div>","32","32","750","","test","go","45","adv","","",""
"","359","32","1282","0","test_block","poldrack-single-stim","60","120728","0.0-5.0-46.0","go-nogo","true","0","","true","<div class = centerbox><div  id = stim1></div></div>","32","32","750","","test","go","46","adv","","",""
"","382","32","1267","0","test_block","poldrack-single-stim","61","122018","0.0-5.0-47.0","go-nogo","true","0","","true","<div class = centerbox><div  id = stim1></div></div>","32","32","750","","test","go","47","adv","","",""
"","341","32","1424","0","test_block","poldrack-single-stim","62","123463","0.0-5.0-48.0","go-nogo","true","0","","true","<div class = centerbox><div  id = stim1></div></div>","32","32","750","","test","go","48","adv","","",""
"","304","32","1111","0","test_block","poldrack-single-stim","63","124595","0.0-5.0-49.0","go-nogo","true","0","","true","<div class = centerbox><div  id = stim1></div></div>","32","32","750","","test","go","49","adv","","",""
"","771","32","1315","0","test_block","poldrack-single-stim","64","125933","0.0-5.0-50.0","go-nogo","true","0","","true","<div class = centerbox><div  id = stim1></div></div>","32","32","750","","test","go","50","adv","","",""
"","361","32","1114","0","test_block","poldrack-single-stim","65","127069","0.0-5.0-51.0","go-nogo","true","0","","true","<div class = centerbox><div  id = stim1></div></div>","32","32","750","","test","go","51","adv","","",""
"","329","32","1450","0","test_block","poldrack-single-stim","66","128541","0.0-5.0-52.0","go-nogo","true","0","","true","<div class = centerbox><div  id = stim1></div></div>","32","32","750","","test","go","52","adv","","",""
"","300","32","1122","0","test_block","poldrack-single-stim","67","129699","0.0-5.0-53.0","go-nogo","true","0","","true","<div class = centerbox><div  id = stim1></div></div>","32","32","750","","test","go","53","adv","","",""
"","324","32","1253","0","test_block","poldrack-single-stim","68","130973","0.0-5.0-54.0","go-nogo","true","0","","true","<div class = centerbox><div  id = stim1></div></div>","32","32","750","","test","go","54","adv","","",""
"","296","32","1288","0","test_block","poldrack-single-stim","69","132283","0.0-5.0-55.0","go-nogo","true","0","","true","<div class = centerbox><div  id = stim1></div></div>","32","32","750","","test","go","55","adv","","",""
"","314","32","1005","0","test_block","poldrack-single-stim","70","133312","0.0-5.0-56.0","go-nogo","true","0","","true","<div class = centerbox><div  id = stim1></div></div>","32","32","750","","test","go","56","adv","","",""
"","358","32","1461","0","test_block","poldrack-single-stim","71","134795","0.0-5.0-57.0","go-nogo","true","0","","true","<div class = centerbox><div  id = stim1></div></div>","32","32","750","","test","go","57","adv","","",""
"","283","32","1082","0","test_block","poldrack-single-stim","72","135899","0.0-5.0-58.0","go-nogo","true","0","","true","<div class = centerbox><div  id = stim1></div></div>","32","32","750","","test","go","58","adv","","",""
"","313","32","1132","0","test_block","poldrack-single-stim","73","137057","0.0-5.0-59.0","go-nogo","true","0","","true","<div class = centerbox><div  id = stim1></div></div>","32","32","750","","test","go","59","adv","","",""
"","310","32","1244","0","test_block","poldrack-single-stim","74","138322","0.0-5.0-60.0","go-nogo","true","0","","true","<div class = centerbox><div  id = stim1></div></div>","32","32","750","","test","go","60","adv","","",""
"","291","32","1376","0","test_block","poldrack-single-stim","75","139737","0.0-5.0-61.0","go-nogo","true","0","","true","<div class = centerbox><div  id = stim1></div></div>","32","32","750","","test","go","61","adv","","",""
"","157","32","1383","0","test_block","poldrack-single-stim","76","141143","0.0-5.0-62.0","go-nogo","true","0","","true","<div class = centerbox><div  id = stim1></div></div>","32","32","750","","test","go","62","adv","","",""
"","304","32","1010","0","test_block","poldrack-single-stim","77","142174","0.0-5.0-63.0","go-nogo","true","0","","true","<div class = centerbox><div  id = stim1></div></div>","32","32","750","","test","go","63","adv","","",""
"","391","32","1030","0","test_block","poldrack-single-stim","78","143227","0.0-5.0-64.0","go-nogo","true","0","","true","<div class = centerbox><div  id = stim1></div></div>","32","32","750","","test","go","64","adv","","",""
"","331","32","1386","0","test_block","poldrack-single-stim","79","144636","0.0-5.0-65.0","go-nogo","true","0","","true","<div class = centerbox><div  id = stim1></div></div>","32","32","750","","test","go","65","adv","","",""
"","299","32","1022","0","test_block","poldrack-single-stim","80","145680","0.0-5.0-66.0","go-nogo","true","0","","true","<div class = centerbox><div  id = stim1></div></div>","32","32","750","","test","go","66","adv","","",""
"","431","32","1409","0","test_block","poldrack-single-stim","81","147135","0.0-5.0-67.0","go-nogo","true","0","","true","<div class = centerbox><div  id = stim1></div></div>","32","32","750","","test","go","67","adv","","",""
"","343","32","1273","0","test_block","poldrack-single-stim","82","148432","0.0-5.0-68.0","go-nogo","true","0","","true","<div class = centerbox><div  id = stim1></div></div>","32","32","750","","test","go","68","adv","","",""
"","262","32","1174","0","test_block","poldrack-single-stim","83","149627","0.0-5.0-69.0","go-nogo","true","0","","true","<div class = centerbox><div  id = stim1></div></div>","32","32","750","","test","go","69","adv","","",""
"","315","32","1279","0","test_block","poldrack-single-stim","84","150928","0.0-5.0-70.0","go-nogo","true","0","","true","<div class = centerbox><div  id = stim1></div></div>","32","32","750","","test","go","70","adv","","",""
"","310","32","1446","0","test_block","poldrack-single-stim","85","152395","0.0-5.0-71.0","go-nogo","true","0","","true","<div class = centerbox><div  id = stim1></div></div>","32","32","750","","test","go","71","adv","","",""
"","329","32","1264","0","test_block","poldrack-single-stim","86","153699","0.0-5.0-72.0","go-nogo","true","0","","true","<div class = centerbox><div  id = stim1></div></div>","32","32","750","","test","go","72","adv","","",""
"","291","32","1469","0","test_block","poldrack-single-stim","87","155191","0.0-5.0-73.0","go-nogo","true","0","","true","<div class = centerbox><div  id = stim1></div></div>","32","32","750","","test","go","73","adv","","",""
"","321","32","1355","0","test_block","poldrack-single-stim","88","156567","0.0-5.0-74.0","go-nogo","true","0","","true","<div class = centerbox><div  id = stim1></div></div>","32","32","750","","test","go","74","adv","","",""
"","286","32","1318","0","test_block","poldrack-single-stim","89","157907","0.0-5.0-75.0","go-nogo","true","0","","true","<div class = centerbox><div  id = stim1></div></div>","32","32","750","","test","go","75","adv","","",""
"","307","32","1225","0","test_block","poldrack-single-stim","90","159155","0.0-5.0-76.0","go-nogo","true","0","","true","<div class = centerbox><div  id = stim1></div></div>","32","32","750","","test","go","76","adv","","",""
"","276","32","1497","0","test_block","poldrack-single-stim","91","160673","0.0-5.0-77.0","go-nogo","true","0","","true","<div class = centerbox><div  id = stim1></div></div>","32","32","750","","test","go","77","adv","","",""
"","245","32","1122","0","test_block","poldrack-single-stim","92","161817","0.0-5.0-78.0","go-nogo","true","0","","true","<div class = centerbox><div  id = stim1></div></div>","32","32","750","","test","go","78","adv","","",""
"","366","32","1459","0","test_block","poldrack-single-stim","93","163297","0.0-5.0-79.0","go-nogo","true","0","","true","<div class = centerbox><div  id = stim1></div></div>","32","32","750","","test","go","79","adv","","",""
"","303","32","1327","0","test_block","poldrack-single-stim","94","164654","0.0-5.0-80.0","go-nogo","true","0","","true","<div class = centerbox><div  id = stim1></div></div>","32","32","750","","test","go","80","adv","","",""
"","265","32","1215","0","test_block","poldrack-single-stim","95","165890","0.0-5.0-81.0","go-nogo","true","0","","true","<div class = centerbox><div  id = stim1></div></div>","32","32","750","","test","go","81","adv","","",""
"","324","32","1497","0","test_block","poldrack-single-stim","96","167410","0.0-5.0-82.0","go-nogo","true","0","","true","<div class = centerbox><div  id = stim1></div></div>","32","32","750","","test","go","82","adv","","",""
"","518","32","1110","0","test_block","poldrack-single-stim","97","168558","0.0-5.0-83.0","go-nogo","true","0","","true","<div class = centerbox><div  id = stim1></div></div>","32","32","750","","test","go","83","adv","","",""
"","360","32","1236","0","test_block","poldrack-single-stim","98","169815","0.0-5.0-84.0","go-nogo","true","0","","true","<div class = centerbox><div  id = stim1></div></div>","32","32","750","","test","go","84","adv","","",""
"","350","32","1041","0","test_block","poldrack-single-stim","99","170879","0.0-5.0-85.0","go-nogo","true","0","","true","<div class = centerbox><div  id = stim1></div></div>","32","32","750","","test","go","85","adv","","",""
"","456","32","1270","0","test_block","poldrack-single-stim","100","172170","0.0-5.0-86.0","go-nogo","true","0","","true","<div class = centerbox><div  id = stim1></div></div>","32","32","750","","test","go","86","adv","","",""
"","300","32","1142","0","test_block","poldrack-single-stim","101","173334","0.0-5.0-87.0","go-nogo","true","0","","true","<div class = centerbox><div  id = stim1></div></div>","32","32","750","","test","go","87","adv","","",""
"","366","32","1278","0","test_block","poldrack-single-stim","102","174635","0.0-5.0-88.0","go-nogo","true","0","","true","<div class = centerbox><div  id = stim1></div></div>","32","32","750","","test","go","88","adv","","",""
"","320","32","1271","0","test_block","poldrack-single-stim","103","175940","0.0-5.0-89.0","go-nogo","true","0","","true","<div class = centerbox><div  id = stim1></div></div>","32","32","750","","test","go","89","adv","","",""
"","294","32","1036","0","test_block","poldrack-single-stim","104","176993","0.0-5.0-90.0","go-nogo","true","0","","true","<div class = centerbox><div  id = stim1></div></div>","32","32","750","","test","go","90","adv","","",""
"","406","32","1202","0","test_block","poldrack-single-stim","105","178216","0.0-5.0-91.0","go-nogo","true","0","","true","<div class = centerbox><div  id = stim1></div></div>","32","32","750","","test","go","91","adv","","",""
"","319","32","1386","0","test_block","poldrack-single-stim","106","179623","0.0-5.0-92.0","go-nogo","true","0","","true","<div class = centerbox><div  id = stim1></div></div>","32","32","750","","test","go","92","adv","","",""
"","319","32","1232","0","test_block","poldrack-single-stim","107","180877","0.0-5.0-93.0","go-nogo","true","0","","true","<div class = centerbox><div  id = stim1></div></div>","32","32","750","","test","go","93","adv","","",""
"","299","32","1078","0","test_block","poldrack-single-stim","108","181992","0.0-5.0-94.0","go-nogo","true","0","","true","<div class = centerbox><div  id = stim1></div></div>","32","32","750","","test","go","94","adv","","",""
"","351","32","1073","0","test_block","poldrack-single-stim","109","183087","0.0-5.0-95.0","go-nogo","true","0","","true","<div class = centerbox><div  id = stim1></div></div>","32","32","750","","test","go","95","adv","","",""
"","408","32","1182","0","test_block","poldrack-single-stim","110","184291","0.0-5.0-96.0","go-nogo","true","0","","true","<div class = centerbox><div  id = stim1></div></div>","32","32","750","","test","go","96","adv","","",""
"","349","32","1365","0","test_block","poldrack-single-stim","111","185685","0.0-5.0-97.0","go-nogo","true","0","","true","<div class = centerbox><div  id = stim1></div></div>","32","32","750","","test","go","97","adv","","",""
"","321","32","1341","0","test_block","poldrack-single-stim","112","187048","0.0-5.0-98.0","go-nogo","true","0","","true","<div class = centerbox><div  id = stim1></div></div>","32","32","750","","test","go","98","adv","","",""
"","393","32","1111","0","test_block","poldrack-single-stim","113","188219","0.0-5.0-99.0","go-nogo","true","0","","true","<div class = centerbox><div  id = stim1></div></div>","32","32","750","","test","go","99","adv","","",""
"","348","32","1469","0","test_block","poldrack-single-stim","114","189709","0.0-5.0-100.0","go-nogo","true","0","","true","<div class = centerbox><div  id = stim1></div></div>","32","32","750","","test","go","100","adv","","",""
"","314","32","1386","0","test_block","poldrack-single-stim","115","191116","0.0-5.0-101.0","go-nogo","true","0","","true","<div class = centerbox><div  id = stim1></div></div>","32","32","750","","test","go","101","adv","","",""
"","315","32","1399","0","test_block","poldrack-single-stim","116","192536","0.0-5.0-102.0","go-nogo","true","0","","true","<div class = centerbox><div  id = stim1></div></div>","32","32","750","","test","go","102","adv","","",""
"","303","32","1429","0","test_block","poldrack-single-stim","117","194050","0.0-5.0-103.0","go-nogo","true","0","","true","<div class = centerbox><div  id = stim1></div></div>","32","32","750","","test","go","103","adv","","",""
"","326","32","1374","0","test_block","poldrack-single-stim","118","195445","0.0-5.0-104.0","go-nogo","true","0","","true","<div class = centerbox><div  id = stim1></div></div>","32","32","750","","test","go","104","adv","","",""
"","305","32","1226","0","test_block","poldrack-single-stim","119","196693","0.0-5.0-105.0","go-nogo","true","0","","true","<div class = centerbox><div  id = stim1></div></div>","32","32","750","","test","go","105","adv","","",""
"","401","32","1079","0","test_block","poldrack-single-stim","120","197794","0.0-5.0-106.0","go-nogo","true","0","","true","<div class = centerbox><div  id = stim1></div></div>","32","32","750","","test","go","106","adv","","",""
"","409","32","1129","0","test_block","poldrack-single-stim","121","198971","0.0-5.0-107.0","go-nogo","true","0","","true","<div class = centerbox><div  id = stim1></div></div>","32","32","750","","test","go","107","adv","","",""
"","347","32","1218","0","test_block","poldrack-single-stim","122","200211","0.0-5.0-108.0","go-nogo","true","0","","true","<div class = centerbox><div  id = stim1></div></div>","32","32","750","","test","go","108","adv","","",""
"","327","32","1442","0","test_block","poldrack-single-stim","123","201671","0.0-5.0-109.0","go-nogo","true","0","","true","<div class = centerbox><div  id = stim1></div></div>","32","32","750","","test","go","109","adv","","",""
"","319","32","1169","0","test_block","poldrack-single-stim","124","202861","0.0-5.0-110.0","go-nogo","true","0","","true","<div class = centerbox><div  id = stim1></div></div>","32","32","750","","test","go","110","adv","","",""
"","332","32","1276","0","test_block","poldrack-single-stim","125","204188","0.0-5.0-111.0","go-nogo","true","0","","true","<div class = centerbox><div  id = stim1></div></div>","32","32","750","","test","go","111","adv","","",""
"","344","32","1023","0","test_block","poldrack-single-stim","126","205234","0.0-5.0-112.0","go-nogo","true","0","","true","<div class = centerbox><div  id = stim1></div></div>","32","32","750","","test","go","112","adv","","",""
"","387","32","1291","0","test_block","poldrack-single-stim","127","206548","0.0-5.0-113.0","go-nogo","true","0","","true","<div class = centerbox><div  id = stim1></div></div>","32","32","750","","test","go","113","adv","","",""
"","340","32","1318","0","test_block","poldrack-single-stim","128","207886","0.0-5.0-114.0","go-nogo","true","0","","true","<div class = centerbox><div  id = stim1></div></div>","32","32","750","","test","go","114","adv","","",""
"","286","32","1238","0","test_block","poldrack-single-stim","129","209158","0.0-5.0-115.0","go-nogo","true","0","","true","<div class = centerbox><div  id = stim1></div></div>","32","32","750","","test","go","115","adv","","",""
"","321","32","1298","0","test_block","poldrack-single-stim","130","210478","0.0-5.0-116.0","go-nogo","true","0","","true","<div class = centerbox><div  id = stim1></div></div>","32","32","750","","test","go","116","adv","","",""
"","313","32","1396","0","test_block","poldrack-single-stim","131","211895","0.0-5.0-117.0","go-nogo","true","0","","true","<div class = centerbox><div  id = stim1></div></div>","32","32","750","","test","go","117","adv","","",""
"","349","32","1487","0","test_block","poldrack-single-stim","132","213405","0.0-5.0-118.0","go-nogo","true","0","","true","<div class = centerbox><div  id = stim1></div></div>","32","32","750","","test","go","118","adv","","",""
"","281","32","1485","0","test_block","poldrack-single-stim","133","214913","0.0-5.0-119.0","go-nogo","true","0","","true","<div class = centerbox><div  id = stim1></div></div>","32","32","750","","test","go","119","adv","","",""
"","309","32","1113","0","test_block","poldrack-single-stim","134","216049","0.0-5.0-120.0","go-nogo","true","0","","true","<div class = centerbox><div  id = stim1></div></div>","32","32","750","","test","go","120","adv","","",""
"","373","32","1399","0","test_block","poldrack-single-stim","135","217470","0.0-5.0-121.0","go-nogo","true","0","","true","<div class = centerbox><div  id = stim1></div></div>","32","32","750","","test","go","121","adv","","",""
"","313","32","1139","0","test_block","poldrack-single-stim","136","218631","0.0-5.0-122.0","go-nogo","true","0","","true","<div class = centerbox><div  id = stim1></div></div>","32","32","750","","test","go","122","adv","","",""
"","352","32","1066","0","test_block","poldrack-single-stim","137","219718","0.0-5.0-123.0","go-nogo","true","0","","true","<div class = centerbox><div  id = stim1></div></div>","32","32","750","","test","go","123","adv","","",""
"","393","32","1280","0","test_block","poldrack-single-stim","138","221027","0.0-5.0-124.0","go-nogo","true","0","","true","<div class = centerbox><div  id = stim1></div></div>","32","32","750","","test","go","124","adv","","",""
"","371","32","1160","0","test_block","poldrack-single-stim","139","222209","0.0-5.0-125.0","go-nogo","true","0","","true","<div class = centerbox><div  id = stim1></div></div>","32","32","750","","test","go","125","adv","","",""
"","291","32","1427","0","test_block","poldrack-single-stim","140","223676","0.0-5.0-126.0","go-nogo","true","0","","true","<div class = centerbox><div  id = stim1></div></div>","32","32","750","","test","go","126","adv","","",""
"","333","32","1224","0","test_block","poldrack-single-stim","141","224935","0.0-5.0-127.0","go-nogo","true","0","","true","<div class = centerbox><div  id = stim1></div></div>","32","32","750","","test","go","127","adv","","",""
"","407","32","1399","0","test_block","poldrack-single-stim","142","226379","0.0-5.0-128.0","go-nogo","true","0","","true","<div class = centerbox><div  id = stim1></div></div>","32","32","750","","test","go","128","adv","","",""
"","359","32","1479","0","test_block","poldrack-single-stim","143","227899","0.0-5.0-129.0","go-nogo","true","0","","true","<div class = centerbox><div  id = stim1></div></div>","32","32","750","","test","go","129","adv","","",""
"","524","32","1286","0","test_block","poldrack-single-stim","144","229206","0.0-5.0-130.0","go-nogo","true","0","","true","<div class = centerbox><div  id = stim1></div></div>","32","32","750","","test","go","130","adv","","",""
"","688","32","1020","0","test_block","poldrack-single-stim","145","230249","0.0-5.0-131.0","go-nogo","true","0","","true","<div class = centerbox><div  id = stim1></div></div>","32","32","750","","test","go","131","adv","","",""
"","352","32","1223","0","test_block","poldrack-single-stim","146","231491","0.0-5.0-132.0","go-nogo","true","0","","true","<div class = centerbox><div  id = stim1></div></div>","32","32","750","","test","go","132","adv","","",""
"","347","32","1480","0","test_block","poldrack-single-stim","147","233001","0.0-5.0-133.0","go-nogo","true","0","","true","<div class = centerbox><div  id = stim1></div></div>","32","32","750","","test","go","133","adv","","",""
"","332","32","1192","0","test_block","poldrack-single-stim","148","234216","0.0-5.0-134.0","go-nogo","true","0","","true","<div class = centerbox><div  id = stim1></div></div>","32","32","750","","test","go","134","adv","","",""
"","398","32","1487","0","test_block","poldrack-single-stim","149","235724","0.0-5.0-135.0","go-nogo","true","0","","true","<div class = centerbox><div  id = stim1></div></div>","32","32","750","","test","go","135","adv","","",""
"","446","32","1050","0","test_block","poldrack-single-stim","150","236840","0.0-5.0-136.0","go-nogo","true","0","","true","<div class = centerbox><div  id = stim1></div></div>","32","32","750","","test","go","136","adv","","",""
"","462","32","1272","0","test_block","poldrack-single-stim","151","238134","0.0-5.0-137.0","go-nogo","true","0","","true","<div class = centerbox><div  id = stim1></div></div>","32","32","750","","test","go","137","adv","","",""
"","367","32","1006","0","test_block","poldrack-single-stim","152","239163","0.0-5.0-138.0","go-nogo","true","0","","true","<div class = centerbox><div  id = stim1></div></div>","32","32","750","","test","go","138","adv","","",""
"","590","32","1366","0","test_block","poldrack-single-stim","153","240549","0.0-5.0-139.0","go-nogo","true","0","","true","<div class = centerbox><div  id = stim1></div></div>","32","32","750","","test","go","139","adv","","",""
"","513","32","1086","0","test_block","poldrack-single-stim","154","241658","0.0-5.0-140.0","go-nogo","true","0","","true","<div class = centerbox><div  id = stim1></div></div>","32","32","750","","test","go","140","adv","","",""
"","348","32","1177","0","test_block","poldrack-single-stim","155","242857","0.0-5.0-141.0","go-nogo","true","0","","true","<div class = centerbox><div  id = stim1></div></div>","32","32","750","","test","go","141","adv","","",""
"","286","32","1358","0","test_block","poldrack-single-stim","156","244236","0.0-5.0-142.0","go-nogo","true","0","","true","<div class = centerbox><div  id = stim1></div></div>","32","32","750","","test","go","142","adv","","",""
"","313","32","1455","0","test_block","poldrack-single-stim","157","245714","0.0-5.0-143.0","go-nogo","true","0","","true","<div class = centerbox><div  id = stim1></div></div>","32","32","750","","test","go","143","adv","","",""
"","437","32","1496","0","test_block","poldrack-single-stim","158","247231","0.0-5.0-144.0","go-nogo","true","0","","true","<div class = centerbox><div  id = stim1></div></div>","32","32","750","","test","go","144","adv","","",""
"","440","32","1221","0","test_block","poldrack-single-stim","159","248473","0.0-5.0-145.0","go-nogo","true","0","","true","<div class = centerbox><div  id = stim1></div></div>","32","32","750","","test","go","145","adv","","",""
"","350","32","1160","0","test_block","poldrack-single-stim","160","249654","0.0-5.0-146.0","go-nogo","true","0","","true","<div class = centerbox><div  id = stim1></div></div>","32","32","750","","test","go","146","adv","","",""
"","304","32","1252","0","test_block","poldrack-single-stim","161","250928","0.0-5.0-147.0","go-nogo","true","0","","true","<div class = centerbox><div  id = stim1></div></div>","32","32","750","","test","go","147","adv","","",""
"","310","32","1070","0","test_block","poldrack-single-stim","162","252019","0.0-5.0-148.0","go-nogo","true","0","","true","<div class = centerbox><div  id = stim1></div></div>","32","32","750","","test","go","148","adv","","",""
"","387","32","1277","0","test_block","poldrack-single-stim","163","253319","0.0-5.0-149.0","go-nogo","true","0","","true","<div class = centerbox><div  id = stim1></div></div>","32","32","750","","test","go","149","adv","","",""
"","380","32","1312","0","test_block","poldrack-single-stim","164","254657","0.0-5.0-150.0","go-nogo","true","0","","true","<div class = centerbox><div  id = stim1></div></div>","32","32","750","","test","go","150","adv","","",""
"","341","32","1369","0","test_block","poldrack-single-stim","165","256048","0.0-5.0-151.0","go-nogo","true","0","","true","<div class = centerbox><div  id = stim1></div></div>","32","32","750","","test","go","151","adv","","",""
"","313","32","1236","0","test_block","poldrack-single-stim","166","257303","0.0-5.0-152.0","go-nogo","true","0","","true","<div class = centerbox><div  id = stim1></div></div>","32","32","750","","test","go","152","adv","","",""
"","308","32","1070","0","test_block","poldrack-single-stim","167","258406","0.0-5.0-153.0","go-nogo","true","0","","true","<div class = centerbox><div  id = stim1></div></div>","32","32","750","","test","go","153","adv","","",""
"","384","32","1441","0","test_block","poldrack-single-stim","168","259868","0.0-5.0-154.0","go-nogo","true","0","","true","<div class = centerbox><div  id = stim1></div></div>","32","32","750","","test","go","154","adv","","",""
"","378","32","1341","0","test_block","poldrack-single-stim","169","261230","0.0-5.0-155.0","go-nogo","true","0","","true","<div class = centerbox><div  id = stim1></div></div>","32","32","750","","test","go","155","adv","","",""
"","300","32","1331","0","test_block","poldrack-single-stim","170","262579","0.0-5.0-156.0","go-nogo","true","0","","true","<div class = centerbox><div  id = stim1></div></div>","32","32","750","","test","go","156","adv","","",""
"","299","32","1354","0","test_block","poldrack-single-stim","171","263980","0.0-5.0-157.0","go-nogo","true","0","","true","<div class = centerbox><div  id = stim1></div></div>","32","32","750","","test","go","157","adv","","",""
"","297","32","1162","0","test_block","poldrack-single-stim","172","265165","0.0-5.0-158.0","go-nogo","true","0","","true","<div class = centerbox><div  id = stim1></div></div>","32","32","750","","test","go","158","adv","","",""
"","308","32","1109","0","test_block","poldrack-single-stim","173","266302","0.0-5.0-159.0","go-nogo","true","0","","true","<div class = centerbox><div  id = stim1></div></div>","32","32","750","","test","go","159","adv","","",""
"","290","32","1095","0","test_block","poldrack-single-stim","174","267425","0.0-5.0-160.0","go-nogo","true","0","","false","<div class = centerbox><div  id = stim2></div></div>","-1","32","750","","test","nogo","160","adv","","",""
"","469","32","1214","0","test_block","poldrack-single-stim","175","268660","0.0-5.0-161.0","go-nogo","true","0","","true","<div class = centerbox><div  id = stim1></div></div>","32","32","750","","test","go","161","adv","","",""
"","596","32","1336","0","test_block","poldrack-single-stim","176","270015","0.0-5.0-162.0","go-nogo","true","0","","true","<div class = centerbox><div  id = stim1></div></div>","32","32","750","","test","go","162","adv","","",""
"","-1","-1","1370","0","test_block","poldrack-single-stim","177","271407","0.0-5.0-163.0","go-nogo","true","0","","true","<div class = centerbox><div  id = stim2></div></div>","-1","32","750","","test","nogo","163","adv","","",""
"","408","32","1476","0","test_block","poldrack-single-stim","178","272921","0.0-5.0-164.0","go-nogo","true","0","","true","<div class = centerbox><div  id = stim1></div></div>","32","32","750","","test","go","164","adv","","",""
"","430","32","1168","0","test_block","poldrack-single-stim","179","274111","0.0-5.0-165.0","go-nogo","true","0","","true","<div class = centerbox><div  id = stim1></div></div>","32","32","750","","test","go","165","adv","","",""
"","-1","-1","1426","0","test_block","poldrack-single-stim","180","275559","0.0-5.0-166.0","go-nogo","true","0","","true","<div class = centerbox><div  id = stim2></div></div>","-1","32","750","","test","nogo","166","adv","","",""
"","480","32","1019","0","test_block","poldrack-single-stim","181","276599","0.0-5.0-167.0","go-nogo","true","0","","true","<div class = centerbox><div  id = stim1></div></div>","32","32","750","","test","go","167","adv","","",""
"","415","32","1180","0","test_block","poldrack-single-stim","182","277801","0.0-5.0-168.0","go-nogo","true","0","","true","<div class = centerbox><div  id = stim1></div></div>","32","32","750","","test","go","168","adv","","",""
"","349","32","1309","0","test_block","poldrack-single-stim","183","279131","0.0-5.0-169.0","go-nogo","true","0","","true","<div class = centerbox><div  id = stim1></div></div>","32","32","750","","test","go","169","adv","","",""
"","555","32","1255","0","test_block","poldrack-single-stim","184","280408","0.0-5.0-170.0","go-nogo","true","0","","true","<div class = centerbox><div  id = stim1></div></div>","32","32","750","","test","go","170","adv","","",""
"","-1","-1","1163","0","test_block","poldrack-single-stim","185","281591","0.0-5.0-171.0","go-nogo","true","0","","true","<div class = centerbox><div  id = stim2></div></div>","-1","32","750","","test","nogo","171","adv","","",""
"","368","32","1476","0","test_block","poldrack-single-stim","186","283088","0.0-5.0-172.0","go-nogo","true","0","","true","<div class = centerbox><div  id = stim1></div></div>","32","32","750","","test","go","172","adv","","",""
"","358","32","1384","0","test_block","poldrack-single-stim","187","284494","0.0-5.0-173.0","go-nogo","true","0","","true","<div class = centerbox><div  id = stim1></div></div>","32","32","750","","test","go","173","adv","","",""
"","344","32","1438","0","test_block","poldrack-single-stim","188","285953","0.0-5.0-174.0","go-nogo","true","0","","true","<div class = centerbox><div  id = stim1></div></div>","32","32","750","","test","go","174","adv","","",""
"","293","32","1151","0","test_block","poldrack-single-stim","189","287125","0.0-5.0-175.0","go-nogo","true","0","","true","<div class = centerbox><div  id = stim1></div></div>","32","32","750","","test","go","175","adv","","",""
"","321","32","1004","0","test_block","poldrack-single-stim","190","288152","0.0-5.0-176.0","go-nogo","true","0","","true","<div class = centerbox><div  id = stim1></div></div>","32","32","750","","test","go","176","adv","","",""
"","399","32","1166","0","test_block","poldrack-single-stim","191","289355","0.0-5.0-177.0","go-nogo","true","0","","true","<div class = centerbox><div  id = stim1></div></div>","32","32","750","","test","go","177","adv","","",""
"","314","32","1282","0","test_block","poldrack-single-stim","192","290675","0.0-5.0-178.0","go-nogo","true","0","","true","<div class = centerbox><div  id = stim1></div></div>","32","32","750","","test","go","178","adv","","",""
"","292","32","1148","0","test_block","poldrack-single-stim","193","291844","0.0-5.0-179.0","go-nogo","true","0","","true","<div class = centerbox><div  id = stim1></div></div>","32","32","750","","test","go","179","adv","","",""
"","336","32","1164","0","test_block","poldrack-single-stim","194","293033","0.0-5.0-180.0","go-nogo","true","0","","false","<div class = centerbox><div  id = stim2></div></div>","-1","32","750","","test","nogo","180","adv","","",""
"","334","32","1467","0","test_block","poldrack-single-stim","195","294521","0.0-5.0-181.0","go-nogo","true","0","","true","<div class = centerbox><div  id = stim1></div></div>","32","32","750","","test","go","181","adv","","",""
"","526","32","1433","0","test_block","poldrack-single-stim","196","295975","0.0-5.0-182.0","go-nogo","true","0","","true","<div class = centerbox><div  id = stim1></div></div>","32","32","750","","test","go","182","adv","","",""
"","-1","-1","1159","0","test_block","poldrack-single-stim","197","297156","0.0-5.0-183.0","go-nogo","true","0","","true","<div class = centerbox><div  id = stim2></div></div>","-1","32","750","","test","nogo","183","adv","","",""
"","531","32","1279","0","test_block","poldrack-single-stim","198","298457","0.0-5.0-184.0","go-nogo","true","0","","true","<div class = centerbox><div  id = stim1></div></div>","32","32","750","","test","go","184","adv","","",""
"","380","32","1104","0","test_block","poldrack-single-stim","199","299583","0.0-5.0-185.0","go-nogo","true","0","","true","<div class = centerbox><div  id = stim1></div></div>","32","32","750","","test","go","185","adv","","",""
"","322","32","1149","0","test_block","poldrack-single-stim","200","300760","0.0-5.0-186.0","go-nogo","true","0","","true","<div class = centerbox><div  id = stim1></div></div>","32","32","750","","test","go","186","adv","","",""
"","-1","-1","1434","0","test_block","poldrack-single-stim","201","302216","0.0-5.0-187.0","go-nogo","true","0","","true","<div class = centerbox><div  id = stim2></div></div>","-1","32","750","","test","nogo","187","adv","","",""
"","335","32","1398","0","test_block","poldrack-single-stim","202","303635","0.0-5.0-188.0","go-nogo","true","0","","true","<div class = centerbox><div  id = stim1></div></div>","32","32","750","","test","go","188","adv","","",""
"","467","32","1258","0","test_block","poldrack-single-stim","203","304915","0.0-5.0-189.0","go-nogo","true","0","","true","<div class = centerbox><div  id = stim1></div></div>","32","32","750","","test","go","189","adv","","",""
"","387","32","1004","0","test_block","poldrack-single-stim","204","305941","0.0-5.0-190.0","go-nogo","true","0","","true","<div class = centerbox><div  id = stim1></div></div>","32","32","750","","test","go","190","adv","","",""
"","466","32","1045","0","test_block","poldrack-single-stim","205","307008","0.0-5.0-191.0","go-nogo","true","0","","true","<div class = centerbox><div  id = stim1></div></div>","32","32","750","","test","go","191","adv","","",""
"","375","32","1208","0","test_block","poldrack-single-stim","206","308236","0.0-5.0-192.0","go-nogo","true","0","","true","<div class = centerbox><div  id = stim1></div></div>","32","32","750","","test","go","192","adv","","",""
"","363","32","1459","0","test_block","poldrack-single-stim","207","309715","0.0-5.0-193.0","go-nogo","true","0","","true","<div class = centerbox><div  id = stim1></div></div>","32","32","750","","test","go","193","adv","","",""
"","-1","-1","1023","0","test_block","poldrack-single-stim","208","310759","0.0-5.0-194.0","go-nogo","true","0","","true","<div class = centerbox><div  id = stim2></div></div>","-1","32","750","","test","nogo","194","adv","","",""
"","449","32","1315","0","test_block","poldrack-single-stim","209","312094","0.0-5.0-195.0","go-nogo","true","0","","true","<div class = centerbox><div  id = stim1></div></div>","32","32","750","","test","go","195","adv","","",""
"","442","32","1094","0","test_block","poldrack-single-stim","210","313208","0.0-5.0-196.0","go-nogo","true","0","","true","<div class = centerbox><div  id = stim1></div></div>","32","32","750","","test","go","196","adv","","",""
"","719","32","1406","0","test_block","poldrack-single-stim","211","314635","0.0-5.0-197.0","go-nogo","true","0","","true","<div class = centerbox><div  id = stim1></div></div>","32","32","750","","test","go","197","adv","","",""
"","460","32","1075","0","test_block","poldrack-single-stim","212","315731","0.0-5.0-198.0","go-nogo","true","0","","true","<div class = centerbox><div  id = stim1></div></div>","32","32","750","","test","go","198","adv","","",""
"","531","32","1084","0","test_block","poldrack-single-stim","213","316836","0.0-5.0-199.0","go-nogo","true","0","","true","<div class = centerbox><div  id = stim1></div></div>","32","32","750","","test","go","199","adv","","",""
"","451","32","1338","0","test_block","poldrack-single-stim","214","318194","0.0-5.0-200.0","go-nogo","true","0","","true","<div class = centerbox><div  id = stim1></div></div>","32","32","750","","test","go","200","adv","","",""
"","547","32","1112","0","test_block","poldrack-single-stim","215","319328","0.0-5.0-201.0","go-nogo","true","0","","true","<div class = centerbox><div  id = stim1></div></div>","32","32","750","","test","go","201","adv","","",""
"","425","32","1019","0","test_block","poldrack-single-stim","216","320366","0.0-5.0-202.0","go-nogo","true","0","","true","<div class = centerbox><div  id = stim1></div></div>","32","32","750","","test","go","202","adv","","",""
"","489","32","1151","0","test_block","poldrack-single-stim","217","321539","0.0-5.0-203.0","go-nogo","true","0","","true","<div class = centerbox><div  id = stim1></div></div>","32","32","750","","test","go","203","adv","","",""
"","325","32","1397","0","test_block","poldrack-single-stim","218","322957","0.0-5.0-204.0","go-nogo","true","0","","true","<div class = centerbox><div  id = stim1></div></div>","32","32","750","","test","go","204","adv","","",""
"","-1","-1","1489","0","test_block","poldrack-single-stim","219","324466","0.0-5.0-205.0","go-nogo","true","0","","true","<div class = centerbox><div  id = stim2></div></div>","-1","32","750","","test","nogo","205","adv","","",""
"","502","32","1264","0","test_block","poldrack-single-stim","220","325750","0.0-5.0-206.0","go-nogo","true","0","","true","<div class = centerbox><div  id = stim1></div></div>","32","32","750","","test","go","206","adv","","",""
"","321","32","1019","0","test_block","poldrack-single-stim","221","326790","0.0-5.0-207.0","go-nogo","true","0","","true","<div class = centerbox><div  id = stim1></div></div>","32","32","750","","test","go","207","adv","","",""
"","353","32","1284","0","test_block","poldrack-single-stim","222","328096","0.0-5.0-208.0","go-nogo","true","0","","true","<div class = centerbox><div  id = stim1></div></div>","32","32","750","","test","go","208","adv","","",""
"","254","32","1393","0","test_block","poldrack-single-stim","223","329521","0.0-5.0-209.0","go-nogo","true","0","","true","<div class = centerbox><div  id = stim1></div></div>","32","32","750","","test","go","209","adv","","",""
"","358","32","1234","0","test_block","poldrack-single-stim","224","330776","0.0-5.0-210.0","go-nogo","true","0","","true","<div class = centerbox><div  id = stim1></div></div>","32","32","750","","test","go","210","adv","","",""
"","336","32","1051","0","test_block","poldrack-single-stim","225","331848","0.0-5.0-211.0","go-nogo","true","0","","true","<div class = centerbox><div  id = stim1></div></div>","32","32","750","","test","go","211","adv","","",""
"","399","32","1381","0","test_block","poldrack-single-stim","226","333249","0.0-5.0-212.0","go-nogo","true","0","","true","<div class = centerbox><div  id = stim1></div></div>","32","32","750","","test","go","212","adv","","",""
"","346","32","1444","0","test_block","poldrack-single-stim","227","334710","0.0-5.0-213.0","go-nogo","true","0","","true","<div class = centerbox><div  id = stim1></div></div>","32","32","750","","test","go","213","adv","","",""
"","434","32","1314","0","test_block","poldrack-single-stim","228","336045","0.0-5.0-214.0","go-nogo","true","0","","true","<div class = centerbox><div  id = stim1></div></div>","32","32","750","","test","go","214","adv","","",""
"","-1","-1","1187","0","test_block","poldrack-single-stim","229","337252","0.0-5.0-215.0","go-nogo","true","0","","true","<div class = centerbox><div  id = stim2></div></div>","-1","32","750","","test","nogo","215","adv","","",""
"","343","32","1406","0","test_block","poldrack-single-stim","230","338676","0.0-5.0-216.0","go-nogo","true","0","","true","<div class = centerbox><div  id = stim1></div></div>","32","32","750","","test","go","216","adv","","",""
"","356","32","1027","0","test_block","poldrack-single-stim","231","339724","0.0-5.0-217.0","go-nogo","true","0","","true","<div class = centerbox><div  id = stim1></div></div>","32","32","750","","test","go","217","adv","","",""
"","411","32","1497","0","test_block","poldrack-single-stim","232","341242","0.0-5.0-218.0","go-nogo","true","0","","true","<div class = centerbox><div  id = stim1></div></div>","32","32","750","","test","go","218","adv","","",""
"","430","32","1493","0","test_block","poldrack-single-stim","233","342756","0.0-5.0-219.0","go-nogo","true","0","","true","<div class = centerbox><div  id = stim1></div></div>","32","32","750","","test","go","219","adv","","",""
"","306","32","1485","0","test_block","poldrack-single-stim","234","344264","0.0-5.0-220.0","go-nogo","true","0","","true","<div class = centerbox><div  id = stim1></div></div>","32","32","750","","test","go","220","adv","","",""
"","527","32","1454","0","test_block","poldrack-single-stim","235","345739","0.0-5.0-221.0","go-nogo","true","0","","true","<div class = centerbox><div  id = stim1></div></div>","32","32","750","","test","go","221","adv","","",""
"","379","32","1444","0","test_block","poldrack-single-stim","236","347205","0.0-5.0-222.0","go-nogo","true","0","","true","<div class = centerbox><div  id = stim1></div></div>","32","32","750","","test","go","222","adv","","",""
"","321","32","1425","0","test_block","poldrack-single-stim","237","348652","0.0-5.0-223.0","go-nogo","true","0","","true","<div class = centerbox><div  id = stim1></div></div>","32","32","750","","test","go","223","adv","","",""
"","428","32","1285","0","test_block","poldrack-single-stim","238","349959","0.0-5.0-224.0","go-nogo","true","0","","true","<div class = centerbox><div  id = stim1></div></div>","32","32","750","","test","go","224","adv","","",""
"","448","32","1405","0","test_block","poldrack-single-stim","239","351385","0.0-5.0-225.0","go-nogo","true","0","","true","<div class = centerbox><div  id = stim1></div></div>","32","32","750","","test","go","225","adv","","",""
"","413","32","1116","0","test_block","poldrack-single-stim","240","352539","0.0-5.0-226.0","go-nogo","true","0","","true","<div class = centerbox><div  id = stim1></div></div>","32","32","750","","test","go","226","adv","","",""
"","388","32","1026","0","test_block","poldrack-single-stim","241","353595","0.0-5.0-227.0","go-nogo","true","0","","true","<div class = centerbox><div  id = stim1></div></div>","32","32","750","","test","go","227","adv","","",""
"","-1","-1","1092","0","test_block","poldrack-single-stim","242","354707","0.0-5.0-228.0","go-nogo","true","0","","true","<div class = centerbox><div  id = stim2></div></div>","-1","32","750","","test","nogo","228","adv","","",""
"","327","32","1361","0","test_block","poldrack-single-stim","243","356088","0.0-5.0-229.0","go-nogo","true","0","","true","<div class = centerbox><div  id = stim1></div></div>","32","32","750","","test","go","229","adv","","",""
"","400","32","1257","0","test_block","poldrack-single-stim","244","357366","0.0-5.0-230.0","go-nogo","true","0","","true","<div class = centerbox><div  id = stim1></div></div>","32","32","750","","test","go","230","adv","","",""
"","427","32","1112","0","test_block","poldrack-single-stim","245","358521","0.0-5.0-231.0","go-nogo","true","0","","true","<div class = centerbox><div  id = stim1></div></div>","32","32","750","","test","go","231","adv","","",""
"","433","32","1405","0","test_block","poldrack-single-stim","246","359945","0.0-5.0-232.0","go-nogo","true","0","","true","<div class = centerbox><div  id = stim1></div></div>","32","32","750","","test","go","232","adv","","",""
"","366","32","1380","0","test_block","poldrack-single-stim","247","361347","0.0-5.0-233.0","go-nogo","true","0","","true","<div class = centerbox><div  id = stim1></div></div>","32","32","750","","test","go","233","adv","","",""
"","372","32","1253","0","test_block","poldrack-single-stim","248","362621","0.0-5.0-234.0","go-nogo","true","0","","true","<div class = centerbox><div  id = stim1></div></div>","32","32","750","","test","go","234","adv","","",""
"","362","32","1442","0","test_block","poldrack-single-stim","249","364085","0.0-5.0-235.0","go-nogo","true","0","","true","<div class = centerbox><div  id = stim1></div></div>","32","32","750","","test","go","235","adv","","",""
"","372","32","1076","0","test_block","poldrack-single-stim","250","365197","0.0-5.0-236.0","go-nogo","true","0","","true","<div class = centerbox><div  id = stim1></div></div>","32","32","750","","test","go","236","adv","","",""
"","362","32","1467","0","test_block","poldrack-single-stim","251","366686","0.0-5.0-237.0","go-nogo","true","0","","true","<div class = centerbox><div  id = stim1></div></div>","32","32","750","","test","go","237","adv","","",""
"","362","32","1372","0","test_block","poldrack-single-stim","252","368079","0.0-5.0-238.0","go-nogo","true","0","","true","<div class = centerbox><div  id = stim1></div></div>","32","32","750","","test","go","238","adv","","",""
"","408","32","1476","0","test_block","poldrack-single-stim","253","369577","0.0-5.0-239.0","go-nogo","true","0","","true","<div class = centerbox><div  id = stim1></div></div>","32","32","750","","test","go","239","adv","","",""
"","589","32","1461","0","test_block","poldrack-single-stim","254","371060","0.0-5.0-240.0","go-nogo","true","0","","true","<div class = centerbox><div  id = stim1></div></div>","32","32","750","","test","go","240","adv","","",""
"","-1","-1","1002","0","test_block","poldrack-single-stim","255","372083","0.0-5.0-241.0","go-nogo","true","0","","true","<div class = centerbox><div  id = stim2></div></div>","-1","32","750","","test","nogo","241","adv","","",""
"","324","32","1228","0","test_block","poldrack-single-stim","256","373334","0.0-5.0-242.0","go-nogo","true","0","","true","<div class = centerbox><div  id = stim1></div></div>","32","32","750","","test","go","242","adv","","",""
"","354","32","1032","0","test_block","poldrack-single-stim","257","374387","0.0-5.0-243.0","go-nogo","true","0","","true","<div class = centerbox><div  id = stim1></div></div>","32","32","750","","test","go","243","adv","","",""
"","337","32","1074","0","test_block","poldrack-single-stim","258","375501","0.0-5.0-244.0","go-nogo","true","0","","true","<div class = centerbox><div  id = stim1></div></div>","32","32","750","","test","go","244","adv","","",""
"","330","32","1040","0","test_block","poldrack-single-stim","259","376562","0.0-5.0-245.0","go-nogo","true","0","","true","<div class = centerbox><div  id = stim1></div></div>","32","32","750","","test","go","245","adv","","",""
"","341","32","1189","0","test_block","poldrack-single-stim","260","377772","0.0-5.0-246.0","go-nogo","true","0","","true","<div class = centerbox><div  id = stim1></div></div>","32","32","750","","test","go","246","adv","","",""
"","331","32","1490","0","test_block","poldrack-single-stim","261","379284","0.0-5.0-247.0","go-nogo","true","0","","true","<div class = centerbox><div  id = stim1></div></div>","32","32","750","","test","go","247","adv","","",""
"","307","32","1161","0","test_block","poldrack-single-stim","262","380465","0.0-5.0-248.0","go-nogo","true","0","","true","<div class = centerbox><div  id = stim1></div></div>","32","32","750","","test","go","248","adv","","",""
"","358","32","1141","0","test_block","poldrack-single-stim","263","381628","0.0-5.0-249.0","go-nogo","true","0","","true","<div class = centerbox><div  id = stim1></div></div>","32","32","750","","test","go","249","adv","","",""
"","317","32","1459","0","test_block","poldrack-single-stim","264","383107","0.0-5.0-250.0","go-nogo","true","0","","true","<div class = centerbox><div  id = stim1></div></div>","32","32","750","","test","go","250","adv","","",""
"","342","32","1426","0","test_block","poldrack-single-stim","265","384570","0.0-5.0-251.0","go-nogo","true","0","","true","<div class = centerbox><div  id = stim1></div></div>","32","32","750","","test","go","251","adv","","",""
"","303","32","1483","0","test_block","poldrack-single-stim","266","386074","0.0-5.0-252.0","go-nogo","true","0","","true","<div class = centerbox><div  id = stim1></div></div>","32","32","750","","test","go","252","adv","","",""
"","317","32","1119","0","test_block","poldrack-single-stim","267","387214","0.0-5.0-253.0","go-nogo","true","0","","false","<div class = centerbox><div  id = stim2></div></div>","-1","32","750","","test","nogo","253","adv","","",""
"","470","32","1301","0","test_block","poldrack-single-stim","268","388539","0.0-5.0-254.0","go-nogo","true","0","","true","<div class = centerbox><div  id = stim1></div></div>","32","32","750","","test","go","254","adv","","",""
"","377","32","1382","0","test_block","poldrack-single-stim","269","389945","0.0-5.0-255.0","go-nogo","true","0","","true","<div class = centerbox><div  id = stim1></div></div>","32","32","750","","test","go","255","adv","","",""
"","-1","-1","1323","0","test_block","poldrack-single-stim","270","391291","0.0-5.0-256.0","go-nogo","true","0","","true","<div class = centerbox><div  id = stim2></div></div>","-1","32","750","","test","nogo","256","adv","","",""
"","365","32","1164","0","test_block","poldrack-single-stim","271","392477","0.0-5.0-257.0","go-nogo","true","0","","true","<div class = centerbox><div  id = stim1></div></div>","32","32","750","","test","go","257","adv","","",""
"","506","32","1267","0","test_block","poldrack-single-stim","272","393766","0.0-5.0-258.0","go-nogo","true","0","","true","<div class = centerbox><div  id = stim1></div></div>","32","32","750","","test","go","258","adv","","",""
"","-1","-1","1359","0","test_block","poldrack-single-stim","273","395147","0.0-5.0-259.0","go-nogo","true","0","","true","<div class = centerbox><div  id = stim2></div></div>","-1","32","750","","test","nogo","259","adv","","",""
"","366","32","1385","0","test_block","poldrack-single-stim","274","396553","0.0-5.0-260.0","go-nogo","true","0","","true","<div class = centerbox><div  id = stim1></div></div>","32","32","750","","test","go","260","adv","","",""
"","510","32","1446","0","test_block","poldrack-single-stim","275","398020","0.0-5.0-261.0","go-nogo","true","0","","true","<div class = centerbox><div  id = stim1></div></div>","32","32","750","","test","go","261","adv","","",""
"","356","32","1219","0","test_block","poldrack-single-stim","276","399260","0.0-5.0-262.0","go-nogo","true","0","","true","<div class = centerbox><div  id = stim1></div></div>","32","32","750","","test","go","262","adv","","",""
"","430","32","1145","0","test_block","poldrack-single-stim","277","400424","0.0-5.0-263.0","go-nogo","true","0","","true","<div class = centerbox><div  id = stim1></div></div>","32","32","750","","test","go","263","adv","","",""
"","395","32","1236","0","test_block","poldrack-single-stim","278","401702","0.0-5.0-264.0","go-nogo","true","0","","true","<div class = centerbox><div  id = stim1></div></div>","32","32","750","","test","go","264","adv","","",""
"","402","32","1430","0","test_block","poldrack-single-stim","279","403153","0.0-5.0-265.0","go-nogo","true","0","","true","<div class = centerbox><div  id = stim1></div></div>","32","32","750","","test","go","265","adv","","",""
"","-1","-1","1465","0","test_block","poldrack-single-stim","280","404639","0.0-5.0-266.0","go-nogo","true","0","","true","<div class = centerbox><div  id = stim2></div></div>","-1","32","750","","test","nogo","266","adv","","",""
"","327","32","1405","0","test_block","poldrack-single-stim","281","406064","0.0-5.0-267.0","go-nogo","true","0","","true","<div class = centerbox><div  id = stim1></div></div>","32","32","750","","test","go","267","adv","","",""
"","487","32","1253","0","test_block","poldrack-single-stim","282","407338","0.0-5.0-268.0","go-nogo","true","0","","true","<div class = centerbox><div  id = stim1></div></div>","32","32","750","","test","go","268","adv","","",""
"","525","32","1002","0","test_block","poldrack-single-stim","283","408361","0.0-5.0-269.0","go-nogo","true","0","","true","<div class = centerbox><div  id = stim1></div></div>","32","32","750","","test","go","269","adv","","",""
"","510","32","1298","0","test_block","poldrack-single-stim","284","409681","0.0-5.0-270.0","go-nogo","true","0","","true","<div class = centerbox><div  id = stim1></div></div>","32","32","750","","test","go","270","adv","","",""
"","502","32","1382","0","test_block","poldrack-single-stim","285","411083","0.0-5.0-271.0","go-nogo","true","0","","true","<div class = centerbox><div  id = stim1></div></div>","32","32","750","","test","go","271","adv","","",""
"","371","32","1013","0","test_block","poldrack-single-stim","286","412126","0.0-5.0-272.0","go-nogo","true","0","","true","<div class = centerbox><div  id = stim1></div></div>","32","32","750","","test","go","272","adv","","",""
"","392","32","1474","0","test_block","poldrack-single-stim","287","413622","0.0-5.0-273.0","go-nogo","true","0","","true","<div class = centerbox><div  id = stim1></div></div>","32","32","750","","test","go","273","adv","","",""
"","384","32","1021","0","test_block","poldrack-single-stim","288","414665","0.0-5.0-274.0","go-nogo","true","0","","true","<div class = centerbox><div  id = stim1></div></div>","32","32","750","","test","go","274","adv","","",""
"","365","32","1009","0","test_block","poldrack-single-stim","289","415697","0.0-5.0-275.0","go-nogo","true","0","","true","<div class = centerbox><div  id = stim1></div></div>","32","32","750","","test","go","275","adv","","",""
"","485","32","1213","0","test_block","poldrack-single-stim","290","416931","0.0-5.0-276.0","go-nogo","true","0","","true","<div class = centerbox><div  id = stim1></div></div>","32","32","750","","test","go","276","adv","","",""
"","339","32","1200","0","test_block","poldrack-single-stim","291","418152","0.0-5.0-277.0","go-nogo","true","0","","true","<div class = centerbox><div  id = stim1></div></div>","32","32","750","","test","go","277","adv","","",""
"","352","32","1249","0","test_block","poldrack-single-stim","292","419422","0.0-5.0-278.0","go-nogo","true","0","","true","<div class = centerbox><div  id = stim1></div></div>","32","32","750","","test","go","278","adv","","",""
"","392","32","1410","0","test_block","poldrack-single-stim","293","420872","0.0-5.0-279.0","go-nogo","true","0","","true","<div class = centerbox><div  id = stim1></div></div>","32","32","750","","test","go","279","adv","","",""
"","339","32","1038","0","test_block","poldrack-single-stim","294","421944","0.0-5.0-280.0","go-nogo","true","0","","true","<div class = centerbox><div  id = stim1></div></div>","32","32","750","","test","go","280","adv","","",""
"","302","32","1449","0","test_block","poldrack-single-stim","295","423415","0.0-5.0-281.0","go-nogo","true","0","","true","<div class = centerbox><div  id = stim1></div></div>","32","32","750","","test","go","281","adv","","",""
"","352","32","1109","0","test_block","poldrack-single-stim","296","424561","0.0-5.0-282.0","go-nogo","true","0","","false","<div class = centerbox><div  id = stim2></div></div>","-1","32","750","","test","nogo","282","adv","","",""
"","341","32","1395","0","test_block","poldrack-single-stim","297","425978","0.0-5.0-283.0","go-nogo","true","0","","true","<div class = centerbox><div  id = stim1></div></div>","32","32","750","","test","go","283","adv","","",""
"","414","32","1376","0","test_block","poldrack-single-stim","298","427375","0.0-5.0-284.0","go-nogo","true","0","","true","<div class = centerbox><div  id = stim1></div></div>","32","32","750","","test","go","284","adv","","",""
"","-1","-1","1238","0","test_block","poldrack-single-stim","299","428654","0.0-5.0-285.0","go-nogo","true","0","","true","<div class = centerbox><div  id = stim2></div></div>","-1","32","750","","test","nogo","285","adv","","",""
"","328","32","1257","0","test_block","poldrack-single-stim","300","429933","0.0-5.0-286.0","go-nogo","true","0","","true","<div class = centerbox><div  id = stim1></div></div>","32","32","750","","test","go","286","adv","","",""
"","569","32","1259","0","test_block","poldrack-single-stim","301","431214","0.0-5.0-287.0","go-nogo","true","0","","true","<div class = centerbox><div  id = stim1></div></div>","32","32","750","","test","go","287","adv","","",""
"","-1","-1","1134","0","test_block","poldrack-single-stim","302","432370","0.0-5.0-288.0","go-nogo","true","0","","true","<div class = centerbox><div  id = stim2></div></div>","-1","32","750","","test","nogo","288","adv","","",""
"","310","32","1402","0","test_block","poldrack-single-stim","303","433793","0.0-5.0-289.0","go-nogo","true","0","","true","<div class = centerbox><div  id = stim1></div></div>","32","32","750","","test","go","289","adv","","",""
"","551","32","1446","0","test_block","poldrack-single-stim","304","435259","0.0-5.0-290.0","go-nogo","true","0","","true","<div class = centerbox><div  id = stim1></div></div>","32","32","750","","test","go","290","adv","","",""
"","383","32","1067","0","test_block","poldrack-single-stim","305","436345","0.0-5.0-291.0","go-nogo","true","0","","true","<div class = centerbox><div  id = stim1></div></div>","32","32","750","","test","go","291","adv","","",""
"","461","32","1317","0","test_block","poldrack-single-stim","306","437684","0.0-5.0-292.0","go-nogo","true","0","","true","<div class = centerbox><div  id = stim1></div></div>","32","32","750","","test","go","292","adv","","",""
"","370","32","1141","0","test_block","poldrack-single-stim","307","438847","0.0-5.0-293.0","go-nogo","true","0","","true","<div class = centerbox><div  id = stim1></div></div>","32","32","750","","test","go","293","adv","","",""
"","279","32","1132","0","test_block","poldrack-single-stim","308","440001","0.0-5.0-294.0","go-nogo","true","0","","true","<div class = centerbox><div  id = stim1></div></div>","32","32","750","","test","go","294","adv","","",""
"","293","32","1375","0","test_block","poldrack-single-stim","309","441398","0.0-5.0-295.0","go-nogo","true","0","","true","<div class = centerbox><div  id = stim1></div></div>","32","32","750","","test","go","295","adv","","",""
"","-1","-1","1328","0","test_block","poldrack-single-stim","310","442763","0.0-5.0-296.0","go-nogo","true","0","","true","<div class = centerbox><div  id = stim2></div></div>","-1","32","750","","test","nogo","296","adv","","",""
"","364","32","1326","0","test_block","poldrack-single-stim","311","444111","0.0-5.0-297.0","go-nogo","true","0","","true","<div class = centerbox><div  id = stim1></div></div>","32","32","750","","test","go","297","adv","","",""
"","393","32","1141","0","test_block","poldrack-single-stim","312","445272","0.0-5.0-298.0","go-nogo","true","0","","true","<div class = centerbox><div  id = stim1></div></div>","32","32","750","","test","go","298","adv","","",""
"","402","32","1109","0","test_block","poldrack-single-stim","313","446399","0.0-5.0-299.0","go-nogo","true","0","","true","<div class = centerbox><div  id = stim1></div></div>","32","32","750","","test","go","299","adv","","",""
"","648","32","1268","0","test_block","poldrack-single-stim","314","447689","0.0-5.0-300.0","go-nogo","true","0","","true","<div class = centerbox><div  id = stim1></div></div>","32","32","750","","test","go","300","adv","","",""
"","318","32","1237","0","test_block","poldrack-single-stim","315","448947","0.0-5.0-301.0","go-nogo","true","0","","true","<div class = centerbox><div  id = stim1></div></div>","32","32","750","","test","go","301","adv","","",""
"","311","32","1496","0","test_block","poldrack-single-stim","316","450461","0.0-5.0-302.0","go-nogo","true","0","","true","<div class = centerbox><div  id = stim1></div></div>","32","32","750","","test","go","302","adv","","",""
"","393","32","1469","0","test_block","poldrack-single-stim","317","451951","0.0-5.0-303.0","go-nogo","true","0","","true","<div class = centerbox><div  id = stim1></div></div>","32","32","750","","test","go","303","adv","","",""
"","504","32","1130","0","test_block","poldrack-single-stim","318","453102","0.0-5.0-304.0","go-nogo","true","0","","true","<div class = centerbox><div  id = stim1></div></div>","32","32","750","","test","go","304","adv","","",""
"","456","32","1005","0","test_block","poldrack-single-stim","319","454129","0.0-5.0-305.0","go-nogo","true","0","","true","<div class = centerbox><div  id = stim1></div></div>","32","32","750","","test","go","305","adv","","",""
"","406","32","1332","0","test_block","poldrack-single-stim","320","455483","0.0-5.0-306.0","go-nogo","true","0","","true","<div class = centerbox><div  id = stim1></div></div>","32","32","750","","test","go","306","adv","","",""
"","460","32","1239","0","test_block","poldrack-single-stim","321","456742","0.0-5.0-307.0","go-nogo","true","0","","true","<div class = centerbox><div  id = stim1></div></div>","32","32","750","","test","go","307","adv","","",""
"","560","32","1287","0","test_block","poldrack-single-stim","322","458051","0.0-5.0-308.0","go-nogo","true","0","","true","<div class = centerbox><div  id = stim1></div></div>","32","32","750","","test","go","308","adv","","",""
"","389","32","1128","0","test_block","poldrack-single-stim","323","459200","0.0-5.0-309.0","go-nogo","true","0","","true","<div class = centerbox><div  id = stim1></div></div>","32","32","750","","test","go","309","adv","","",""
"","326","32","1096","0","test_block","poldrack-single-stim","324","460319","0.0-5.0-310.0","go-nogo","true","0","","true","<div class = centerbox><div  id = stim1></div></div>","32","32","750","","test","go","310","adv","","",""
"","375","32","1011","0","test_block","poldrack-single-stim","325","461367","0.0-5.0-311.0","go-nogo","true","0","","true","<div class = centerbox><div  id = stim1></div></div>","32","32","750","","test","go","311","adv","","",""
"","449","32","1451","0","test_block","poldrack-single-stim","326","462838","0.0-5.0-312.0","go-nogo","true","0","","true","<div class = centerbox><div  id = stim1></div></div>","32","32","750","","test","go","312","adv","","",""
"","336","32","1339","0","test_block","poldrack-single-stim","327","464199","0.0-5.0-313.0","go-nogo","true","0","","true","<div class = centerbox><div  id = stim1></div></div>","32","32","750","","test","go","313","adv","","",""
"","336","32","1172","0","test_block","poldrack-single-stim","328","465392","0.0-5.0-314.0","go-nogo","true","0","","true","<div class = centerbox><div  id = stim1></div></div>","32","32","750","","test","go","314","adv","","",""
"","341","32","1297","0","test_block","poldrack-single-stim","329","466729","0.0-5.0-315.0","go-nogo","true","0","","true","<div class = centerbox><div  id = stim1></div></div>","32","32","750","","test","go","315","adv","","",""
"","350","32","1366","0","test_block","poldrack-single-stim","330","468117","0.0-5.0-316.0","go-nogo","true","0","","true","<div class = centerbox><div  id = stim1></div></div>","32","32","750","","test","go","316","adv","","",""
"","-1","-1","1469","0","test_block","poldrack-single-stim","331","469625","0.0-5.0-317.0","go-nogo","true","0","","true","<div class = centerbox><div  id = stim2></div></div>","-1","32","750","","test","nogo","317","adv","","",""
"","319","32","1425","0","test_block","poldrack-single-stim","332","471071","0.0-5.0-318.0","go-nogo","true","0","","true","<div class = centerbox><div  id = stim1></div></div>","32","32","750","","test","go","318","adv","","",""
"","279","32","1324","0","test_block","poldrack-single-stim","333","472418","0.0-5.0-319.0","go-nogo","true","0","","true","<div class = centerbox><div  id = stim1></div></div>","32","32","750","","test","go","319","adv","","",""
"","357","32","1302","0","test_block","poldrack-single-stim","334","473741","0.0-5.0-320.0","go-nogo","true","0","","true","<div class = centerbox><div  id = stim1></div></div>","32","32","750","","test","go","320","adv","","",""
"","343","32","1366","0","test_block","poldrack-single-stim","335","475132","0.0-5.0-321.0","go-nogo","true","0","","true","<div class = centerbox><div  id = stim1></div></div>","32","32","750","","test","go","321","adv","","",""
"","363","32","1269","0","test_block","poldrack-single-stim","336","476423","0.0-5.0-322.0","go-nogo","true","0","","true","<div class = centerbox><div  id = stim1></div></div>","32","32","750","","test","go","322","adv","","",""
"","336","32","1296","0","test_block","poldrack-single-stim","337","477741","0.0-5.0-323.0","go-nogo","true","0","","true","<div class = centerbox><div  id = stim1></div></div>","32","32","750","","test","go","323","adv","","",""
"","362","32","1221","0","test_block","poldrack-single-stim","338","478984","0.0-5.0-324.0","go-nogo","true","0","","true","<div class = centerbox><div  id = stim1></div></div>","32","32","750","","test","go","324","adv","","",""
"","384","32","1169","0","test_block","poldrack-single-stim","339","480174","0.0-5.0-325.0","go-nogo","true","0","","true","<div class = centerbox><div  id = stim1></div></div>","32","32","750","","test","go","325","adv","","",""
"","329","32","1494","0","test_block","poldrack-single-stim","340","481689","0.0-5.0-326.0","go-nogo","true","0","","true","<div class = centerbox><div  id = stim1></div></div>","32","32","750","","test","go","326","adv","","",""
"","350","32","1470","0","test_block","poldrack-single-stim","341","483180","0.0-5.0-327.0","go-nogo","true","0","","true","<div class = centerbox><div  id = stim1></div></div>","32","32","750","","test","go","327","adv","","",""
"","331","32","1008","0","test_block","poldrack-single-stim","342","484209","0.0-5.0-328.0","go-nogo","true","0","","true","<div class = centerbox><div  id = stim1></div></div>","32","32","750","","test","go","328","adv","","",""
"","356","32","1481","0","test_block","poldrack-single-stim","343","485715","0.0-5.0-329.0","go-nogo","true","0","","true","<div class = centerbox><div  id = stim1></div></div>","32","32","750","","test","go","329","adv","","",""
"","341","32","1267","0","test_block","poldrack-single-stim","344","487002","0.0-5.0-330.0","go-nogo","true","0","","true","<div class = centerbox><div  id = stim1></div></div>","32","32","750","","test","go","330","adv","","",""
"","303","32","1018","0","test_block","poldrack-single-stim","345","488038","0.0-5.0-331.0","go-nogo","true","0","","true","<div class = centerbox><div  id = stim1></div></div>","32","32","750","","test","go","331","adv","","",""
"","304","32","1286","0","test_block","poldrack-single-stim","346","489346","0.0-5.0-332.0","go-nogo","true","0","","true","<div class = centerbox><div  id = stim1></div></div>","32","32","750","","test","go","332","adv","","",""
"","326","32","1375","0","test_block","poldrack-single-stim","347","490741","0.0-5.0-333.0","go-nogo","true","0","","true","<div class = centerbox><div  id = stim1></div></div>","32","32","750","","test","go","333","adv","","",""
"","323","32","1422","0","test_block","poldrack-single-stim","348","492185","0.0-5.0-334.0","go-nogo","true","0","","true","<div class = centerbox><div  id = stim1></div></div>","32","32","750","","test","go","334","adv","","",""
"","270","32","1271","0","test_block","poldrack-single-stim","349","493477","0.0-5.0-335.0","go-nogo","true","0","","true","<div class = centerbox><div  id = stim1></div></div>","32","32","750","","test","go","335","adv","","",""
"","306","32","1130","0","test_block","poldrack-single-stim","350","494628","0.0-5.0-336.0","go-nogo","true","0","","false","<div class = centerbox><div  id = stim2></div></div>","-1","32","750","","test","nogo","336","adv","","",""
"","-1","-1","1007","0","test_block","poldrack-single-stim","351","495657","0.0-5.0-337.0","go-nogo","true","0","","true","<div class = centerbox><div  id = stim2></div></div>","-1","32","750","","test","nogo","337","adv","","",""
"","-1","-1","1306","0","test_block","poldrack-single-stim","352","496985","0.0-5.0-338.0","go-nogo","true","0","","true","<div class = centerbox><div  id = stim2></div></div>","-1","32","750","","test","nogo","338","adv","","",""
"","-1","-1","1325","0","test_block","poldrack-single-stim","353","498327","0.0-5.0-339.0","go-nogo","true","0","","true","<div class = centerbox><div  id = stim2></div></div>","-1","32","750","","test","nogo","339","adv","","",""
"","-1","-1","1406","0","test_block","poldrack-single-stim","354","499752","0.0-5.0-340.0","go-nogo","true","0","","true","<div class = centerbox><div  id = stim2></div></div>","-1","32","750","","test","nogo","340","adv","","",""
"","-1","-1","1302","0","test_block","poldrack-single-stim","355","501078","0.0-5.0-341.0","go-nogo","true","0","","true","<div class = centerbox><div  id = stim2></div></div>","-1","32","750","","test","nogo","341","adv","","",""
"","-1","-1","1296","0","test_block","poldrack-single-stim","356","502393","0.0-5.0-342.0","go-nogo","true","0","","true","<div class = centerbox><div  id = stim2></div></div>","-1","32","750","","test","nogo","342","adv","","",""
"","-1","-1","1354","0","test_block","poldrack-single-stim","357","503786","0.0-5.0-343.0","go-nogo","true","0","","true","<div class = centerbox><div  id = stim2></div></div>","-1","32","750","","test","nogo","343","adv","","",""
"","-1","-1","1378","0","test_block","poldrack-single-stim","358","505182","0.0-5.0-344.0","go-nogo","true","0","","true","<div class = centerbox><div  id = stim2></div></div>","-1","32","750","","test","nogo","344","adv","","",""
"","-1","-1","1052","0","test_block","poldrack-single-stim","359","506250","0.0-5.0-345.0","go-nogo","true","0","","true","<div class = centerbox><div  id = stim2></div></div>","-1","32","750","","test","nogo","345","adv","","",""
"","-1","-1","1037","0","test_block","poldrack-single-stim","360","507305","0.0-5.0-346.0","go-nogo","true","0","","true","<div class = centerbox><div  id = stim2></div></div>","-1","32","750","","test","nogo","346","adv","","",""
"","-1","-1","1479","0","test_block","poldrack-single-stim","361","508812","0.0-5.0-347.0","go-nogo","true","0","","true","<div class = centerbox><div  id = stim2></div></div>","-1","32","750","","test","nogo","347","adv","","",""
"","-1","-1","1277","0","test_block","poldrack-single-stim","362","510111","0.0-5.0-348.0","go-nogo","true","0","","true","<div class = centerbox><div  id = stim2></div></div>","-1","32","750","","test","nogo","348","adv","","",""
"","-1","-1","1029","0","test_block","poldrack-single-stim","363","511161","0.0-5.0-349.0","go-nogo","true","0","","true","<div class = centerbox><div  id = stim2></div></div>","-1","32","750","","test","nogo","349","adv","","",""
"","79895","","","","post task questions","survey-text","364","591078","0.0-7.0","go-nogo","true","0","","","","","","","","","","","","{""Q0"":""I pressed the space bar when the orange square was presented, and did not press the space bar when the blue square was presented.  Although, I did make a few mistakes, and pressed the space bar when the blue square was presented - sorry!!  I did my best.  Itchy trigger finger! :)"",""Q1"":""""}","",""
"<div class = centerbox><p class = center-block-text>Thanks for completing this task!</p><p class = center-block-text>Insert the following code to collect your payment at Amazon Mechanical Turk:</p><p class = center-block-text>442536317</p><p class = center-block-text>Press <strong>enter</strong> to continue.</p></div>","3852","13","3852","0","end","poldrack-text","365","595931","0.0-8.0","go-nogo","true","0","","","","","","","","","","","","","442536317","true"
