"text","rt","key_press","block_duration","timing_post_trial","trial_id","trial_type","trial_index","time_elapsed","internal_node_id","exp_id","full_screen","focus_shifts","view_history","correct","stimulus","correct_response","possible_responses","stim_duration","feedback_duration","exp_stage","condition","trial_num","mode","responses","payment_id","credit_var"
"<div class = centerbox><p class = center-block-text>Welcome to the experiment. This task will take around 10 minutes. Press <strong>enter</strong> to begin.</p></div>","2323","13","2323","0","instruction","poldrack-text","0","2326","0.0-0.0-0.0","go-nogo","true","0","","","","","","","","","","","","","",""
"","11317","","","","instruction","poldrack-instructions","1","13644","0.0-0.0-1.0","go-nogo","true","0","[{""page_index"":0,""viewing_time"":11315}]","","","","","","","","","","","","",""
"","453","32","1114","250","practice","poldrack-categorize","2","16799","0.0-1.0-0.0","go-nogo","true","0","","true","<div class = centerbox><div  id = stim1></div></div>","32","32","750","1000","practice","go","0","adv","","",""
"","-1","-1","1017","250","practice","poldrack-categorize","3","19100","0.0-1.0-1.0","go-nogo","true","0","","true","<div class = centerbox><div id = stim2></div></div>","-1","32","750","1000","practice","nogo","1","adv","","",""
"","405","32","1031","250","practice","poldrack-categorize","4","21420","0.0-1.0-2.0","go-nogo","true","0","","true","<div class = centerbox><div  id = stim1></div></div>","32","32","750","1000","practice","go","2","adv","","",""
"","-1","-1","1346","250","practice","poldrack-categorize","5","24070","0.0-1.0-3.0","go-nogo","true","0","","true","<div class = centerbox><div id = stim2></div></div>","-1","32","750","1000","practice","nogo","3","adv","","",""
"","-1","-1","1115","250","practice","poldrack-categorize","6","26487","0.0-1.0-4.0","go-nogo","true","0","","true","<div class = centerbox><div id = stim2></div></div>","-1","32","750","1000","practice","nogo","4","adv","","",""
"","421","32","1183","250","practice","poldrack-categorize","7","28969","0.0-1.0-5.0","go-nogo","true","0","","true","<div class = centerbox><div  id = stim1></div></div>","32","32","750","1000","practice","go","5","adv","","",""
"","-1","-1","1068","250","practice","poldrack-categorize","8","31327","0.0-1.0-6.0","go-nogo","true","0","","true","<div class = centerbox><div id = stim2></div></div>","-1","32","750","1000","practice","nogo","6","adv","","",""
"","316","32","1458","250","practice","poldrack-categorize","9","34064","0.0-1.0-7.0","go-nogo","true","0","","true","<div class = centerbox><div  id = stim1></div></div>","32","32","750","1000","practice","go","7","adv","","",""
"","363","32","1179","250","practice","poldrack-categorize","10","36529","0.0-1.0-8.0","go-nogo","true","0","","true","<div class = centerbox><div  id = stim1></div></div>","32","32","750","1000","practice","go","8","adv","","",""
"","-1","-1","1480","250","practice","poldrack-categorize","11","39298","0.0-1.0-9.0","go-nogo","true","0","","true","<div class = centerbox><div id = stim2></div></div>","-1","32","750","1000","practice","nogo","9","adv","","",""
"","","","","","reset_trial","call-function","12","39568","0.0-3.0","go-nogo","true","0","","","","","","","","","","","","","",""
"<div class = centerbox><p class = block-text>Practice is over, we will now begin the experiment. You will no longer get feedback about your responses.</p><p class = block-text>Remember, if you see the <font color=""orange"">orange</font> square you should <strong> respond by pressing the spacebar as quickly as possible</strong>. If you see the <font color=""blue"">blue</font> square you should <strong> not respond</strong>. Press <strong>enter</strong> to begin.</p></div>","5745","13","5745","1000","test_intro","poldrack-text","13","45315","0.0-4.0","go-nogo","true","0","","","","","","","","","","","","","",""
"","363","32","1483","0","test_block","poldrack-single-stim","14","47819","0.0-5.0-0.0","go-nogo","true","0","","true","<div class = centerbox><div  id = stim1></div></div>","32","32","750","","test","go","0","adv","","",""
"","425","32","1286","0","test_block","poldrack-single-stim","15","49289","0.0-5.0-1.0","go-nogo","true","0","","true","<div class = centerbox><div  id = stim1></div></div>","32","32","750","","test","go","1","adv","","",""
"","445","32","1489","0","test_block","poldrack-single-stim","16","50879","0.0-5.0-2.0","go-nogo","true","0","","true","<div class = centerbox><div  id = stim1></div></div>","32","32","750","","test","go","2","adv","","",""
"","517","32","1082","0","test_block","poldrack-single-stim","17","52039","0.0-5.0-3.0","go-nogo","true","0","","true","<div class = centerbox><div  id = stim1></div></div>","32","32","750","","test","go","3","adv","","",""
"","537","32","1234","0","test_block","poldrack-single-stim","18","53349","0.0-5.0-4.0","go-nogo","true","0","","true","<div class = centerbox><div  id = stim1></div></div>","32","32","750","","test","go","4","adv","","",""
"","517","32","1335","0","test_block","poldrack-single-stim","19","54760","0.0-5.0-5.0","go-nogo","true","0","","true","<div class = centerbox><div  id = stim1></div></div>","32","32","750","","test","go","5","adv","","",""
"","477","32","1490","0","test_block","poldrack-single-stim","20","56340","0.0-5.0-6.0","go-nogo","true","0","","true","<div class = centerbox><div  id = stim1></div></div>","32","32","750","","test","go","6","adv","","",""
"","413","32","1258","0","test_block","poldrack-single-stim","21","57750","0.0-5.0-7.0","go-nogo","true","0","","true","<div class = centerbox><div  id = stim1></div></div>","32","32","750","","test","go","7","adv","","",""
"","526","32","1192","0","test_block","poldrack-single-stim","22","59029","0.0-5.0-8.0","go-nogo","true","0","","true","<div class = centerbox><div  id = stim1></div></div>","32","32","750","","test","go","8","adv","","",""
"","435","32","1186","0","test_block","poldrack-single-stim","23","60329","0.0-5.0-9.0","go-nogo","true","0","","true","<div class = centerbox><div  id = stim1></div></div>","32","32","750","","test","go","9","adv","","",""
"","424","32","1209","0","test_block","poldrack-single-stim","24","61681","0.0-5.0-10.0","go-nogo","true","0","","true","<div class = centerbox><div  id = stim1></div></div>","32","32","750","","test","go","10","adv","","",""
"","488","32","1061","0","test_block","poldrack-single-stim","25","62870","0.0-5.0-11.0","go-nogo","true","0","","true","<div class = centerbox><div  id = stim1></div></div>","32","32","750","","test","go","11","adv","","",""
"","381","32","1039","0","test_block","poldrack-single-stim","26","64039","0.0-5.0-12.0","go-nogo","true","0","","true","<div class = centerbox><div  id = stim1></div></div>","32","32","750","","test","go","12","adv","","",""
"","351","32","1229","0","test_block","poldrack-single-stim","27","65372","0.0-5.0-13.0","go-nogo","true","0","","true","<div class = centerbox><div  id = stim1></div></div>","32","32","750","","test","go","13","adv","","",""
"","351","32","1167","0","test_block","poldrack-single-stim","28","66791","0.0-5.0-14.0","go-nogo","true","0","","true","<div class = centerbox><div  id = stim1></div></div>","32","32","750","","test","go","14","adv","","",""
"","378","32","1386","0","test_block","poldrack-single-stim","29","68281","0.0-5.0-15.0","go-nogo","true","0","","true","<div class = centerbox><div  id = stim1></div></div>","32","32","750","","test","go","15","adv","","",""
"","387","32","1108","0","test_block","poldrack-single-stim","30","69599","0.0-5.0-16.0","go-nogo","true","0","","true","<div class = centerbox><div  id = stim1></div></div>","32","32","750","","test","go","16","adv","","",""
"","425","32","1030","0","test_block","poldrack-single-stim","31","70820","0.0-5.0-17.0","go-nogo","true","0","","true","<div class = centerbox><div  id = stim1></div></div>","32","32","750","","test","go","17","adv","","",""
"","478","32","1272","0","test_block","poldrack-single-stim","32","72198","0.0-5.0-18.0","go-nogo","true","0","","true","<div class = centerbox><div  id = stim1></div></div>","32","32","750","","test","go","18","adv","","",""
"","367","32","1336","0","test_block","poldrack-single-stim","33","73620","0.0-5.0-19.0","go-nogo","true","0","","true","<div class = centerbox><div  id = stim1></div></div>","32","32","750","","test","go","19","adv","","",""
"","421","32","1057","0","test_block","poldrack-single-stim","34","74840","0.0-5.0-20.0","go-nogo","true","0","","true","<div class = centerbox><div  id = stim1></div></div>","32","32","750","","test","go","20","adv","","",""
"","476","32","1446","0","test_block","poldrack-single-stim","35","76411","0.0-5.0-21.0","go-nogo","true","0","","true","<div class = centerbox><div  id = stim1></div></div>","32","32","750","","test","go","21","adv","","",""
"","503","32","1050","0","test_block","poldrack-single-stim","36","77601","0.0-5.0-22.0","go-nogo","true","0","","true","<div class = centerbox><div  id = stim1></div></div>","32","32","750","","test","go","22","adv","","",""
"","557","32","1338","0","test_block","poldrack-single-stim","37","79051","0.0-5.0-23.0","go-nogo","true","0","","true","<div class = centerbox><div  id = stim1></div></div>","32","32","750","","test","go","23","adv","","",""
"","750","32","1043","0","test_block","poldrack-single-stim","38","80221","0.0-5.0-24.0","go-nogo","true","0","","true","<div class = centerbox><div  id = stim1></div></div>","32","32","750","","test","go","24","adv","","",""
"","559","32","1366","0","test_block","poldrack-single-stim","39","81710","0.0-5.0-25.0","go-nogo","true","0","","true","<div class = centerbox><div  id = stim1></div></div>","32","32","750","","test","go","25","adv","","",""
"","393","32","1213","0","test_block","poldrack-single-stim","40","83080","0.0-5.0-26.0","go-nogo","true","0","","true","<div class = centerbox><div  id = stim1></div></div>","32","32","750","","test","go","26","adv","","",""
"","370","32","1060","0","test_block","poldrack-single-stim","41","84291","0.0-5.0-27.0","go-nogo","true","0","","true","<div class = centerbox><div  id = stim1></div></div>","32","32","750","","test","go","27","adv","","",""
"","376","32","1241","0","test_block","poldrack-single-stim","42","85670","0.0-5.0-28.0","go-nogo","true","0","","true","<div class = centerbox><div  id = stim1></div></div>","32","32","750","","test","go","28","adv","","",""
"","397","32","1301","0","test_block","poldrack-single-stim","43","87095","0.0-5.0-29.0","go-nogo","true","0","","true","<div class = centerbox><div  id = stim1></div></div>","32","32","750","","test","go","29","adv","","",""
"","348","32","1386","0","test_block","poldrack-single-stim","44","88589","0.0-5.0-30.0","go-nogo","true","0","","true","<div class = centerbox><div  id = stim1></div></div>","32","32","750","","test","go","30","adv","","",""
"","319","32","1051","0","test_block","poldrack-single-stim","45","89790","0.0-5.0-31.0","go-nogo","true","0","","true","<div class = centerbox><div  id = stim1></div></div>","32","32","750","","test","go","31","adv","","",""
"","387","32","1322","0","test_block","poldrack-single-stim","46","91240","0.0-5.0-32.0","go-nogo","true","0","","true","<div class = centerbox><div  id = stim1></div></div>","32","32","750","","test","go","32","adv","","",""
"","345","32","1171","0","test_block","poldrack-single-stim","47","92531","0.0-5.0-33.0","go-nogo","true","0","","true","<div class = centerbox><div  id = stim1></div></div>","32","32","750","","test","go","33","adv","","",""
"","327","32","1495","0","test_block","poldrack-single-stim","48","94160","0.0-5.0-34.0","go-nogo","true","0","","true","<div class = centerbox><div  id = stim1></div></div>","32","32","750","","test","go","34","adv","","",""
"","326","32","1450","0","test_block","poldrack-single-stim","49","95730","0.0-5.0-35.0","go-nogo","true","0","","true","<div class = centerbox><div  id = stim1></div></div>","32","32","750","","test","go","35","adv","","",""
"","339","32","1239","0","test_block","poldrack-single-stim","50","97100","0.0-5.0-36.0","go-nogo","true","0","","true","<div class = centerbox><div  id = stim1></div></div>","32","32","750","","test","go","36","adv","","",""
"","467","32","1375","0","test_block","poldrack-single-stim","51","98600","0.0-5.0-37.0","go-nogo","true","0","","true","<div class = centerbox><div  id = stim1></div></div>","32","32","750","","test","go","37","adv","","",""
"","355","32","1462","0","test_block","poldrack-single-stim","52","100190","0.0-5.0-38.0","go-nogo","true","0","","true","<div class = centerbox><div  id = stim1></div></div>","32","32","750","","test","go","38","adv","","",""
"","305","32","1180","0","test_block","poldrack-single-stim","53","101500","0.0-5.0-39.0","go-nogo","true","0","","true","<div class = centerbox><div  id = stim1></div></div>","32","32","750","","test","go","39","adv","","",""
"","337","32","1074","0","test_block","poldrack-single-stim","54","102709","0.0-5.0-40.0","go-nogo","true","0","","true","<div class = centerbox><div  id = stim1></div></div>","32","32","750","","test","go","40","adv","","",""
"","351","32","1087","0","test_block","poldrack-single-stim","55","103930","0.0-5.0-41.0","go-nogo","true","0","","true","<div class = centerbox><div  id = stim1></div></div>","32","32","750","","test","go","41","adv","","",""
"","287","32","1290","0","test_block","poldrack-single-stim","56","105340","0.0-5.0-42.0","go-nogo","true","0","","true","<div class = centerbox><div  id = stim1></div></div>","32","32","750","","test","go","42","adv","","",""
"","317","32","1195","0","test_block","poldrack-single-stim","57","106670","0.0-5.0-43.0","go-nogo","true","0","","true","<div class = centerbox><div  id = stim1></div></div>","32","32","750","","test","go","43","adv","","",""
"","335","32","1473","0","test_block","poldrack-single-stim","58","108290","0.0-5.0-44.0","go-nogo","true","0","","true","<div class = centerbox><div  id = stim1></div></div>","32","32","750","","test","go","44","adv","","",""
"","369","32","1021","0","test_block","poldrack-single-stim","59","109449","0.0-5.0-45.0","go-nogo","true","0","","true","<div class = centerbox><div  id = stim1></div></div>","32","32","750","","test","go","45","adv","","",""
"","357","32","1288","0","test_block","poldrack-single-stim","60","110871","0.0-5.0-46.0","go-nogo","true","0","","true","<div class = centerbox><div  id = stim1></div></div>","32","32","750","","test","go","46","adv","","",""
"","259","32","1244","0","test_block","poldrack-single-stim","61","112250","0.0-5.0-47.0","go-nogo","true","0","","true","<div class = centerbox><div  id = stim1></div></div>","32","32","750","","test","go","47","adv","","",""
"","323","32","1211","0","test_block","poldrack-single-stim","62","113591","0.0-5.0-48.0","go-nogo","true","0","","true","<div class = centerbox><div  id = stim1></div></div>","32","32","750","","test","go","48","adv","","",""
"","303","32","1357","0","test_block","poldrack-single-stim","63","115070","0.0-5.0-49.0","go-nogo","true","0","","true","<div class = centerbox><div  id = stim1></div></div>","32","32","750","","test","go","49","adv","","",""
"","307","32","1198","0","test_block","poldrack-single-stim","64","116409","0.0-5.0-50.0","go-nogo","true","0","","true","<div class = centerbox><div  id = stim1></div></div>","32","32","750","","test","go","50","adv","","",""
"","299","32","1241","0","test_block","poldrack-single-stim","65","117774","0.0-5.0-51.0","go-nogo","true","0","","true","<div class = centerbox><div  id = stim1></div></div>","32","32","750","","test","go","51","adv","","",""
"","317","32","1199","0","test_block","poldrack-single-stim","66","119101","0.0-5.0-52.0","go-nogo","true","0","","true","<div class = centerbox><div  id = stim1></div></div>","32","32","750","","test","go","52","adv","","",""
"","388","32","1299","0","test_block","poldrack-single-stim","67","120520","0.0-5.0-53.0","go-nogo","true","0","","true","<div class = centerbox><div  id = stim1></div></div>","32","32","750","","test","go","53","adv","","",""
"","472","32","1305","0","test_block","poldrack-single-stim","68","121950","0.0-5.0-54.0","go-nogo","true","0","","true","<div class = centerbox><div  id = stim1></div></div>","32","32","750","","test","go","54","adv","","",""
"","902","32","1177","0","test_block","poldrack-single-stim","69","123260","0.0-5.0-55.0","go-nogo","true","0","","true","<div class = centerbox><div  id = stim1></div></div>","32","32","750","","test","go","55","adv","","",""
"","548","32","1102","0","test_block","poldrack-single-stim","70","124479","0.0-5.0-56.0","go-nogo","true","0","","true","<div class = centerbox><div  id = stim1></div></div>","32","32","750","","test","go","56","adv","","",""
"","417","32","1472","0","test_block","poldrack-single-stim","71","126040","0.0-5.0-57.0","go-nogo","true","0","","true","<div class = centerbox><div  id = stim1></div></div>","32","32","750","","test","go","57","adv","","",""
"","483","32","1476","0","test_block","poldrack-single-stim","72","127639","0.0-5.0-58.0","go-nogo","true","0","","true","<div class = centerbox><div  id = stim1></div></div>","32","32","750","","test","go","58","adv","","",""
"","446","32","1407","0","test_block","poldrack-single-stim","73","129150","0.0-5.0-59.0","go-nogo","true","0","","true","<div class = centerbox><div  id = stim1></div></div>","32","32","750","","test","go","59","adv","","",""
"","302","32","1077","0","test_block","poldrack-single-stim","74","130340","0.0-5.0-60.0","go-nogo","true","0","","true","<div class = centerbox><div  id = stim1></div></div>","32","32","750","","test","go","60","adv","","",""
"","516","32","1161","0","test_block","poldrack-single-stim","75","131620","0.0-5.0-61.0","go-nogo","true","0","","true","<div class = centerbox><div  id = stim1></div></div>","32","32","750","","test","go","61","adv","","",""
"","332","32","1378","0","test_block","poldrack-single-stim","76","133080","0.0-5.0-62.0","go-nogo","true","0","","true","<div class = centerbox><div  id = stim1></div></div>","32","32","750","","test","go","62","adv","","",""
"","330","32","1084","0","test_block","poldrack-single-stim","77","134270","0.0-5.0-63.0","go-nogo","true","0","","true","<div class = centerbox><div  id = stim1></div></div>","32","32","750","","test","go","63","adv","","",""
"","372","32","1384","0","test_block","poldrack-single-stim","78","135750","0.0-5.0-64.0","go-nogo","true","0","","true","<div class = centerbox><div  id = stim1></div></div>","32","32","750","","test","go","64","adv","","",""
"","330","32","1163","0","test_block","poldrack-single-stim","79","137020","0.0-5.0-65.0","go-nogo","true","0","","true","<div class = centerbox><div  id = stim1></div></div>","32","32","750","","test","go","65","adv","","",""
"","332","32","1262","0","test_block","poldrack-single-stim","80","138420","0.0-5.0-66.0","go-nogo","true","0","","true","<div class = centerbox><div  id = stim1></div></div>","32","32","750","","test","go","66","adv","","",""
"","356","32","1445","0","test_block","poldrack-single-stim","81","139990","0.0-5.0-67.0","go-nogo","true","0","","true","<div class = centerbox><div  id = stim1></div></div>","32","32","750","","test","go","67","adv","","",""
"","335","32","1282","0","test_block","poldrack-single-stim","82","141370","0.0-5.0-68.0","go-nogo","true","0","","true","<div class = centerbox><div  id = stim1></div></div>","32","32","750","","test","go","68","adv","","",""
"","347","32","1328","0","test_block","poldrack-single-stim","83","142820","0.0-5.0-69.0","go-nogo","true","0","","true","<div class = centerbox><div  id = stim1></div></div>","32","32","750","","test","go","69","adv","","",""
"","304","32","1118","0","test_block","poldrack-single-stim","84","144060","0.0-5.0-70.0","go-nogo","true","0","","true","<div class = centerbox><div  id = stim1></div></div>","32","32","750","","test","go","70","adv","","",""
"","311","32","1252","0","test_block","poldrack-single-stim","85","145418","0.0-5.0-71.0","go-nogo","true","0","","true","<div class = centerbox><div  id = stim1></div></div>","32","32","750","","test","go","71","adv","","",""
"","310","32","1460","0","test_block","poldrack-single-stim","86","147000","0.0-5.0-72.0","go-nogo","true","0","","true","<div class = centerbox><div  id = stim1></div></div>","32","32","750","","test","go","72","adv","","",""
"","339","32","1279","0","test_block","poldrack-single-stim","87","148409","0.0-5.0-73.0","go-nogo","true","0","","true","<div class = centerbox><div  id = stim1></div></div>","32","32","750","","test","go","73","adv","","",""
"","301","32","1400","0","test_block","poldrack-single-stim","88","149916","0.0-5.0-74.0","go-nogo","true","0","","true","<div class = centerbox><div  id = stim1></div></div>","32","32","750","","test","go","74","adv","","",""
"","297","32","1393","0","test_block","poldrack-single-stim","89","151419","0.0-5.0-75.0","go-nogo","true","0","","true","<div class = centerbox><div  id = stim1></div></div>","32","32","750","","test","go","75","adv","","",""
"","296","32","1251","0","test_block","poldrack-single-stim","90","152819","0.0-5.0-76.0","go-nogo","true","0","","true","<div class = centerbox><div  id = stim1></div></div>","32","32","750","","test","go","76","adv","","",""
"","435","32","1249","0","test_block","poldrack-single-stim","91","154190","0.0-5.0-77.0","go-nogo","true","0","","true","<div class = centerbox><div  id = stim1></div></div>","32","32","750","","test","go","77","adv","","",""
"","346","32","1456","0","test_block","poldrack-single-stim","92","155772","0.0-5.0-78.0","go-nogo","true","0","","true","<div class = centerbox><div  id = stim1></div></div>","32","32","750","","test","go","78","adv","","",""
"","322","32","1441","0","test_block","poldrack-single-stim","93","157341","0.0-5.0-79.0","go-nogo","true","0","","true","<div class = centerbox><div  id = stim1></div></div>","32","32","750","","test","go","79","adv","","",""
"","366","32","1381","0","test_block","poldrack-single-stim","94","158840","0.0-5.0-80.0","go-nogo","true","0","","true","<div class = centerbox><div  id = stim1></div></div>","32","32","750","","test","go","80","adv","","",""
"","367","32","1477","0","test_block","poldrack-single-stim","95","160440","0.0-5.0-81.0","go-nogo","true","0","","true","<div class = centerbox><div  id = stim1></div></div>","32","32","750","","test","go","81","adv","","",""
"","292","32","1084","0","test_block","poldrack-single-stim","96","161620","0.0-5.0-82.0","go-nogo","true","0","","true","<div class = centerbox><div  id = stim1></div></div>","32","32","750","","test","go","82","adv","","",""
"","570","32","1347","0","test_block","poldrack-single-stim","97","163080","0.0-5.0-83.0","go-nogo","true","0","","true","<div class = centerbox><div  id = stim1></div></div>","32","32","750","","test","go","83","adv","","",""
"","328","32","1385","0","test_block","poldrack-single-stim","98","164579","0.0-5.0-84.0","go-nogo","true","0","","true","<div class = centerbox><div  id = stim1></div></div>","32","32","750","","test","go","84","adv","","",""
"","297","32","1380","0","test_block","poldrack-single-stim","99","166039","0.0-5.0-85.0","go-nogo","true","0","","true","<div class = centerbox><div  id = stim1></div></div>","32","32","750","","test","go","85","adv","","",""
"","295","32","1347","0","test_block","poldrack-single-stim","100","167500","0.0-5.0-86.0","go-nogo","true","0","","true","<div class = centerbox><div  id = stim1></div></div>","32","32","750","","test","go","86","adv","","",""
"","353","32","1088","0","test_block","poldrack-single-stim","101","168700","0.0-5.0-87.0","go-nogo","true","0","","true","<div class = centerbox><div  id = stim1></div></div>","32","32","750","","test","go","87","adv","","",""
"","662","32","1493","0","test_block","poldrack-single-stim","102","170300","0.0-5.0-88.0","go-nogo","true","0","","true","<div class = centerbox><div  id = stim1></div></div>","32","32","750","","test","go","88","adv","","",""
"","388","32","1186","0","test_block","poldrack-single-stim","103","171610","0.0-5.0-89.0","go-nogo","true","0","","true","<div class = centerbox><div  id = stim1></div></div>","32","32","750","","test","go","89","adv","","",""
"","364","32","1213","0","test_block","poldrack-single-stim","104","172940","0.0-5.0-90.0","go-nogo","true","0","","true","<div class = centerbox><div  id = stim1></div></div>","32","32","750","","test","go","90","adv","","",""
"","490","32","1191","0","test_block","poldrack-single-stim","105","174239","0.0-5.0-91.0","go-nogo","true","0","","true","<div class = centerbox><div  id = stim1></div></div>","32","32","750","","test","go","91","adv","","",""
"","414","32","1298","0","test_block","poldrack-single-stim","106","175650","0.0-5.0-92.0","go-nogo","true","0","","true","<div class = centerbox><div  id = stim1></div></div>","32","32","750","","test","go","92","adv","","",""
"","683","32","1197","0","test_block","poldrack-single-stim","107","176970","0.0-5.0-93.0","go-nogo","true","0","","true","<div class = centerbox><div  id = stim1></div></div>","32","32","750","","test","go","93","adv","","",""
"","383","32","1187","0","test_block","poldrack-single-stim","108","178269","0.0-5.0-94.0","go-nogo","true","0","","true","<div class = centerbox><div  id = stim1></div></div>","32","32","750","","test","go","94","adv","","",""
"","362","32","1052","0","test_block","poldrack-single-stim","109","179420","0.0-5.0-95.0","go-nogo","true","0","","true","<div class = centerbox><div  id = stim1></div></div>","32","32","750","","test","go","95","adv","","",""
"","959","32","1318","0","test_block","poldrack-single-stim","110","180850","0.0-5.0-96.0","go-nogo","true","0","","true","<div class = centerbox><div  id = stim1></div></div>","32","32","750","","test","go","96","adv","","",""
"","853","32","1239","0","test_block","poldrack-single-stim","111","182240","0.0-5.0-97.0","go-nogo","true","0","","true","<div class = centerbox><div  id = stim1></div></div>","32","32","750","","test","go","97","adv","","",""
"","645","32","1177","0","test_block","poldrack-single-stim","112","183540","0.0-5.0-98.0","go-nogo","true","0","","true","<div class = centerbox><div  id = stim1></div></div>","32","32","750","","test","go","98","adv","","",""
"","564","32","1037","0","test_block","poldrack-single-stim","113","184690","0.0-5.0-99.0","go-nogo","true","0","","true","<div class = centerbox><div  id = stim1></div></div>","32","32","750","","test","go","99","adv","","",""
"","783","32","1049","0","test_block","poldrack-single-stim","114","185861","0.0-5.0-100.0","go-nogo","true","0","","true","<div class = centerbox><div  id = stim1></div></div>","32","32","750","","test","go","100","adv","","",""
"","407","32","1485","0","test_block","poldrack-single-stim","115","187470","0.0-5.0-101.0","go-nogo","true","0","","true","<div class = centerbox><div  id = stim1></div></div>","32","32","750","","test","go","101","adv","","",""
"","439","32","1156","0","test_block","poldrack-single-stim","116","188730","0.0-5.0-102.0","go-nogo","true","0","","true","<div class = centerbox><div  id = stim1></div></div>","32","32","750","","test","go","102","adv","","",""
"","363","32","1221","0","test_block","poldrack-single-stim","117","190065","0.0-5.0-103.0","go-nogo","true","0","","true","<div class = centerbox><div  id = stim1></div></div>","32","32","750","","test","go","103","adv","","",""
"","360","32","1077","0","test_block","poldrack-single-stim","118","191267","0.0-5.0-104.0","go-nogo","true","0","","true","<div class = centerbox><div  id = stim1></div></div>","32","32","750","","test","go","104","adv","","",""
"","348","32","1345","0","test_block","poldrack-single-stim","119","192740","0.0-5.0-105.0","go-nogo","true","0","","true","<div class = centerbox><div  id = stim1></div></div>","32","32","750","","test","go","105","adv","","",""
"","468","32","1080","0","test_block","poldrack-single-stim","120","193940","0.0-5.0-106.0","go-nogo","true","0","","true","<div class = centerbox><div  id = stim1></div></div>","32","32","750","","test","go","106","adv","","",""
"","413","32","1117","0","test_block","poldrack-single-stim","121","195149","0.0-5.0-107.0","go-nogo","true","0","","true","<div class = centerbox><div  id = stim1></div></div>","32","32","750","","test","go","107","adv","","",""
"","375","32","1243","0","test_block","poldrack-single-stim","122","196500","0.0-5.0-108.0","go-nogo","true","0","","true","<div class = centerbox><div  id = stim1></div></div>","32","32","750","","test","go","108","adv","","",""
"","343","32","1372","0","test_block","poldrack-single-stim","123","197979","0.0-5.0-109.0","go-nogo","true","0","","true","<div class = centerbox><div  id = stim1></div></div>","32","32","750","","test","go","109","adv","","",""
"","314","32","1310","0","test_block","poldrack-single-stim","124","199400","0.0-5.0-110.0","go-nogo","true","0","","true","<div class = centerbox><div  id = stim1></div></div>","32","32","750","","test","go","110","adv","","",""
"","328","32","1457","0","test_block","poldrack-single-stim","125","200970","0.0-5.0-111.0","go-nogo","true","0","","true","<div class = centerbox><div  id = stim1></div></div>","32","32","750","","test","go","111","adv","","",""
"","351","32","1055","0","test_block","poldrack-single-stim","126","202130","0.0-5.0-112.0","go-nogo","true","0","","true","<div class = centerbox><div  id = stim1></div></div>","32","32","750","","test","go","112","adv","","",""
"","466","32","1378","0","test_block","poldrack-single-stim","127","203650","0.0-5.0-113.0","go-nogo","true","0","","true","<div class = centerbox><div  id = stim1></div></div>","32","32","750","","test","go","113","adv","","",""
"","551","32","1316","0","test_block","poldrack-single-stim","128","205069","0.0-5.0-114.0","go-nogo","true","0","","true","<div class = centerbox><div  id = stim1></div></div>","32","32","750","","test","go","114","adv","","",""
"","401","32","1285","0","test_block","poldrack-single-stim","129","206478","0.0-5.0-115.0","go-nogo","true","0","","true","<div class = centerbox><div  id = stim1></div></div>","32","32","750","","test","go","115","adv","","",""
"","399","32","1062","0","test_block","poldrack-single-stim","130","207599","0.0-5.0-116.0","go-nogo","true","0","","true","<div class = centerbox><div  id = stim1></div></div>","32","32","750","","test","go","116","adv","","",""
"","333","32","1116","0","test_block","poldrack-single-stim","131","208820","0.0-5.0-117.0","go-nogo","true","0","","true","<div class = centerbox><div  id = stim1></div></div>","32","32","750","","test","go","117","adv","","",""
"","345","32","1361","0","test_block","poldrack-single-stim","132","210299","0.0-5.0-118.0","go-nogo","true","0","","true","<div class = centerbox><div  id = stim1></div></div>","32","32","750","","test","go","118","adv","","",""
"","345","32","1165","0","test_block","poldrack-single-stim","133","211580","0.0-5.0-119.0","go-nogo","true","0","","true","<div class = centerbox><div  id = stim1></div></div>","32","32","750","","test","go","119","adv","","",""
"","368","32","1436","0","test_block","poldrack-single-stim","134","213140","0.0-5.0-120.0","go-nogo","true","0","","true","<div class = centerbox><div  id = stim1></div></div>","32","32","750","","test","go","120","adv","","",""
"","346","32","1011","0","test_block","poldrack-single-stim","135","214248","0.0-5.0-121.0","go-nogo","true","0","","true","<div class = centerbox><div  id = stim1></div></div>","32","32","750","","test","go","121","adv","","",""
"","483","32","1201","0","test_block","poldrack-single-stim","136","215580","0.0-5.0-122.0","go-nogo","true","0","","true","<div class = centerbox><div  id = stim1></div></div>","32","32","750","","test","go","122","adv","","",""
"","576","32","1271","0","test_block","poldrack-single-stim","137","216970","0.0-5.0-123.0","go-nogo","true","0","","true","<div class = centerbox><div  id = stim1></div></div>","32","32","750","","test","go","123","adv","","",""
"","392","32","1239","0","test_block","poldrack-single-stim","138","218331","0.0-5.0-124.0","go-nogo","true","0","","true","<div class = centerbox><div  id = stim1></div></div>","32","32","750","","test","go","124","adv","","",""
"","388","32","1312","0","test_block","poldrack-single-stim","139","219770","0.0-5.0-125.0","go-nogo","true","0","","true","<div class = centerbox><div  id = stim1></div></div>","32","32","750","","test","go","125","adv","","",""
"","368","32","1016","0","test_block","poldrack-single-stim","140","220900","0.0-5.0-126.0","go-nogo","true","0","","true","<div class = centerbox><div  id = stim1></div></div>","32","32","750","","test","go","126","adv","","",""
"","359","32","1350","0","test_block","poldrack-single-stim","141","222358","0.0-5.0-127.0","go-nogo","true","0","","true","<div class = centerbox><div  id = stim1></div></div>","32","32","750","","test","go","127","adv","","",""
"","268","32","1319","0","test_block","poldrack-single-stim","142","223775","0.0-5.0-128.0","go-nogo","true","0","","true","<div class = centerbox><div  id = stim1></div></div>","32","32","750","","test","go","128","adv","","",""
"","491","32","1251","0","test_block","poldrack-single-stim","143","225110","0.0-5.0-129.0","go-nogo","true","0","","true","<div class = centerbox><div  id = stim1></div></div>","32","32","750","","test","go","129","adv","","",""
"","1131","32","1409","0","test_block","poldrack-single-stim","144","226640","0.0-5.0-130.0","go-nogo","true","0","","true","<div class = centerbox><div  id = stim1></div></div>","32","32","750","","test","go","130","adv","","",""
"","345","32","1076","0","test_block","poldrack-single-stim","145","227819","0.0-5.0-131.0","go-nogo","true","0","","true","<div class = centerbox><div  id = stim1></div></div>","32","32","750","","test","go","131","adv","","",""
"","409","32","1440","0","test_block","poldrack-single-stim","146","229379","0.0-5.0-132.0","go-nogo","true","0","","true","<div class = centerbox><div  id = stim1></div></div>","32","32","750","","test","go","132","adv","","",""
"","805","32","1218","0","test_block","poldrack-single-stim","147","230699","0.0-5.0-133.0","go-nogo","true","0","","true","<div class = centerbox><div  id = stim1></div></div>","32","32","750","","test","go","133","adv","","",""
"","341","32","1435","0","test_block","poldrack-single-stim","148","232249","0.0-5.0-134.0","go-nogo","true","0","","true","<div class = centerbox><div  id = stim1></div></div>","32","32","750","","test","go","134","adv","","",""
"","302","32","1183","0","test_block","poldrack-single-stim","149","233540","0.0-5.0-135.0","go-nogo","true","0","","true","<div class = centerbox><div  id = stim1></div></div>","32","32","750","","test","go","135","adv","","",""
"","294","32","1092","0","test_block","poldrack-single-stim","150","234740","0.0-5.0-136.0","go-nogo","true","0","","true","<div class = centerbox><div  id = stim1></div></div>","32","32","750","","test","go","136","adv","","",""
"","296","32","1136","0","test_block","poldrack-single-stim","151","235999","0.0-5.0-137.0","go-nogo","true","0","","true","<div class = centerbox><div  id = stim1></div></div>","32","32","750","","test","go","137","adv","","",""
"","285","32","1005","0","test_block","poldrack-single-stim","152","237101","0.0-5.0-138.0","go-nogo","true","0","","true","<div class = centerbox><div  id = stim1></div></div>","32","32","750","","test","go","138","adv","","",""
"","262","32","1084","0","test_block","poldrack-single-stim","153","238300","0.0-5.0-139.0","go-nogo","true","0","","true","<div class = centerbox><div  id = stim1></div></div>","32","32","750","","test","go","139","adv","","",""
"","295","32","1223","0","test_block","poldrack-single-stim","154","239640","0.0-5.0-140.0","go-nogo","true","0","","true","<div class = centerbox><div  id = stim1></div></div>","32","32","750","","test","go","140","adv","","",""
"","288","32","1122","0","test_block","poldrack-single-stim","155","240870","0.0-5.0-141.0","go-nogo","true","0","","true","<div class = centerbox><div  id = stim1></div></div>","32","32","750","","test","go","141","adv","","",""
"","332","32","1039","0","test_block","poldrack-single-stim","156","242020","0.0-5.0-142.0","go-nogo","true","0","","true","<div class = centerbox><div  id = stim1></div></div>","32","32","750","","test","go","142","adv","","",""
"","429","32","1305","0","test_block","poldrack-single-stim","157","243439","0.0-5.0-143.0","go-nogo","true","0","","true","<div class = centerbox><div  id = stim1></div></div>","32","32","750","","test","go","143","adv","","",""
"","539","32","1266","0","test_block","poldrack-single-stim","158","244821","0.0-5.0-144.0","go-nogo","true","0","","true","<div class = centerbox><div  id = stim1></div></div>","32","32","750","","test","go","144","adv","","",""
"","954","32","1279","0","test_block","poldrack-single-stim","159","246180","0.0-5.0-145.0","go-nogo","true","0","","true","<div class = centerbox><div  id = stim1></div></div>","32","32","750","","test","go","145","adv","","",""
"","720","32","1411","0","test_block","poldrack-single-stim","160","247708","0.0-5.0-146.0","go-nogo","true","0","","true","<div class = centerbox><div  id = stim1></div></div>","32","32","750","","test","go","146","adv","","",""
"","471","32","1499","0","test_block","poldrack-single-stim","161","249270","0.0-5.0-147.0","go-nogo","true","0","","true","<div class = centerbox><div  id = stim1></div></div>","32","32","750","","test","go","147","adv","","",""
"","389","32","1042","0","test_block","poldrack-single-stim","162","250440","0.0-5.0-148.0","go-nogo","true","0","","true","<div class = centerbox><div  id = stim1></div></div>","32","32","750","","test","go","148","adv","","",""
"","305","32","1447","0","test_block","poldrack-single-stim","163","252020","0.0-5.0-149.0","go-nogo","true","0","","true","<div class = centerbox><div  id = stim1></div></div>","32","32","750","","test","go","149","adv","","",""
"","293","32","1298","0","test_block","poldrack-single-stim","164","253399","0.0-5.0-150.0","go-nogo","true","0","","true","<div class = centerbox><div  id = stim1></div></div>","32","32","750","","test","go","150","adv","","",""
"","252","32","1393","0","test_block","poldrack-single-stim","165","254910","0.0-5.0-151.0","go-nogo","true","0","","true","<div class = centerbox><div  id = stim1></div></div>","32","32","750","","test","go","151","adv","","",""
"","277","32","1091","0","test_block","poldrack-single-stim","166","256110","0.0-5.0-152.0","go-nogo","true","0","","true","<div class = centerbox><div  id = stim1></div></div>","32","32","750","","test","go","152","adv","","",""
"","335","32","1177","0","test_block","poldrack-single-stim","167","257410","0.0-5.0-153.0","go-nogo","true","0","","true","<div class = centerbox><div  id = stim1></div></div>","32","32","750","","test","go","153","adv","","",""
"","334","32","1461","0","test_block","poldrack-single-stim","168","258970","0.0-5.0-154.0","go-nogo","true","0","","true","<div class = centerbox><div  id = stim1></div></div>","32","32","750","","test","go","154","adv","","",""
"","358","32","1354","0","test_block","poldrack-single-stim","169","260450","0.0-5.0-155.0","go-nogo","true","0","","true","<div class = centerbox><div  id = stim1></div></div>","32","32","750","","test","go","155","adv","","",""
"","332","32","1102","0","test_block","poldrack-single-stim","170","261670","0.0-5.0-156.0","go-nogo","true","0","","true","<div class = centerbox><div  id = stim1></div></div>","32","32","750","","test","go","156","adv","","",""
"","375","32","1439","0","test_block","poldrack-single-stim","171","263229","0.0-5.0-157.0","go-nogo","true","0","","true","<div class = centerbox><div  id = stim1></div></div>","32","32","750","","test","go","157","adv","","",""
"","306","32","1330","0","test_block","poldrack-single-stim","172","264679","0.0-5.0-158.0","go-nogo","true","0","","true","<div class = centerbox><div  id = stim1></div></div>","32","32","750","","test","go","158","adv","","",""
"","328","32","1409","0","test_block","poldrack-single-stim","173","266209","0.0-5.0-159.0","go-nogo","true","0","","true","<div class = centerbox><div  id = stim1></div></div>","32","32","750","","test","go","159","adv","","",""
"","356","32","1340","0","test_block","poldrack-single-stim","174","267629","0.0-5.0-160.0","go-nogo","true","0","","false","<div class = centerbox><div  id = stim2></div></div>","-1","32","750","","test","nogo","160","adv","","",""
"","372","32","1421","0","test_block","poldrack-single-stim","175","269171","0.0-5.0-161.0","go-nogo","true","0","","true","<div class = centerbox><div  id = stim1></div></div>","32","32","750","","test","go","161","adv","","",""
"","347","32","1476","0","test_block","poldrack-single-stim","176","270770","0.0-5.0-162.0","go-nogo","true","0","","true","<div class = centerbox><div  id = stim1></div></div>","32","32","750","","test","go","162","adv","","",""
"","-1","-1","1216","0","test_block","poldrack-single-stim","177","272109","0.0-5.0-163.0","go-nogo","true","0","","true","<div class = centerbox><div  id = stim2></div></div>","-1","32","750","","test","nogo","163","adv","","",""
"","894","32","1450","0","test_block","poldrack-single-stim","178","273603","0.0-5.0-164.0","go-nogo","true","0","","true","<div class = centerbox><div  id = stim1></div></div>","32","32","750","","test","go","164","adv","","",""
"","337","32","1388","0","test_block","poldrack-single-stim","179","275040","0.0-5.0-165.0","go-nogo","true","0","","true","<div class = centerbox><div  id = stim1></div></div>","32","32","750","","test","go","165","adv","","",""
"","380","32","1173","0","test_block","poldrack-single-stim","180","276339","0.0-5.0-166.0","go-nogo","true","0","","false","<div class = centerbox><div  id = stim2></div></div>","-1","32","750","","test","nogo","166","adv","","",""
"","458","32","1184","0","test_block","poldrack-single-stim","181","277639","0.0-5.0-167.0","go-nogo","true","0","","true","<div class = centerbox><div  id = stim1></div></div>","32","32","750","","test","go","167","adv","","",""
"","401","32","1365","0","test_block","poldrack-single-stim","182","279130","0.0-5.0-168.0","go-nogo","true","0","","true","<div class = centerbox><div  id = stim1></div></div>","32","32","750","","test","go","168","adv","","",""
"","-1","-1","1166","0","test_block","poldrack-single-stim","183","280410","0.0-5.0-169.0","go-nogo","true","0","","true","<div class = centerbox><div  id = stim2></div></div>","-1","32","750","","test","nogo","169","adv","","",""
"","432","32","1168","0","test_block","poldrack-single-stim","184","281699","0.0-5.0-170.0","go-nogo","true","0","","true","<div class = centerbox><div  id = stim1></div></div>","32","32","750","","test","go","170","adv","","",""
"","436","32","1331","0","test_block","poldrack-single-stim","185","283118","0.0-5.0-171.0","go-nogo","true","0","","true","<div class = centerbox><div  id = stim1></div></div>","32","32","750","","test","go","171","adv","","",""
"","-1","-1","1092","0","test_block","poldrack-single-stim","186","284319","0.0-5.0-172.0","go-nogo","true","0","","true","<div class = centerbox><div  id = stim2></div></div>","-1","32","750","","test","nogo","172","adv","","",""
"","418","32","1385","0","test_block","poldrack-single-stim","187","285824","0.0-5.0-173.0","go-nogo","true","0","","true","<div class = centerbox><div  id = stim1></div></div>","32","32","750","","test","go","173","adv","","",""
"","407","32","1279","0","test_block","poldrack-single-stim","188","287229","0.0-5.0-174.0","go-nogo","true","0","","true","<div class = centerbox><div  id = stim1></div></div>","32","32","750","","test","go","174","adv","","",""
"","399","32","1063","0","test_block","poldrack-single-stim","189","288410","0.0-5.0-175.0","go-nogo","true","0","","true","<div class = centerbox><div  id = stim1></div></div>","32","32","750","","test","go","175","adv","","",""
"","382","32","1283","0","test_block","poldrack-single-stim","190","289809","0.0-5.0-176.0","go-nogo","true","0","","true","<div class = centerbox><div  id = stim1></div></div>","32","32","750","","test","go","176","adv","","",""
"","-1","-1","1283","0","test_block","poldrack-single-stim","191","291219","0.0-5.0-177.0","go-nogo","true","0","","true","<div class = centerbox><div  id = stim2></div></div>","-1","32","750","","test","nogo","177","adv","","",""
"","355","32","1186","0","test_block","poldrack-single-stim","192","292480","0.0-5.0-178.0","go-nogo","true","0","","true","<div class = centerbox><div  id = stim1></div></div>","32","32","750","","test","go","178","adv","","",""
"","354","32","1234","0","test_block","poldrack-single-stim","193","293820","0.0-5.0-179.0","go-nogo","true","0","","true","<div class = centerbox><div  id = stim1></div></div>","32","32","750","","test","go","179","adv","","",""
"","367","32","1344","0","test_block","poldrack-single-stim","194","295310","0.0-5.0-180.0","go-nogo","true","0","","true","<div class = centerbox><div  id = stim1></div></div>","32","32","750","","test","go","180","adv","","",""
"","379","32","1197","0","test_block","poldrack-single-stim","195","296629","0.0-5.0-181.0","go-nogo","true","0","","true","<div class = centerbox><div  id = stim1></div></div>","32","32","750","","test","go","181","adv","","",""
"","376","32","1181","0","test_block","poldrack-single-stim","196","297919","0.0-5.0-182.0","go-nogo","true","0","","true","<div class = centerbox><div  id = stim1></div></div>","32","32","750","","test","go","182","adv","","",""
"","343","32","1329","0","test_block","poldrack-single-stim","197","299328","0.0-5.0-183.0","go-nogo","true","0","","true","<div class = centerbox><div  id = stim1></div></div>","32","32","750","","test","go","183","adv","","",""
"","394","32","1335","0","test_block","poldrack-single-stim","198","300790","0.0-5.0-184.0","go-nogo","true","0","","true","<div class = centerbox><div  id = stim1></div></div>","32","32","750","","test","go","184","adv","","",""
"","350","32","1197","0","test_block","poldrack-single-stim","199","302109","0.0-5.0-185.0","go-nogo","true","0","","true","<div class = centerbox><div  id = stim1></div></div>","32","32","750","","test","go","185","adv","","",""
"","411","32","1068","0","test_block","poldrack-single-stim","200","303290","0.0-5.0-186.0","go-nogo","true","0","","true","<div class = centerbox><div  id = stim1></div></div>","32","32","750","","test","go","186","adv","","",""
"","-1","-1","1409","0","test_block","poldrack-single-stim","201","304810","0.0-5.0-187.0","go-nogo","true","0","","true","<div class = centerbox><div  id = stim2></div></div>","-1","32","750","","test","nogo","187","adv","","",""
"","351","32","1055","0","test_block","poldrack-single-stim","202","305980","0.0-5.0-188.0","go-nogo","true","0","","true","<div class = centerbox><div  id = stim1></div></div>","32","32","750","","test","go","188","adv","","",""
"","584","32","1398","0","test_block","poldrack-single-stim","203","307493","0.0-5.0-189.0","go-nogo","true","0","","true","<div class = centerbox><div  id = stim1></div></div>","32","32","750","","test","go","189","adv","","",""
"","481","32","1383","0","test_block","poldrack-single-stim","204","308950","0.0-5.0-190.0","go-nogo","true","0","","true","<div class = centerbox><div  id = stim1></div></div>","32","32","750","","test","go","190","adv","","",""
"","341","32","1306","0","test_block","poldrack-single-stim","205","310361","0.0-5.0-191.0","go-nogo","true","0","","true","<div class = centerbox><div  id = stim1></div></div>","32","32","750","","test","go","191","adv","","",""
"","494","32","1017","0","test_block","poldrack-single-stim","206","311450","0.0-5.0-192.0","go-nogo","true","0","","true","<div class = centerbox><div  id = stim1></div></div>","32","32","750","","test","go","192","adv","","",""
"","516","32","1303","0","test_block","poldrack-single-stim","207","312859","0.0-5.0-193.0","go-nogo","true","0","","true","<div class = centerbox><div  id = stim1></div></div>","32","32","750","","test","go","193","adv","","",""
"","326","32","1455","0","test_block","poldrack-single-stim","208","314419","0.0-5.0-194.0","go-nogo","true","0","","true","<div class = centerbox><div  id = stim1></div></div>","32","32","750","","test","go","194","adv","","",""
"","330","32","1333","0","test_block","poldrack-single-stim","209","315869","0.0-5.0-195.0","go-nogo","true","0","","true","<div class = centerbox><div  id = stim1></div></div>","32","32","750","","test","go","195","adv","","",""
"","322","32","1316","0","test_block","poldrack-single-stim","210","317290","0.0-5.0-196.0","go-nogo","true","0","","true","<div class = centerbox><div  id = stim1></div></div>","32","32","750","","test","go","196","adv","","",""
"","-1","-1","1069","0","test_block","poldrack-single-stim","211","318469","0.0-5.0-197.0","go-nogo","true","0","","true","<div class = centerbox><div  id = stim2></div></div>","-1","32","750","","test","nogo","197","adv","","",""
"","369","32","1113","0","test_block","poldrack-single-stim","212","319690","0.0-5.0-198.0","go-nogo","true","0","","true","<div class = centerbox><div  id = stim1></div></div>","32","32","750","","test","go","198","adv","","",""
"","299","32","1073","0","test_block","poldrack-single-stim","213","320879","0.0-5.0-199.0","go-nogo","true","0","","true","<div class = centerbox><div  id = stim1></div></div>","32","32","750","","test","go","199","adv","","",""
"","311","32","1054","0","test_block","poldrack-single-stim","214","322032","0.0-5.0-200.0","go-nogo","true","0","","true","<div class = centerbox><div  id = stim1></div></div>","32","32","750","","test","go","200","adv","","",""
"","307","32","1184","0","test_block","poldrack-single-stim","215","323299","0.0-5.0-201.0","go-nogo","true","0","","true","<div class = centerbox><div  id = stim1></div></div>","32","32","750","","test","go","201","adv","","",""
"","297","32","1163","0","test_block","poldrack-single-stim","216","324529","0.0-5.0-202.0","go-nogo","true","0","","true","<div class = centerbox><div  id = stim1></div></div>","32","32","750","","test","go","202","adv","","",""
"","329","32","1372","0","test_block","poldrack-single-stim","217","326029","0.0-5.0-203.0","go-nogo","true","0","","true","<div class = centerbox><div  id = stim1></div></div>","32","32","750","","test","go","203","adv","","",""
"","301","32","1453","0","test_block","poldrack-single-stim","218","327560","0.0-5.0-204.0","go-nogo","true","0","","true","<div class = centerbox><div  id = stim1></div></div>","32","32","750","","test","go","204","adv","","",""
"","336","32","1020","0","test_block","poldrack-single-stim","219","328649","0.0-5.0-205.0","go-nogo","true","0","","true","<div class = centerbox><div  id = stim1></div></div>","32","32","750","","test","go","205","adv","","",""
"","435","32","1265","0","test_block","poldrack-single-stim","220","330030","0.0-5.0-206.0","go-nogo","true","0","","true","<div class = centerbox><div  id = stim1></div></div>","32","32","750","","test","go","206","adv","","",""
"","-1","-1","1173","0","test_block","poldrack-single-stim","221","331329","0.0-5.0-207.0","go-nogo","true","0","","true","<div class = centerbox><div  id = stim2></div></div>","-1","32","750","","test","nogo","207","adv","","",""
"","322","32","1456","0","test_block","poldrack-single-stim","222","332910","0.0-5.0-208.0","go-nogo","true","0","","true","<div class = centerbox><div  id = stim1></div></div>","32","32","750","","test","go","208","adv","","",""
"","298","32","1261","0","test_block","poldrack-single-stim","223","334289","0.0-5.0-209.0","go-nogo","true","0","","true","<div class = centerbox><div  id = stim1></div></div>","32","32","750","","test","go","209","adv","","",""
"","316","32","1364","0","test_block","poldrack-single-stim","224","335770","0.0-5.0-210.0","go-nogo","true","0","","true","<div class = centerbox><div  id = stim1></div></div>","32","32","750","","test","go","210","adv","","",""
"","315","32","1496","0","test_block","poldrack-single-stim","225","337369","0.0-5.0-211.0","go-nogo","true","0","","true","<div class = centerbox><div  id = stim1></div></div>","32","32","750","","test","go","211","adv","","",""
"","480","32","1295","0","test_block","poldrack-single-stim","226","338779","0.0-5.0-212.0","go-nogo","true","0","","true","<div class = centerbox><div  id = stim1></div></div>","32","32","750","","test","go","212","adv","","",""
"","297","32","1349","0","test_block","poldrack-single-stim","227","340258","0.0-5.0-213.0","go-nogo","true","0","","true","<div class = centerbox><div  id = stim1></div></div>","32","32","750","","test","go","213","adv","","",""
"","305","32","1461","0","test_block","poldrack-single-stim","228","341839","0.0-5.0-214.0","go-nogo","true","0","","true","<div class = centerbox><div  id = stim1></div></div>","32","32","750","","test","go","214","adv","","",""
"","355","32","1225","0","test_block","poldrack-single-stim","229","343168","0.0-5.0-215.0","go-nogo","true","0","","true","<div class = centerbox><div  id = stim1></div></div>","32","32","750","","test","go","215","adv","","",""
"","401","32","1456","0","test_block","poldrack-single-stim","230","344689","0.0-5.0-216.0","go-nogo","true","0","","true","<div class = centerbox><div  id = stim1></div></div>","32","32","750","","test","go","216","adv","","",""
"","304","32","1352","0","test_block","poldrack-single-stim","231","346130","0.0-5.0-217.0","go-nogo","true","0","","true","<div class = centerbox><div  id = stim1></div></div>","32","32","750","","test","go","217","adv","","",""
"","321","32","1231","0","test_block","poldrack-single-stim","232","347479","0.0-5.0-218.0","go-nogo","true","0","","true","<div class = centerbox><div  id = stim1></div></div>","32","32","750","","test","go","218","adv","","",""
"","-1","-1","1080","0","test_block","poldrack-single-stim","233","348649","0.0-5.0-219.0","go-nogo","true","0","","true","<div class = centerbox><div  id = stim2></div></div>","-1","32","750","","test","nogo","219","adv","","",""
"","260","32","1417","0","test_block","poldrack-single-stim","234","350189","0.0-5.0-220.0","go-nogo","true","0","","true","<div class = centerbox><div  id = stim1></div></div>","32","32","750","","test","go","220","adv","","",""
"","444","32","1494","0","test_block","poldrack-single-stim","235","351790","0.0-5.0-221.0","go-nogo","true","0","","true","<div class = centerbox><div  id = stim1></div></div>","32","32","750","","test","go","221","adv","","",""
"","639","32","1306","0","test_block","poldrack-single-stim","236","353219","0.0-5.0-222.0","go-nogo","true","0","","true","<div class = centerbox><div  id = stim1></div></div>","32","32","750","","test","go","222","adv","","",""
"","421","32","1322","0","test_block","poldrack-single-stim","237","354659","0.0-5.0-223.0","go-nogo","true","0","","true","<div class = centerbox><div  id = stim1></div></div>","32","32","750","","test","go","223","adv","","",""
"","298","32","1357","0","test_block","poldrack-single-stim","238","356090","0.0-5.0-224.0","go-nogo","true","0","","true","<div class = centerbox><div  id = stim1></div></div>","32","32","750","","test","go","224","adv","","",""
"","399","32","1011","0","test_block","poldrack-single-stim","239","357220","0.0-5.0-225.0","go-nogo","true","0","","true","<div class = centerbox><div  id = stim1></div></div>","32","32","750","","test","go","225","adv","","",""
"","387","32","1463","0","test_block","poldrack-single-stim","240","358800","0.0-5.0-226.0","go-nogo","true","0","","true","<div class = centerbox><div  id = stim1></div></div>","32","32","750","","test","go","226","adv","","",""
"","353","32","1409","0","test_block","poldrack-single-stim","241","360309","0.0-5.0-227.0","go-nogo","true","0","","true","<div class = centerbox><div  id = stim1></div></div>","32","32","750","","test","go","227","adv","","",""
"","317","32","1022","0","test_block","poldrack-single-stim","242","361440","0.0-5.0-228.0","go-nogo","true","0","","true","<div class = centerbox><div  id = stim1></div></div>","32","32","750","","test","go","228","adv","","",""
"","493","32","1322","0","test_block","poldrack-single-stim","243","362849","0.0-5.0-229.0","go-nogo","true","0","","true","<div class = centerbox><div  id = stim1></div></div>","32","32","750","","test","go","229","adv","","",""
"","340","32","1149","0","test_block","poldrack-single-stim","244","364115","0.0-5.0-230.0","go-nogo","true","0","","true","<div class = centerbox><div  id = stim1></div></div>","32","32","750","","test","go","230","adv","","",""
"","-1","-1","1151","0","test_block","poldrack-single-stim","245","365374","0.0-5.0-231.0","go-nogo","true","0","","true","<div class = centerbox><div  id = stim2></div></div>","-1","32","750","","test","nogo","231","adv","","",""
"","334","32","1450","0","test_block","poldrack-single-stim","246","366930","0.0-5.0-232.0","go-nogo","true","0","","true","<div class = centerbox><div  id = stim1></div></div>","32","32","750","","test","go","232","adv","","",""
"","536","32","1480","0","test_block","poldrack-single-stim","247","368478","0.0-5.0-233.0","go-nogo","true","0","","true","<div class = centerbox><div  id = stim1></div></div>","32","32","750","","test","go","233","adv","","",""
"","330","32","1356","0","test_block","poldrack-single-stim","248","369949","0.0-5.0-234.0","go-nogo","true","0","","true","<div class = centerbox><div  id = stim1></div></div>","32","32","750","","test","go","234","adv","","",""
"","333","32","1451","0","test_block","poldrack-single-stim","249","371510","0.0-5.0-235.0","go-nogo","true","0","","true","<div class = centerbox><div  id = stim1></div></div>","32","32","750","","test","go","235","adv","","",""
"","323","32","1055","0","test_block","poldrack-single-stim","250","372689","0.0-5.0-236.0","go-nogo","true","0","","true","<div class = centerbox><div  id = stim1></div></div>","32","32","750","","test","go","236","adv","","",""
"","362","32","1007","0","test_block","poldrack-single-stim","251","373800","0.0-5.0-237.0","go-nogo","true","0","","true","<div class = centerbox><div  id = stim1></div></div>","32","32","750","","test","go","237","adv","","",""
"","351","32","1366","0","test_block","poldrack-single-stim","252","375280","0.0-5.0-238.0","go-nogo","true","0","","true","<div class = centerbox><div  id = stim1></div></div>","32","32","750","","test","go","238","adv","","",""
"","341","32","1265","0","test_block","poldrack-single-stim","253","376650","0.0-5.0-239.0","go-nogo","true","0","","true","<div class = centerbox><div  id = stim1></div></div>","32","32","750","","test","go","239","adv","","",""
"","366","32","1429","0","test_block","poldrack-single-stim","254","378201","0.0-5.0-240.0","go-nogo","true","0","","true","<div class = centerbox><div  id = stim1></div></div>","32","32","750","","test","go","240","adv","","",""
"","360","32","1215","0","test_block","poldrack-single-stim","255","379499","0.0-5.0-241.0","go-nogo","true","0","","true","<div class = centerbox><div  id = stim1></div></div>","32","32","750","","test","go","241","adv","","",""
"","382","32","1102","0","test_block","poldrack-single-stim","256","380710","0.0-5.0-242.0","go-nogo","true","0","","true","<div class = centerbox><div  id = stim1></div></div>","32","32","750","","test","go","242","adv","","",""
"","-1","-1","1242","0","test_block","poldrack-single-stim","257","382069","0.0-5.0-243.0","go-nogo","true","0","","true","<div class = centerbox><div  id = stim2></div></div>","-1","32","750","","test","nogo","243","adv","","",""
"","308","32","1481","0","test_block","poldrack-single-stim","258","383659","0.0-5.0-244.0","go-nogo","true","0","","true","<div class = centerbox><div  id = stim1></div></div>","32","32","750","","test","go","244","adv","","",""
"","356","32","1009","0","test_block","poldrack-single-stim","259","384789","0.0-5.0-245.0","go-nogo","true","0","","true","<div class = centerbox><div  id = stim1></div></div>","32","32","750","","test","go","245","adv","","",""
"","396","32","1196","0","test_block","poldrack-single-stim","260","386109","0.0-5.0-246.0","go-nogo","true","0","","true","<div class = centerbox><div  id = stim1></div></div>","32","32","750","","test","go","246","adv","","",""
"","362","32","1290","0","test_block","poldrack-single-stim","261","387489","0.0-5.0-247.0","go-nogo","true","0","","true","<div class = centerbox><div  id = stim1></div></div>","32","32","750","","test","go","247","adv","","",""
"","358","32","1341","0","test_block","poldrack-single-stim","262","388940","0.0-5.0-248.0","go-nogo","true","0","","true","<div class = centerbox><div  id = stim1></div></div>","32","32","750","","test","go","248","adv","","",""
"","325","32","1117","0","test_block","poldrack-single-stim","263","390169","0.0-5.0-249.0","go-nogo","true","0","","true","<div class = centerbox><div  id = stim1></div></div>","32","32","750","","test","go","249","adv","","",""
"","594","32","1238","0","test_block","poldrack-single-stim","264","391518","0.0-5.0-250.0","go-nogo","true","0","","true","<div class = centerbox><div  id = stim1></div></div>","32","32","750","","test","go","250","adv","","",""
"","751","32","1424","0","test_block","poldrack-single-stim","265","393060","0.0-5.0-251.0","go-nogo","true","0","","true","<div class = centerbox><div  id = stim1></div></div>","32","32","750","","test","go","251","adv","","",""
"","573","32","1452","0","test_block","poldrack-single-stim","266","394629","0.0-5.0-252.0","go-nogo","true","0","","true","<div class = centerbox><div  id = stim1></div></div>","32","32","750","","test","go","252","adv","","",""
"","382","32","1194","0","test_block","poldrack-single-stim","267","395929","0.0-5.0-253.0","go-nogo","true","0","","true","<div class = centerbox><div  id = stim1></div></div>","32","32","750","","test","go","253","adv","","",""
"","282","32","1432","0","test_block","poldrack-single-stim","268","397480","0.0-5.0-254.0","go-nogo","true","0","","true","<div class = centerbox><div  id = stim1></div></div>","32","32","750","","test","go","254","adv","","",""
"","310","32","1398","0","test_block","poldrack-single-stim","269","398990","0.0-5.0-255.0","go-nogo","true","0","","true","<div class = centerbox><div  id = stim1></div></div>","32","32","750","","test","go","255","adv","","",""
"","-1","-1","1269","0","test_block","poldrack-single-stim","270","400391","0.0-5.0-256.0","go-nogo","true","0","","true","<div class = centerbox><div  id = stim2></div></div>","-1","32","750","","test","nogo","256","adv","","",""
"","321","32","1171","0","test_block","poldrack-single-stim","271","401640","0.0-5.0-257.0","go-nogo","true","0","","true","<div class = centerbox><div  id = stim1></div></div>","32","32","750","","test","go","257","adv","","",""
"","311","32","1464","0","test_block","poldrack-single-stim","272","403219","0.0-5.0-258.0","go-nogo","true","0","","true","<div class = centerbox><div  id = stim1></div></div>","32","32","750","","test","go","258","adv","","",""
"","324","32","1127","0","test_block","poldrack-single-stim","273","404470","0.0-5.0-259.0","go-nogo","true","0","","true","<div class = centerbox><div  id = stim1></div></div>","32","32","750","","test","go","259","adv","","",""
"","403","32","1307","0","test_block","poldrack-single-stim","274","405880","0.0-5.0-260.0","go-nogo","true","0","","true","<div class = centerbox><div  id = stim1></div></div>","32","32","750","","test","go","260","adv","","",""
"","314","32","1003","0","test_block","poldrack-single-stim","275","407009","0.0-5.0-261.0","go-nogo","true","0","","true","<div class = centerbox><div  id = stim1></div></div>","32","32","750","","test","go","261","adv","","",""
"","345","32","1208","0","test_block","poldrack-single-stim","276","408330","0.0-5.0-262.0","go-nogo","true","0","","true","<div class = centerbox><div  id = stim1></div></div>","32","32","750","","test","go","262","adv","","",""
"","313","32","1256","0","test_block","poldrack-single-stim","277","409730","0.0-5.0-263.0","go-nogo","true","0","","true","<div class = centerbox><div  id = stim1></div></div>","32","32","750","","test","go","263","adv","","",""
"","308","32","1059","0","test_block","poldrack-single-stim","278","410900","0.0-5.0-264.0","go-nogo","true","0","","true","<div class = centerbox><div  id = stim1></div></div>","32","32","750","","test","go","264","adv","","",""
"","351","32","1168","0","test_block","poldrack-single-stim","279","412180","0.0-5.0-265.0","go-nogo","true","0","","true","<div class = centerbox><div  id = stim1></div></div>","32","32","750","","test","go","265","adv","","",""
"","326","32","1228","0","test_block","poldrack-single-stim","280","413529","0.0-5.0-266.0","go-nogo","true","0","","true","<div class = centerbox><div  id = stim1></div></div>","32","32","750","","test","go","266","adv","","",""
"","310","32","1176","0","test_block","poldrack-single-stim","281","414779","0.0-5.0-267.0","go-nogo","true","0","","true","<div class = centerbox><div  id = stim1></div></div>","32","32","750","","test","go","267","adv","","",""
"","-1","-1","1450","0","test_block","poldrack-single-stim","282","416349","0.0-5.0-268.0","go-nogo","true","0","","true","<div class = centerbox><div  id = stim2></div></div>","-1","32","750","","test","nogo","268","adv","","",""
"","298","32","1356","0","test_block","poldrack-single-stim","283","417808","0.0-5.0-269.0","go-nogo","true","0","","true","<div class = centerbox><div  id = stim1></div></div>","32","32","750","","test","go","269","adv","","",""
"","330","32","1276","0","test_block","poldrack-single-stim","284","419139","0.0-5.0-270.0","go-nogo","true","0","","true","<div class = centerbox><div  id = stim1></div></div>","32","32","750","","test","go","270","adv","","",""
"","321","32","1067","0","test_block","poldrack-single-stim","285","420330","0.0-5.0-271.0","go-nogo","true","0","","true","<div class = centerbox><div  id = stim1></div></div>","32","32","750","","test","go","271","adv","","",""
"","314","32","1296","0","test_block","poldrack-single-stim","286","421710","0.0-5.0-272.0","go-nogo","true","0","","true","<div class = centerbox><div  id = stim1></div></div>","32","32","750","","test","go","272","adv","","",""
"","316","32","1426","0","test_block","poldrack-single-stim","287","423250","0.0-5.0-273.0","go-nogo","true","0","","true","<div class = centerbox><div  id = stim1></div></div>","32","32","750","","test","go","273","adv","","",""
"","349","32","1309","0","test_block","poldrack-single-stim","288","424680","0.0-5.0-274.0","go-nogo","true","0","","true","<div class = centerbox><div  id = stim1></div></div>","32","32","750","","test","go","274","adv","","",""
"","328","32","1207","0","test_block","poldrack-single-stim","289","425999","0.0-5.0-275.0","go-nogo","true","0","","true","<div class = centerbox><div  id = stim1></div></div>","32","32","750","","test","go","275","adv","","",""
"","329","32","1307","0","test_block","poldrack-single-stim","290","427431","0.0-5.0-276.0","go-nogo","true","0","","true","<div class = centerbox><div  id = stim1></div></div>","32","32","750","","test","go","276","adv","","",""
"","333","32","1370","0","test_block","poldrack-single-stim","291","428879","0.0-5.0-277.0","go-nogo","true","0","","true","<div class = centerbox><div  id = stim1></div></div>","32","32","750","","test","go","277","adv","","",""
"","344","32","1377","0","test_block","poldrack-single-stim","292","430379","0.0-5.0-278.0","go-nogo","true","0","","true","<div class = centerbox><div  id = stim1></div></div>","32","32","750","","test","go","278","adv","","",""
"","295","32","1097","0","test_block","poldrack-single-stim","293","431581","0.0-5.0-279.0","go-nogo","true","0","","true","<div class = centerbox><div  id = stim1></div></div>","32","32","750","","test","go","279","adv","","",""
"","397","32","1278","0","test_block","poldrack-single-stim","294","432969","0.0-5.0-280.0","go-nogo","true","0","","true","<div class = centerbox><div  id = stim1></div></div>","32","32","750","","test","go","280","adv","","",""
"","335","32","1088","0","test_block","poldrack-single-stim","295","434169","0.0-5.0-281.0","go-nogo","true","0","","true","<div class = centerbox><div  id = stim1></div></div>","32","32","750","","test","go","281","adv","","",""
"","-1","-1","1394","0","test_block","poldrack-single-stim","296","435679","0.0-5.0-282.0","go-nogo","true","0","","true","<div class = centerbox><div  id = stim2></div></div>","-1","32","750","","test","nogo","282","adv","","",""
"","411","32","1489","0","test_block","poldrack-single-stim","297","437289","0.0-5.0-283.0","go-nogo","true","0","","true","<div class = centerbox><div  id = stim1></div></div>","32","32","750","","test","go","283","adv","","",""
"","318","32","1375","0","test_block","poldrack-single-stim","298","438779","0.0-5.0-284.0","go-nogo","true","0","","true","<div class = centerbox><div  id = stim1></div></div>","32","32","750","","test","go","284","adv","","",""
"","-1","-1","1153","0","test_block","poldrack-single-stim","299","440039","0.0-5.0-285.0","go-nogo","true","0","","false","<div class = centerbox><div  id = stim1></div></div>","32","32","750","","test","go","285","adv","","",""
"","324","32","1266","0","test_block","poldrack-single-stim","300","441420","0.0-5.0-286.0","go-nogo","true","0","","true","<div class = centerbox><div  id = stim1></div></div>","32","32","750","","test","go","286","adv","","",""
"","-1","-1","1119","0","test_block","poldrack-single-stim","301","442658","0.0-5.0-287.0","go-nogo","true","0","","true","<div class = centerbox><div  id = stim2></div></div>","-1","32","750","","test","nogo","287","adv","","",""
"","617","32","1277","0","test_block","poldrack-single-stim","302","444009","0.0-5.0-288.0","go-nogo","true","0","","true","<div class = centerbox><div  id = stim1></div></div>","32","32","750","","test","go","288","adv","","",""
"","-1","-1","1078","0","test_block","poldrack-single-stim","303","445170","0.0-5.0-289.0","go-nogo","true","0","","true","<div class = centerbox><div  id = stim2></div></div>","-1","32","750","","test","nogo","289","adv","","",""
"","459","32","1024","0","test_block","poldrack-single-stim","304","446309","0.0-5.0-290.0","go-nogo","true","0","","true","<div class = centerbox><div  id = stim1></div></div>","32","32","750","","test","go","290","adv","","",""
"","-1","-1","1333","0","test_block","poldrack-single-stim","305","447719","0.0-5.0-291.0","go-nogo","true","0","","true","<div class = centerbox><div  id = stim2></div></div>","-1","32","750","","test","nogo","291","adv","","",""
"","561","32","1476","0","test_block","poldrack-single-stim","306","449309","0.0-5.0-292.0","go-nogo","true","0","","true","<div class = centerbox><div  id = stim1></div></div>","32","32","750","","test","go","292","adv","","",""
"","-1","-1","1065","0","test_block","poldrack-single-stim","307","450479","0.0-5.0-293.0","go-nogo","true","0","","true","<div class = centerbox><div  id = stim2></div></div>","-1","32","750","","test","nogo","293","adv","","",""
"","412","32","1115","0","test_block","poldrack-single-stim","308","451700","0.0-5.0-294.0","go-nogo","true","0","","true","<div class = centerbox><div  id = stim1></div></div>","32","32","750","","test","go","294","adv","","",""
"","-1","-1","1483","0","test_block","poldrack-single-stim","309","453289","0.0-5.0-295.0","go-nogo","true","0","","true","<div class = centerbox><div  id = stim2></div></div>","-1","32","750","","test","nogo","295","adv","","",""
"","360","32","1202","0","test_block","poldrack-single-stim","310","454609","0.0-5.0-296.0","go-nogo","true","0","","true","<div class = centerbox><div  id = stim1></div></div>","32","32","750","","test","go","296","adv","","",""
"","-1","-1","1095","0","test_block","poldrack-single-stim","311","455819","0.0-5.0-297.0","go-nogo","true","0","","true","<div class = centerbox><div  id = stim2></div></div>","-1","32","750","","test","nogo","297","adv","","",""
"","394","32","1255","0","test_block","poldrack-single-stim","312","457180","0.0-5.0-298.0","go-nogo","true","0","","true","<div class = centerbox><div  id = stim1></div></div>","32","32","750","","test","go","298","adv","","",""
"","750","32","1484","0","test_block","poldrack-single-stim","313","458779","0.0-5.0-299.0","go-nogo","true","0","","false","<div class = centerbox><div  id = stim2></div></div>","-1","32","750","","test","nogo","299","adv","","",""
"","-1","-1","1042","0","test_block","poldrack-single-stim","314","459940","0.0-5.0-300.0","go-nogo","true","0","","true","<div class = centerbox><div  id = stim2></div></div>","-1","32","750","","test","nogo","300","adv","","",""
"","434","32","1060","0","test_block","poldrack-single-stim","315","461099","0.0-5.0-301.0","go-nogo","true","0","","true","<div class = centerbox><div  id = stim1></div></div>","32","32","750","","test","go","301","adv","","",""
"","-1","-1","1319","0","test_block","poldrack-single-stim","316","462539","0.0-5.0-302.0","go-nogo","true","0","","true","<div class = centerbox><div  id = stim2></div></div>","-1","32","750","","test","nogo","302","adv","","",""
"","398","32","1140","0","test_block","poldrack-single-stim","317","463798","0.0-5.0-303.0","go-nogo","true","0","","true","<div class = centerbox><div  id = stim1></div></div>","32","32","750","","test","go","303","adv","","",""
"","-1","-1","1112","0","test_block","poldrack-single-stim","318","465029","0.0-5.0-304.0","go-nogo","true","0","","true","<div class = centerbox><div  id = stim2></div></div>","-1","32","750","","test","nogo","304","adv","","",""
"","343","32","1231","0","test_block","poldrack-single-stim","319","466349","0.0-5.0-305.0","go-nogo","true","0","","true","<div class = centerbox><div  id = stim1></div></div>","32","32","750","","test","go","305","adv","","",""
"","351","32","1263","0","test_block","poldrack-single-stim","320","467719","0.0-5.0-306.0","go-nogo","true","0","","true","<div class = centerbox><div  id = stim1></div></div>","32","32","750","","test","go","306","adv","","",""
"","-1","-1","1015","0","test_block","poldrack-single-stim","321","468840","0.0-5.0-307.0","go-nogo","true","0","","true","<div class = centerbox><div  id = stim2></div></div>","-1","32","750","","test","nogo","307","adv","","",""
"","430","32","1213","0","test_block","poldrack-single-stim","322","470169","0.0-5.0-308.0","go-nogo","true","0","","true","<div class = centerbox><div  id = stim1></div></div>","32","32","750","","test","go","308","adv","","",""
"","440","32","1166","0","test_block","poldrack-single-stim","323","471429","0.0-5.0-309.0","go-nogo","true","0","","true","<div class = centerbox><div  id = stim1></div></div>","32","32","750","","test","go","309","adv","","",""
"","438","32","1181","0","test_block","poldrack-single-stim","324","472729","0.0-5.0-310.0","go-nogo","true","0","","true","<div class = centerbox><div  id = stim1></div></div>","32","32","750","","test","go","310","adv","","",""
"","-1","-1","1270","0","test_block","poldrack-single-stim","325","474109","0.0-5.0-311.0","go-nogo","true","0","","true","<div class = centerbox><div  id = stim2></div></div>","-1","32","750","","test","nogo","311","adv","","",""
"","369","32","1400","0","test_block","poldrack-single-stim","326","475629","0.0-5.0-312.0","go-nogo","true","0","","true","<div class = centerbox><div  id = stim1></div></div>","32","32","750","","test","go","312","adv","","",""
"","545","32","1227","0","test_block","poldrack-single-stim","327","476969","0.0-5.0-313.0","go-nogo","true","0","","true","<div class = centerbox><div  id = stim1></div></div>","32","32","750","","test","go","313","adv","","",""
"","445","32","1253","0","test_block","poldrack-single-stim","328","478331","0.0-5.0-314.0","go-nogo","true","0","","true","<div class = centerbox><div  id = stim1></div></div>","32","32","750","","test","go","314","adv","","",""
"","463","32","1457","0","test_block","poldrack-single-stim","329","479889","0.0-5.0-315.0","go-nogo","true","0","","true","<div class = centerbox><div  id = stim1></div></div>","32","32","750","","test","go","315","adv","","",""
"","-1","-1","1011","0","test_block","poldrack-single-stim","330","481010","0.0-5.0-316.0","go-nogo","true","0","","true","<div class = centerbox><div  id = stim2></div></div>","-1","32","750","","test","nogo","316","adv","","",""
"","430","32","1479","0","test_block","poldrack-single-stim","331","482599","0.0-5.0-317.0","go-nogo","true","0","","true","<div class = centerbox><div  id = stim1></div></div>","32","32","750","","test","go","317","adv","","",""
"","513","32","1086","0","test_block","poldrack-single-stim","332","483800","0.0-5.0-318.0","go-nogo","true","0","","true","<div class = centerbox><div  id = stim1></div></div>","32","32","750","","test","go","318","adv","","",""
"","596","32","1172","0","test_block","poldrack-single-stim","333","485079","0.0-5.0-319.0","go-nogo","true","0","","true","<div class = centerbox><div  id = stim1></div></div>","32","32","750","","test","go","319","adv","","",""
"","949","32","1018","0","test_block","poldrack-single-stim","334","486199","0.0-5.0-320.0","go-nogo","true","0","","true","<div class = centerbox><div  id = stim1></div></div>","32","32","750","","test","go","320","adv","","",""
"","428","32","1032","0","test_block","poldrack-single-stim","335","487339","0.0-5.0-321.0","go-nogo","true","0","","true","<div class = centerbox><div  id = stim1></div></div>","32","32","750","","test","go","321","adv","","",""
"","393","32","1024","0","test_block","poldrack-single-stim","336","488469","0.0-5.0-322.0","go-nogo","true","0","","true","<div class = centerbox><div  id = stim1></div></div>","32","32","750","","test","go","322","adv","","",""
"","391","32","1083","0","test_block","poldrack-single-stim","337","489629","0.0-5.0-323.0","go-nogo","true","0","","true","<div class = centerbox><div  id = stim1></div></div>","32","32","750","","test","go","323","adv","","",""
"","389","32","1271","0","test_block","poldrack-single-stim","338","491014","0.0-5.0-324.0","go-nogo","true","0","","true","<div class = centerbox><div  id = stim1></div></div>","32","32","750","","test","go","324","adv","","",""
"","-1","-1","1024","0","test_block","poldrack-single-stim","339","492160","0.0-5.0-325.0","go-nogo","true","0","","true","<div class = centerbox><div  id = stim2></div></div>","-1","32","750","","test","nogo","325","adv","","",""
"","410","32","1374","0","test_block","poldrack-single-stim","340","493640","0.0-5.0-326.0","go-nogo","true","0","","true","<div class = centerbox><div  id = stim1></div></div>","32","32","750","","test","go","326","adv","","",""
"","355","32","1003","0","test_block","poldrack-single-stim","341","494759","0.0-5.0-327.0","go-nogo","true","0","","true","<div class = centerbox><div  id = stim1></div></div>","32","32","750","","test","go","327","adv","","",""
"","457","32","1419","0","test_block","poldrack-single-stim","342","496288","0.0-5.0-328.0","go-nogo","true","0","","true","<div class = centerbox><div  id = stim1></div></div>","32","32","750","","test","go","328","adv","","",""
"","443","32","1351","0","test_block","poldrack-single-stim","343","497759","0.0-5.0-329.0","go-nogo","true","0","","true","<div class = centerbox><div  id = stim1></div></div>","32","32","750","","test","go","329","adv","","",""
"","354","32","1255","0","test_block","poldrack-single-stim","344","499129","0.0-5.0-330.0","go-nogo","true","0","","true","<div class = centerbox><div  id = stim1></div></div>","32","32","750","","test","go","330","adv","","",""
"","379","32","1007","0","test_block","poldrack-single-stim","345","500259","0.0-5.0-331.0","go-nogo","true","0","","true","<div class = centerbox><div  id = stim1></div></div>","32","32","750","","test","go","331","adv","","",""
"","409","32","1309","0","test_block","poldrack-single-stim","346","501669","0.0-5.0-332.0","go-nogo","true","0","","true","<div class = centerbox><div  id = stim1></div></div>","32","32","750","","test","go","332","adv","","",""
"","300","32","1358","0","test_block","poldrack-single-stim","347","503129","0.0-5.0-333.0","go-nogo","true","0","","true","<div class = centerbox><div  id = stim1></div></div>","32","32","750","","test","go","333","adv","","",""
"","324","32","1332","0","test_block","poldrack-single-stim","348","504570","0.0-5.0-334.0","go-nogo","true","0","","true","<div class = centerbox><div  id = stim1></div></div>","32","32","750","","test","go","334","adv","","",""
"","315","32","1161","0","test_block","poldrack-single-stim","349","505839","0.0-5.0-335.0","go-nogo","true","0","","true","<div class = centerbox><div  id = stim1></div></div>","32","32","750","","test","go","335","adv","","",""
"","418","32","1231","0","test_block","poldrack-single-stim","350","507189","0.0-5.0-336.0","go-nogo","true","0","","true","<div class = centerbox><div  id = stim1></div></div>","32","32","750","","test","go","336","adv","","",""
"","-1","-1","1099","0","test_block","poldrack-single-stim","351","508379","0.0-5.0-337.0","go-nogo","true","0","","true","<div class = centerbox><div  id = stim2></div></div>","-1","32","750","","test","nogo","337","adv","","",""
"","339","32","1265","0","test_block","poldrack-single-stim","352","509769","0.0-5.0-338.0","go-nogo","true","0","","true","<div class = centerbox><div  id = stim1></div></div>","32","32","750","","test","go","338","adv","","",""
"","345","32","1176","0","test_block","poldrack-single-stim","353","511049","0.0-5.0-339.0","go-nogo","true","0","","true","<div class = centerbox><div  id = stim1></div></div>","32","32","750","","test","go","339","adv","","",""
"","309","32","1110","0","test_block","poldrack-single-stim","354","512269","0.0-5.0-340.0","go-nogo","true","0","","true","<div class = centerbox><div  id = stim1></div></div>","32","32","750","","test","go","340","adv","","",""
"","338","32","1151","0","test_block","poldrack-single-stim","355","513500","0.0-5.0-341.0","go-nogo","true","0","","true","<div class = centerbox><div  id = stim1></div></div>","32","32","750","","test","go","341","adv","","",""
"","303","32","1333","0","test_block","poldrack-single-stim","356","514939","0.0-5.0-342.0","go-nogo","true","0","","true","<div class = centerbox><div  id = stim1></div></div>","32","32","750","","test","go","342","adv","","",""
"","305","32","1347","0","test_block","poldrack-single-stim","357","516399","0.0-5.0-343.0","go-nogo","true","0","","true","<div class = centerbox><div  id = stim1></div></div>","32","32","750","","test","go","343","adv","","",""
"","348","32","1337","0","test_block","poldrack-single-stim","358","517859","0.0-5.0-344.0","go-nogo","true","0","","true","<div class = centerbox><div  id = stim1></div></div>","32","32","750","","test","go","344","adv","","",""
"","-1","-1","1126","0","test_block","poldrack-single-stim","359","519088","0.0-5.0-345.0","go-nogo","true","0","","true","<div class = centerbox><div  id = stim2></div></div>","-1","32","750","","test","nogo","345","adv","","",""
"","-1","-1","1327","0","test_block","poldrack-single-stim","360","520509","0.0-5.0-346.0","go-nogo","true","0","","true","<div class = centerbox><div  id = stim2></div></div>","-1","32","750","","test","nogo","346","adv","","",""
"","-1","-1","1340","0","test_block","poldrack-single-stim","361","521969","0.0-5.0-347.0","go-nogo","true","0","","true","<div class = centerbox><div  id = stim2></div></div>","-1","32","750","","test","nogo","347","adv","","",""
"","-1","-1","1328","0","test_block","poldrack-single-stim","362","523389","0.0-5.0-348.0","go-nogo","true","0","","true","<div class = centerbox><div  id = stim2></div></div>","-1","32","750","","test","nogo","348","adv","","",""
"","-1","-1","1184","0","test_block","poldrack-single-stim","363","524698","0.0-5.0-349.0","go-nogo","true","0","","true","<div class = centerbox><div  id = stim2></div></div>","-1","32","750","","test","nogo","349","adv","","",""
"","40687","","","","post task questions","survey-text","364","565510","0.0-7.0","go-nogo","true","0","","","","","","","","","","","","{""Q0"":""I was asked to press the space bar when I saw orange and press nothing if I saw blue."",""Q1"":""Very fun!""}","",""
"<div class = centerbox><p class = center-block-text>Thanks for completing this task!</p><p class = center-block-text>Insert the following code to collect your payment at Amazon Mechanical Turk:</p><p class = center-block-text>726198317</p><p class = center-block-text>Press <strong>enter</strong> to continue.</p></div>","13229","13","13229","0","end","poldrack-text","365","579748","0.0-8.0","go-nogo","false","1","","","","","","","","","","","","","726198317","true"
