"text","rt","key_press","block_duration","timing_post_trial","trial_id","trial_type","trial_index","time_elapsed","internal_node_id","exp_id","full_screen","focus_shifts","view_history","correct","stimulus","correct_response","possible_responses","stim_duration","feedback_duration","exp_stage","condition","trial_num","mode","responses","payment_id","credit_var"
"<div class = centerbox><p class = center-block-text>Welcome to the experiment. This task will take around 10 minutes. Press <strong>enter</strong> to begin.</p></div>","5997","13","5997","0","instruction","poldrack-text","0","6001","0.0-0.0-0.0","go-nogo","true","0","","","","","","","","","","","","","",""
"","8895","","","","instruction","poldrack-instructions","1","14899","0.0-0.0-1.0","go-nogo","true","0","[{""page_index"":0,""viewing_time"":8894}]","","","","","","","","","","","","",""
"","-1","-1","1192","250","practice","poldrack-categorize","2","18099","0.0-1.0-0.0","go-nogo","true","0","","true","<div class = centerbox><div id = stim1></div></div>","-1","32","750","1000","practice","nogo","0","random","","",""
"","-1","-1","1305","250","practice","poldrack-categorize","3","20660","0.0-1.0-1.0","go-nogo","true","0","","true","<div class = centerbox><div id = stim1></div></div>","-1","32","750","1000","practice","nogo","1","random","","",""
"","-1","-1","1447","250","practice","poldrack-categorize","4","23364","0.0-1.0-2.0","go-nogo","true","0","","false","<div class = centerbox><div  id = stim2></div></div>","32","32","750","1000","practice","go","2","random","","",""
"","-1","-1","1312","250","practice","poldrack-categorize","5","25932","0.0-1.0-3.0","go-nogo","true","0","","false","<div class = centerbox><div  id = stim2></div></div>","32","32","750","1000","practice","go","3","random","","",""
"","-1","-1","1210","250","practice","poldrack-categorize","6","28398","0.0-1.0-4.0","go-nogo","true","0","","false","<div class = centerbox><div  id = stim2></div></div>","32","32","750","1000","practice","go","4","random","","",""
"","444","32","1468","250","practice","poldrack-categorize","7","31122","0.0-1.0-5.0","go-nogo","true","0","","true","<div class = centerbox><div  id = stim2></div></div>","32","32","750","1000","practice","go","5","random","","",""
"","350","32","1009","250","practice","poldrack-categorize","8","33386","0.0-1.0-6.0","go-nogo","true","0","","false","<div class = centerbox><div id = stim1></div></div>","-1","32","750","1000","practice","nogo","6","random","","",""
"","871","32","1225","250","practice","poldrack-categorize","9","35865","0.0-1.0-7.0","go-nogo","true","0","","true","<div class = centerbox><div  id = stim2></div></div>","32","32","750","1000","practice","go","7","random","","",""
"","-1","-1","1464","250","practice","poldrack-categorize","10","38584","0.0-1.0-8.0","go-nogo","true","0","","true","<div class = centerbox><div id = stim1></div></div>","-1","32","750","1000","practice","nogo","8","random","","",""
"","-1","-1","1109","250","practice","poldrack-categorize","11","40948","0.0-1.0-9.0","go-nogo","true","0","","true","<div class = centerbox><div id = stim1></div></div>","-1","32","750","1000","practice","nogo","9","random","","",""
"","","","","","reset_trial","call-function","12","41200","0.0-3.0","go-nogo","true","0","","","","","","","","","","","","","",""
"<div class = centerbox><p class = block-text>Practice is over, we will now begin the experiment. You will no longer get feedback about your responses.</p><p class = block-text>Remember, if you see the <font color=""blue"">blue</font> square you should <strong> respond by pressing the spacebar as quickly as possible</strong>. If you see the <font color=""orange"">orange</font> square you should <strong> not respond</strong>. Press <strong>enter</strong> to begin.</p></div>","17731","13","17731","1000","test_intro","poldrack-text","13","58933","0.0-4.0","go-nogo","true","0","","","","","","","","","","","","","",""
"","-1","-1","1414","0","test_block","poldrack-single-stim","14","61351","0.0-5.0-0.0","go-nogo","true","0","","false","<div class = centerbox><div  id = stim2></div></div>","32","32","750","","test","go","0","random","","",""
"","681","32","1077","0","test_block","poldrack-single-stim","15","62458","0.0-5.0-1.0","go-nogo","true","0","","true","<div class = centerbox><div  id = stim2></div></div>","32","32","750","","test","go","1","random","","",""
"","460","32","1264","0","test_block","poldrack-single-stim","16","63745","0.0-5.0-2.0","go-nogo","true","0","","true","<div class = centerbox><div  id = stim2></div></div>","32","32","750","","test","go","2","random","","",""
"","326","32","1461","0","test_block","poldrack-single-stim","17","65228","0.0-5.0-3.0","go-nogo","true","0","","true","<div class = centerbox><div  id = stim2></div></div>","32","32","750","","test","go","3","random","","",""
"","380","32","1266","0","test_block","poldrack-single-stim","18","66515","0.0-5.0-4.0","go-nogo","true","0","","true","<div class = centerbox><div  id = stim2></div></div>","32","32","750","","test","go","4","random","","",""
"","557","32","1074","0","test_block","poldrack-single-stim","19","67610","0.0-5.0-5.0","go-nogo","true","0","","true","<div class = centerbox><div  id = stim2></div></div>","32","32","750","","test","go","5","random","","",""
"","722","32","1436","0","test_block","poldrack-single-stim","20","69071","0.0-5.0-6.0","go-nogo","true","0","","true","<div class = centerbox><div  id = stim2></div></div>","32","32","750","","test","go","6","random","","",""
"","506","32","1082","0","test_block","poldrack-single-stim","21","70181","0.0-5.0-7.0","go-nogo","true","0","","true","<div class = centerbox><div  id = stim2></div></div>","32","32","750","","test","go","7","random","","",""
"","440","32","1326","0","test_block","poldrack-single-stim","22","71523","0.0-5.0-8.0","go-nogo","true","0","","true","<div class = centerbox><div  id = stim2></div></div>","32","32","750","","test","go","8","random","","",""
"","-1","-1","1049","0","test_block","poldrack-single-stim","23","72595","0.0-5.0-9.0","go-nogo","true","0","","true","<div class = centerbox><div  id = stim1></div></div>","-1","32","750","","test","nogo","9","random","","",""
"","-1","-1","1258","0","test_block","poldrack-single-stim","24","73874","0.0-5.0-10.0","go-nogo","true","0","","false","<div class = centerbox><div  id = stim2></div></div>","32","32","750","","test","go","10","random","","",""
"","590","32","1393","0","test_block","poldrack-single-stim","25","75280","0.0-5.0-11.0","go-nogo","true","0","","true","<div class = centerbox><div  id = stim2></div></div>","32","32","750","","test","go","11","random","","",""
"","319","32","1432","0","test_block","poldrack-single-stim","26","76727","0.0-5.0-12.0","go-nogo","true","0","","true","<div class = centerbox><div  id = stim2></div></div>","32","32","750","","test","go","12","random","","",""
"","355","32","1371","0","test_block","poldrack-single-stim","27","78118","0.0-5.0-13.0","go-nogo","true","0","","true","<div class = centerbox><div  id = stim2></div></div>","32","32","750","","test","go","13","random","","",""
"","-1","-1","1373","0","test_block","poldrack-single-stim","28","79503","0.0-5.0-14.0","go-nogo","true","0","","true","<div class = centerbox><div  id = stim1></div></div>","-1","32","750","","test","nogo","14","random","","",""
"","564","32","1298","0","test_block","poldrack-single-stim","29","80820","0.0-5.0-15.0","go-nogo","true","0","","true","<div class = centerbox><div  id = stim2></div></div>","32","32","750","","test","go","15","random","","",""
"","380","32","1216","0","test_block","poldrack-single-stim","30","82049","0.0-5.0-16.0","go-nogo","true","0","","true","<div class = centerbox><div  id = stim2></div></div>","32","32","750","","test","go","16","random","","",""
"","335","32","1436","0","test_block","poldrack-single-stim","31","83498","0.0-5.0-17.0","go-nogo","true","0","","true","<div class = centerbox><div  id = stim2></div></div>","32","32","750","","test","go","17","random","","",""
"","340","32","1339","0","test_block","poldrack-single-stim","32","84852","0.0-5.0-18.0","go-nogo","true","0","","true","<div class = centerbox><div  id = stim2></div></div>","32","32","750","","test","go","18","random","","",""
"","310","32","1182","0","test_block","poldrack-single-stim","33","86045","0.0-5.0-19.0","go-nogo","true","0","","true","<div class = centerbox><div  id = stim2></div></div>","32","32","750","","test","go","19","random","","",""
"","406","32","1403","0","test_block","poldrack-single-stim","34","87458","0.0-5.0-20.0","go-nogo","true","0","","true","<div class = centerbox><div  id = stim2></div></div>","32","32","750","","test","go","20","random","","",""
"","400","32","1056","0","test_block","poldrack-single-stim","35","88525","0.0-5.0-21.0","go-nogo","true","0","","true","<div class = centerbox><div  id = stim2></div></div>","32","32","750","","test","go","21","random","","",""
"","591","32","1300","0","test_block","poldrack-single-stim","36","89842","0.0-5.0-22.0","go-nogo","true","0","","true","<div class = centerbox><div  id = stim2></div></div>","32","32","750","","test","go","22","random","","",""
"","551","32","1099","0","test_block","poldrack-single-stim","37","90954","0.0-5.0-23.0","go-nogo","true","0","","true","<div class = centerbox><div  id = stim2></div></div>","32","32","750","","test","go","23","random","","",""
"","866","32","1339","0","test_block","poldrack-single-stim","38","92304","0.0-5.0-24.0","go-nogo","true","0","","true","<div class = centerbox><div  id = stim2></div></div>","32","32","750","","test","go","24","random","","",""
"","554","32","1477","0","test_block","poldrack-single-stim","39","93794","0.0-5.0-25.0","go-nogo","true","0","","true","<div class = centerbox><div  id = stim2></div></div>","32","32","750","","test","go","25","random","","",""
"","393","32","1487","0","test_block","poldrack-single-stim","40","95293","0.0-5.0-26.0","go-nogo","true","0","","true","<div class = centerbox><div  id = stim2></div></div>","32","32","750","","test","go","26","random","","",""
"","366","32","1363","0","test_block","poldrack-single-stim","41","96668","0.0-5.0-27.0","go-nogo","true","0","","true","<div class = centerbox><div  id = stim2></div></div>","32","32","750","","test","go","27","random","","",""
"","290","32","1116","0","test_block","poldrack-single-stim","42","97809","0.0-5.0-28.0","go-nogo","true","0","","true","<div class = centerbox><div  id = stim2></div></div>","32","32","750","","test","go","28","random","","",""
"","649","32","1271","0","test_block","poldrack-single-stim","43","99091","0.0-5.0-29.0","go-nogo","true","0","","true","<div class = centerbox><div  id = stim2></div></div>","32","32","750","","test","go","29","random","","",""
"","648","32","1041","0","test_block","poldrack-single-stim","44","100144","0.0-5.0-30.0","go-nogo","true","0","","true","<div class = centerbox><div  id = stim2></div></div>","32","32","750","","test","go","30","random","","",""
"","738","32","1000","0","test_block","poldrack-single-stim","45","101157","0.0-5.0-31.0","go-nogo","true","0","","true","<div class = centerbox><div  id = stim2></div></div>","32","32","750","","test","go","31","random","","",""
"","763","32","1434","0","test_block","poldrack-single-stim","46","102599","0.0-5.0-32.0","go-nogo","true","0","","true","<div class = centerbox><div  id = stim2></div></div>","32","32","750","","test","go","32","random","","",""
"","517","32","1399","0","test_block","poldrack-single-stim","47","104007","0.0-5.0-33.0","go-nogo","true","0","","true","<div class = centerbox><div  id = stim2></div></div>","32","32","750","","test","go","33","random","","",""
"","329","32","1394","0","test_block","poldrack-single-stim","48","105416","0.0-5.0-34.0","go-nogo","true","0","","true","<div class = centerbox><div  id = stim2></div></div>","32","32","750","","test","go","34","random","","",""
"","673","32","1046","0","test_block","poldrack-single-stim","49","106469","0.0-5.0-35.0","go-nogo","true","0","","true","<div class = centerbox><div  id = stim2></div></div>","32","32","750","","test","go","35","random","","",""
"","539","32","1097","0","test_block","poldrack-single-stim","50","107572","0.0-5.0-36.0","go-nogo","true","0","","true","<div class = centerbox><div  id = stim2></div></div>","32","32","750","","test","go","36","random","","",""
"","454","32","1044","0","test_block","poldrack-single-stim","51","108629","0.0-5.0-37.0","go-nogo","true","0","","true","<div class = centerbox><div  id = stim2></div></div>","32","32","750","","test","go","37","random","","",""
"","520","32","1457","0","test_block","poldrack-single-stim","52","110097","0.0-5.0-38.0","go-nogo","true","0","","true","<div class = centerbox><div  id = stim2></div></div>","32","32","750","","test","go","38","random","","",""
"","376","32","1402","0","test_block","poldrack-single-stim","53","111512","0.0-5.0-39.0","go-nogo","true","0","","true","<div class = centerbox><div  id = stim2></div></div>","32","32","750","","test","go","39","random","","",""
"","292","32","1192","0","test_block","poldrack-single-stim","54","112713","0.0-5.0-40.0","go-nogo","true","0","","true","<div class = centerbox><div  id = stim2></div></div>","32","32","750","","test","go","40","random","","",""
"","601","32","1259","0","test_block","poldrack-single-stim","55","113983","0.0-5.0-41.0","go-nogo","true","0","","true","<div class = centerbox><div  id = stim2></div></div>","32","32","750","","test","go","41","random","","",""
"","396","32","1169","0","test_block","poldrack-single-stim","56","115163","0.0-5.0-42.0","go-nogo","true","0","","true","<div class = centerbox><div  id = stim2></div></div>","32","32","750","","test","go","42","random","","",""
"","359","32","1165","0","test_block","poldrack-single-stim","57","116339","0.0-5.0-43.0","go-nogo","true","0","","true","<div class = centerbox><div  id = stim2></div></div>","32","32","750","","test","go","43","random","","",""
"","364","32","1054","0","test_block","poldrack-single-stim","58","117408","0.0-5.0-44.0","go-nogo","true","0","","true","<div class = centerbox><div  id = stim2></div></div>","32","32","750","","test","go","44","random","","",""
"","475","32","1364","0","test_block","poldrack-single-stim","59","118782","0.0-5.0-45.0","go-nogo","true","0","","true","<div class = centerbox><div  id = stim2></div></div>","32","32","750","","test","go","45","random","","",""
"","239","32","1196","0","test_block","poldrack-single-stim","60","119986","0.0-5.0-46.0","go-nogo","true","0","","true","<div class = centerbox><div  id = stim2></div></div>","32","32","750","","test","go","46","random","","",""
"","352","32","1245","0","test_block","poldrack-single-stim","61","121242","0.0-5.0-47.0","go-nogo","true","0","","true","<div class = centerbox><div  id = stim2></div></div>","32","32","750","","test","go","47","random","","",""
"","284","32","1205","0","test_block","poldrack-single-stim","62","122455","0.0-5.0-48.0","go-nogo","true","0","","false","<div class = centerbox><div  id = stim1></div></div>","-1","32","750","","test","nogo","48","random","","",""
"","520","32","1084","0","test_block","poldrack-single-stim","63","123546","0.0-5.0-49.0","go-nogo","true","0","","true","<div class = centerbox><div  id = stim2></div></div>","32","32","750","","test","go","49","random","","",""
"","553","32","1181","0","test_block","poldrack-single-stim","64","124737","0.0-5.0-50.0","go-nogo","true","0","","true","<div class = centerbox><div  id = stim2></div></div>","32","32","750","","test","go","50","random","","",""
"","436","32","1360","0","test_block","poldrack-single-stim","65","126107","0.0-5.0-51.0","go-nogo","true","0","","true","<div class = centerbox><div  id = stim2></div></div>","32","32","750","","test","go","51","random","","",""
"","318","32","1441","0","test_block","poldrack-single-stim","66","127560","0.0-5.0-52.0","go-nogo","true","0","","true","<div class = centerbox><div  id = stim2></div></div>","32","32","750","","test","go","52","random","","",""
"","405","32","1082","0","test_block","poldrack-single-stim","67","128667","0.0-5.0-53.0","go-nogo","true","0","","true","<div class = centerbox><div  id = stim2></div></div>","32","32","750","","test","go","53","random","","",""
"","552","32","1398","0","test_block","poldrack-single-stim","68","130084","0.0-5.0-54.0","go-nogo","true","0","","true","<div class = centerbox><div  id = stim2></div></div>","32","32","750","","test","go","54","random","","",""
"","-1","-1","1088","0","test_block","poldrack-single-stim","69","131183","0.0-5.0-55.0","go-nogo","true","0","","false","<div class = centerbox><div  id = stim2></div></div>","32","32","750","","test","go","55","random","","",""
"","142","32","1257","0","test_block","poldrack-single-stim","70","132448","0.0-5.0-56.0","go-nogo","true","0","","false","<div class = centerbox><div  id = stim1></div></div>","-1","32","750","","test","nogo","56","random","","",""
"","286","32","1414","0","test_block","poldrack-single-stim","71","133869","0.0-5.0-57.0","go-nogo","true","0","","true","<div class = centerbox><div  id = stim2></div></div>","32","32","750","","test","go","57","random","","",""
"","391","32","1274","0","test_block","poldrack-single-stim","72","135152","0.0-5.0-58.0","go-nogo","true","0","","true","<div class = centerbox><div  id = stim2></div></div>","32","32","750","","test","go","58","random","","",""
"","380","32","1332","0","test_block","poldrack-single-stim","73","136494","0.0-5.0-59.0","go-nogo","true","0","","true","<div class = centerbox><div  id = stim2></div></div>","32","32","750","","test","go","59","random","","",""
"","602","32","1033","0","test_block","poldrack-single-stim","74","137541","0.0-5.0-60.0","go-nogo","true","0","","true","<div class = centerbox><div  id = stim2></div></div>","32","32","750","","test","go","60","random","","",""
"","535","32","1443","0","test_block","poldrack-single-stim","75","138994","0.0-5.0-61.0","go-nogo","true","0","","true","<div class = centerbox><div  id = stim2></div></div>","32","32","750","","test","go","61","random","","",""
"","387","32","1247","0","test_block","poldrack-single-stim","76","140248","0.0-5.0-62.0","go-nogo","true","0","","true","<div class = centerbox><div  id = stim2></div></div>","32","32","750","","test","go","62","random","","",""
"","337","32","1039","0","test_block","poldrack-single-stim","77","141300","0.0-5.0-63.0","go-nogo","true","0","","true","<div class = centerbox><div  id = stim2></div></div>","32","32","750","","test","go","63","random","","",""
"","634","32","1334","0","test_block","poldrack-single-stim","78","142643","0.0-5.0-64.0","go-nogo","true","0","","true","<div class = centerbox><div  id = stim2></div></div>","32","32","750","","test","go","64","random","","",""
"","371","32","1122","0","test_block","poldrack-single-stim","79","143773","0.0-5.0-65.0","go-nogo","true","0","","true","<div class = centerbox><div  id = stim2></div></div>","32","32","750","","test","go","65","random","","",""
"","387","32","1456","0","test_block","poldrack-single-stim","80","145242","0.0-5.0-66.0","go-nogo","true","0","","true","<div class = centerbox><div  id = stim2></div></div>","32","32","750","","test","go","66","random","","",""
"","370","32","1443","0","test_block","poldrack-single-stim","81","146696","0.0-5.0-67.0","go-nogo","true","0","","true","<div class = centerbox><div  id = stim2></div></div>","32","32","750","","test","go","67","random","","",""
"","414","32","1185","0","test_block","poldrack-single-stim","82","147889","0.0-5.0-68.0","go-nogo","true","0","","true","<div class = centerbox><div  id = stim2></div></div>","32","32","750","","test","go","68","random","","",""
"","412","32","1068","0","test_block","poldrack-single-stim","83","148965","0.0-5.0-69.0","go-nogo","true","0","","true","<div class = centerbox><div  id = stim2></div></div>","32","32","750","","test","go","69","random","","",""
"","556","32","1412","0","test_block","poldrack-single-stim","84","150391","0.0-5.0-70.0","go-nogo","true","0","","true","<div class = centerbox><div  id = stim2></div></div>","32","32","750","","test","go","70","random","","",""
"","462","32","1293","0","test_block","poldrack-single-stim","85","151692","0.0-5.0-71.0","go-nogo","true","0","","true","<div class = centerbox><div  id = stim2></div></div>","32","32","750","","test","go","71","random","","",""
"","425","32","1297","0","test_block","poldrack-single-stim","86","152999","0.0-5.0-72.0","go-nogo","true","0","","true","<div class = centerbox><div  id = stim2></div></div>","32","32","750","","test","go","72","random","","",""
"","391","32","1111","0","test_block","poldrack-single-stim","87","154119","0.0-5.0-73.0","go-nogo","true","0","","true","<div class = centerbox><div  id = stim2></div></div>","32","32","750","","test","go","73","random","","",""
"","417","32","1034","0","test_block","poldrack-single-stim","88","155158","0.0-5.0-74.0","go-nogo","true","0","","true","<div class = centerbox><div  id = stim2></div></div>","32","32","750","","test","go","74","random","","",""
"","559","32","1047","0","test_block","poldrack-single-stim","89","156214","0.0-5.0-75.0","go-nogo","true","0","","true","<div class = centerbox><div  id = stim2></div></div>","32","32","750","","test","go","75","random","","",""
"","681","32","1131","0","test_block","poldrack-single-stim","90","157353","0.0-5.0-76.0","go-nogo","true","0","","true","<div class = centerbox><div  id = stim2></div></div>","32","32","750","","test","go","76","random","","",""
"","842","32","1276","0","test_block","poldrack-single-stim","91","158639","0.0-5.0-77.0","go-nogo","true","0","","true","<div class = centerbox><div  id = stim2></div></div>","32","32","750","","test","go","77","random","","",""
"","607","32","1401","0","test_block","poldrack-single-stim","92","160049","0.0-5.0-78.0","go-nogo","true","0","","true","<div class = centerbox><div  id = stim2></div></div>","32","32","750","","test","go","78","random","","",""
"","637","32","1427","0","test_block","poldrack-single-stim","93","161483","0.0-5.0-79.0","go-nogo","true","0","","true","<div class = centerbox><div  id = stim2></div></div>","32","32","750","","test","go","79","random","","",""
"","619","32","1235","0","test_block","poldrack-single-stim","94","162727","0.0-5.0-80.0","go-nogo","true","0","","true","<div class = centerbox><div  id = stim2></div></div>","32","32","750","","test","go","80","random","","",""
"","455","32","1437","0","test_block","poldrack-single-stim","95","164172","0.0-5.0-81.0","go-nogo","true","0","","true","<div class = centerbox><div  id = stim2></div></div>","32","32","750","","test","go","81","random","","",""
"","378","32","1308","0","test_block","poldrack-single-stim","96","165487","0.0-5.0-82.0","go-nogo","true","0","","true","<div class = centerbox><div  id = stim2></div></div>","32","32","750","","test","go","82","random","","",""
"","343","32","1410","0","test_block","poldrack-single-stim","97","166913","0.0-5.0-83.0","go-nogo","true","0","","false","<div class = centerbox><div  id = stim1></div></div>","-1","32","750","","test","nogo","83","random","","",""
"","380","32","1421","0","test_block","poldrack-single-stim","98","168342","0.0-5.0-84.0","go-nogo","true","0","","true","<div class = centerbox><div  id = stim2></div></div>","32","32","750","","test","go","84","random","","",""
"","287","32","1013","0","test_block","poldrack-single-stim","99","169363","0.0-5.0-85.0","go-nogo","true","0","","true","<div class = centerbox><div  id = stim2></div></div>","32","32","750","","test","go","85","random","","",""
"","345","32","1216","0","test_block","poldrack-single-stim","100","170589","0.0-5.0-86.0","go-nogo","true","0","","true","<div class = centerbox><div  id = stim2></div></div>","32","32","750","","test","go","86","random","","",""
"","266","32","1309","0","test_block","poldrack-single-stim","101","171906","0.0-5.0-87.0","go-nogo","true","0","","true","<div class = centerbox><div  id = stim2></div></div>","32","32","750","","test","go","87","random","","",""
"","220","32","1137","0","test_block","poldrack-single-stim","102","173051","0.0-5.0-88.0","go-nogo","true","0","","true","<div class = centerbox><div  id = stim2></div></div>","32","32","750","","test","go","88","random","","",""
"","212","32","1080","0","test_block","poldrack-single-stim","103","174137","0.0-5.0-89.0","go-nogo","true","0","","true","<div class = centerbox><div  id = stim2></div></div>","32","32","750","","test","go","89","random","","",""
"","288","32","1322","0","test_block","poldrack-single-stim","104","175465","0.0-5.0-90.0","go-nogo","true","0","","true","<div class = centerbox><div  id = stim2></div></div>","32","32","750","","test","go","90","random","","",""
"","84","32","1130","0","test_block","poldrack-single-stim","105","176604","0.0-5.0-91.0","go-nogo","true","0","","true","<div class = centerbox><div  id = stim2></div></div>","32","32","750","","test","go","91","random","","",""
"","290","32","1268","0","test_block","poldrack-single-stim","106","177880","0.0-5.0-92.0","go-nogo","true","0","","true","<div class = centerbox><div  id = stim2></div></div>","32","32","750","","test","go","92","random","","",""
"","94","32","1321","0","test_block","poldrack-single-stim","107","179209","0.0-5.0-93.0","go-nogo","true","0","","true","<div class = centerbox><div  id = stim2></div></div>","32","32","750","","test","go","93","random","","",""
"","268","32","1202","0","test_block","poldrack-single-stim","108","180420","0.0-5.0-94.0","go-nogo","true","0","","true","<div class = centerbox><div  id = stim2></div></div>","32","32","750","","test","go","94","random","","",""
"","164","32","1249","0","test_block","poldrack-single-stim","109","181678","0.0-5.0-95.0","go-nogo","true","0","","true","<div class = centerbox><div  id = stim2></div></div>","32","32","750","","test","go","95","random","","",""
"","176","32","1107","0","test_block","poldrack-single-stim","110","182800","0.0-5.0-96.0","go-nogo","true","0","","true","<div class = centerbox><div  id = stim2></div></div>","32","32","750","","test","go","96","random","","",""
"","292","32","1222","0","test_block","poldrack-single-stim","111","184031","0.0-5.0-97.0","go-nogo","true","0","","false","<div class = centerbox><div  id = stim1></div></div>","-1","32","750","","test","nogo","97","random","","",""
"","316","32","1306","0","test_block","poldrack-single-stim","112","185347","0.0-5.0-98.0","go-nogo","true","0","","true","<div class = centerbox><div  id = stim2></div></div>","32","32","750","","test","go","98","random","","",""
"","257","32","1153","0","test_block","poldrack-single-stim","113","186509","0.0-5.0-99.0","go-nogo","true","0","","true","<div class = centerbox><div  id = stim2></div></div>","32","32","750","","test","go","99","random","","",""
"","345","32","1264","0","test_block","poldrack-single-stim","114","187780","0.0-5.0-100.0","go-nogo","true","0","","true","<div class = centerbox><div  id = stim2></div></div>","32","32","750","","test","go","100","random","","",""
"","241","32","1443","0","test_block","poldrack-single-stim","115","189231","0.0-5.0-101.0","go-nogo","true","0","","true","<div class = centerbox><div  id = stim2></div></div>","32","32","750","","test","go","101","random","","",""
"","53","32","1369","0","test_block","poldrack-single-stim","116","190609","0.0-5.0-102.0","go-nogo","true","0","","true","<div class = centerbox><div  id = stim2></div></div>","32","32","750","","test","go","102","random","","",""
"","268","32","1157","0","test_block","poldrack-single-stim","117","191774","0.0-5.0-103.0","go-nogo","true","0","","true","<div class = centerbox><div  id = stim2></div></div>","32","32","750","","test","go","103","random","","",""
"","455","32","1304","0","test_block","poldrack-single-stim","118","193088","0.0-5.0-104.0","go-nogo","true","0","","true","<div class = centerbox><div  id = stim2></div></div>","32","32","750","","test","go","104","random","","",""
"","524","32","1108","0","test_block","poldrack-single-stim","119","194205","0.0-5.0-105.0","go-nogo","true","0","","true","<div class = centerbox><div  id = stim2></div></div>","32","32","750","","test","go","105","random","","",""
"","-1","-1","1488","0","test_block","poldrack-single-stim","120","195702","0.0-5.0-106.0","go-nogo","true","0","","true","<div class = centerbox><div  id = stim1></div></div>","-1","32","750","","test","nogo","106","random","","",""
"","417","32","1342","0","test_block","poldrack-single-stim","121","197066","0.0-5.0-107.0","go-nogo","true","0","","true","<div class = centerbox><div  id = stim2></div></div>","32","32","750","","test","go","107","random","","",""
"","653","32","1126","0","test_block","poldrack-single-stim","122","198198","0.0-5.0-108.0","go-nogo","true","0","","true","<div class = centerbox><div  id = stim2></div></div>","32","32","750","","test","go","108","random","","",""
"","524","32","1224","0","test_block","poldrack-single-stim","123","199434","0.0-5.0-109.0","go-nogo","true","0","","true","<div class = centerbox><div  id = stim2></div></div>","32","32","750","","test","go","109","random","","",""
"","451","32","1060","0","test_block","poldrack-single-stim","124","200503","0.0-5.0-110.0","go-nogo","true","0","","true","<div class = centerbox><div  id = stim2></div></div>","32","32","750","","test","go","110","random","","",""
"","550","32","1355","0","test_block","poldrack-single-stim","125","201866","0.0-5.0-111.0","go-nogo","true","0","","true","<div class = centerbox><div  id = stim2></div></div>","32","32","750","","test","go","111","random","","",""
"","330","32","1053","0","test_block","poldrack-single-stim","126","202928","0.0-5.0-112.0","go-nogo","true","0","","true","<div class = centerbox><div  id = stim2></div></div>","32","32","750","","test","go","112","random","","",""
"","513","32","1489","0","test_block","poldrack-single-stim","127","204428","0.0-5.0-113.0","go-nogo","true","0","","true","<div class = centerbox><div  id = stim2></div></div>","32","32","750","","test","go","113","random","","",""
"","389","32","1193","0","test_block","poldrack-single-stim","128","205634","0.0-5.0-114.0","go-nogo","true","0","","true","<div class = centerbox><div  id = stim2></div></div>","32","32","750","","test","go","114","random","","",""
"","403","32","1368","0","test_block","poldrack-single-stim","129","207010","0.0-5.0-115.0","go-nogo","true","0","","true","<div class = centerbox><div  id = stim2></div></div>","32","32","750","","test","go","115","random","","",""
"","370","32","1070","0","test_block","poldrack-single-stim","130","208089","0.0-5.0-116.0","go-nogo","true","0","","true","<div class = centerbox><div  id = stim2></div></div>","32","32","750","","test","go","116","random","","",""
"","391","32","1120","0","test_block","poldrack-single-stim","131","209214","0.0-5.0-117.0","go-nogo","true","0","","true","<div class = centerbox><div  id = stim2></div></div>","32","32","750","","test","go","117","random","","",""
"","365","32","1357","0","test_block","poldrack-single-stim","132","210581","0.0-5.0-118.0","go-nogo","true","0","","true","<div class = centerbox><div  id = stim2></div></div>","32","32","750","","test","go","118","random","","",""
"","320","32","1408","0","test_block","poldrack-single-stim","133","211997","0.0-5.0-119.0","go-nogo","true","0","","true","<div class = centerbox><div  id = stim2></div></div>","32","32","750","","test","go","119","random","","",""
"","249","32","1319","0","test_block","poldrack-single-stim","134","213326","0.0-5.0-120.0","go-nogo","true","0","","true","<div class = centerbox><div  id = stim2></div></div>","32","32","750","","test","go","120","random","","",""
"","337","32","1215","0","test_block","poldrack-single-stim","135","214548","0.0-5.0-121.0","go-nogo","true","0","","true","<div class = centerbox><div  id = stim2></div></div>","32","32","750","","test","go","121","random","","",""
"","277","32","1286","0","test_block","poldrack-single-stim","136","215847","0.0-5.0-122.0","go-nogo","true","0","","true","<div class = centerbox><div  id = stim2></div></div>","32","32","750","","test","go","122","random","","",""
"","303","32","1091","0","test_block","poldrack-single-stim","137","216947","0.0-5.0-123.0","go-nogo","true","0","","true","<div class = centerbox><div  id = stim2></div></div>","32","32","750","","test","go","123","random","","",""
"","324","32","1349","0","test_block","poldrack-single-stim","138","218304","0.0-5.0-124.0","go-nogo","true","0","","true","<div class = centerbox><div  id = stim2></div></div>","32","32","750","","test","go","124","random","","",""
"","228","32","1480","0","test_block","poldrack-single-stim","139","219794","0.0-5.0-125.0","go-nogo","true","0","","false","<div class = centerbox><div  id = stim1></div></div>","-1","32","750","","test","nogo","125","random","","",""
"","421","32","1295","0","test_block","poldrack-single-stim","140","221097","0.0-5.0-126.0","go-nogo","true","0","","true","<div class = centerbox><div  id = stim2></div></div>","32","32","750","","test","go","126","random","","",""
"","694","32","1431","0","test_block","poldrack-single-stim","141","222535","0.0-5.0-127.0","go-nogo","true","0","","true","<div class = centerbox><div  id = stim2></div></div>","32","32","750","","test","go","127","random","","",""
"","368","32","1411","0","test_block","poldrack-single-stim","142","223954","0.0-5.0-128.0","go-nogo","true","0","","true","<div class = centerbox><div  id = stim2></div></div>","32","32","750","","test","go","128","random","","",""
"","772","32","1115","0","test_block","poldrack-single-stim","143","225077","0.0-5.0-129.0","go-nogo","true","0","","true","<div class = centerbox><div  id = stim2></div></div>","32","32","750","","test","go","129","random","","",""
"","-1","-1","1269","0","test_block","poldrack-single-stim","144","226366","0.0-5.0-130.0","go-nogo","true","0","","false","<div class = centerbox><div  id = stim2></div></div>","32","32","750","","test","go","130","random","","",""
"","352","32","1299","0","test_block","poldrack-single-stim","145","227673","0.0-5.0-131.0","go-nogo","true","0","","true","<div class = centerbox><div  id = stim2></div></div>","32","32","750","","test","go","131","random","","",""
"","351","32","1122","0","test_block","poldrack-single-stim","146","228820","0.0-5.0-132.0","go-nogo","true","0","","true","<div class = centerbox><div  id = stim2></div></div>","32","32","750","","test","go","132","random","","",""
"","497","32","1345","0","test_block","poldrack-single-stim","147","230174","0.0-5.0-133.0","go-nogo","true","0","","true","<div class = centerbox><div  id = stim2></div></div>","32","32","750","","test","go","133","random","","",""
"","423","32","1202","0","test_block","poldrack-single-stim","148","231384","0.0-5.0-134.0","go-nogo","true","0","","true","<div class = centerbox><div  id = stim2></div></div>","32","32","750","","test","go","134","random","","",""
"","358","32","1379","0","test_block","poldrack-single-stim","149","232771","0.0-5.0-135.0","go-nogo","true","0","","true","<div class = centerbox><div  id = stim2></div></div>","32","32","750","","test","go","135","random","","",""
"","-1","-1","1237","0","test_block","poldrack-single-stim","150","234017","0.0-5.0-136.0","go-nogo","true","0","","true","<div class = centerbox><div  id = stim1></div></div>","-1","32","750","","test","nogo","136","random","","",""
"","-1","-1","1366","0","test_block","poldrack-single-stim","151","235390","0.0-5.0-137.0","go-nogo","true","0","","true","<div class = centerbox><div  id = stim1></div></div>","-1","32","750","","test","nogo","137","random","","",""
"","1358","32","1417","0","test_block","poldrack-single-stim","152","236817","0.0-5.0-138.0","go-nogo","true","0","","true","<div class = centerbox><div  id = stim2></div></div>","32","32","750","","test","go","138","random","","",""
"","501","32","1349","0","test_block","poldrack-single-stim","153","238173","0.0-5.0-139.0","go-nogo","true","0","","true","<div class = centerbox><div  id = stim2></div></div>","32","32","750","","test","go","139","random","","",""
"","177","32","1127","0","test_block","poldrack-single-stim","154","239308","0.0-5.0-140.0","go-nogo","true","0","","true","<div class = centerbox><div  id = stim2></div></div>","32","32","750","","test","go","140","random","","",""
"","305","32","1011","0","test_block","poldrack-single-stim","155","240328","0.0-5.0-141.0","go-nogo","true","0","","false","<div class = centerbox><div  id = stim1></div></div>","-1","32","750","","test","nogo","141","random","","",""
"","422","32","1344","0","test_block","poldrack-single-stim","156","241680","0.0-5.0-142.0","go-nogo","true","0","","true","<div class = centerbox><div  id = stim2></div></div>","32","32","750","","test","go","142","random","","",""
"","326","32","1316","0","test_block","poldrack-single-stim","157","243012","0.0-5.0-143.0","go-nogo","true","0","","true","<div class = centerbox><div  id = stim2></div></div>","32","32","750","","test","go","143","random","","",""
"","153","32","1466","0","test_block","poldrack-single-stim","158","244487","0.0-5.0-144.0","go-nogo","true","0","","true","<div class = centerbox><div  id = stim2></div></div>","32","32","750","","test","go","144","random","","",""
"","143","32","1232","0","test_block","poldrack-single-stim","159","245727","0.0-5.0-145.0","go-nogo","true","0","","true","<div class = centerbox><div  id = stim2></div></div>","32","32","750","","test","go","145","random","","",""
"","327","32","1135","0","test_block","poldrack-single-stim","160","246869","0.0-5.0-146.0","go-nogo","true","0","","false","<div class = centerbox><div  id = stim1></div></div>","-1","32","750","","test","nogo","146","random","","",""
"","393","32","1434","0","test_block","poldrack-single-stim","161","248312","0.0-5.0-147.0","go-nogo","true","0","","true","<div class = centerbox><div  id = stim2></div></div>","32","32","750","","test","go","147","random","","",""
"","294","32","1349","0","test_block","poldrack-single-stim","162","249669","0.0-5.0-148.0","go-nogo","true","0","","true","<div class = centerbox><div  id = stim2></div></div>","32","32","750","","test","go","148","random","","",""
"","273","32","1271","0","test_block","poldrack-single-stim","163","250956","0.0-5.0-149.0","go-nogo","true","0","","true","<div class = centerbox><div  id = stim2></div></div>","32","32","750","","test","go","149","random","","",""
"","337","32","1060","0","test_block","poldrack-single-stim","164","252024","0.0-5.0-150.0","go-nogo","true","0","","true","<div class = centerbox><div  id = stim2></div></div>","32","32","750","","test","go","150","random","","",""
"","422","32","1370","0","test_block","poldrack-single-stim","165","253401","0.0-5.0-151.0","go-nogo","true","0","","true","<div class = centerbox><div  id = stim2></div></div>","32","32","750","","test","go","151","random","","",""
"","339","32","1152","0","test_block","poldrack-single-stim","166","254562","0.0-5.0-152.0","go-nogo","true","0","","true","<div class = centerbox><div  id = stim2></div></div>","32","32","750","","test","go","152","random","","",""
"","340","32","1159","0","test_block","poldrack-single-stim","167","255728","0.0-5.0-153.0","go-nogo","true","0","","true","<div class = centerbox><div  id = stim2></div></div>","32","32","750","","test","go","153","random","","",""
"","327","32","1335","0","test_block","poldrack-single-stim","168","257071","0.0-5.0-154.0","go-nogo","true","0","","true","<div class = centerbox><div  id = stim2></div></div>","32","32","750","","test","go","154","random","","",""
"","308","32","1326","0","test_block","poldrack-single-stim","169","258408","0.0-5.0-155.0","go-nogo","true","0","","true","<div class = centerbox><div  id = stim2></div></div>","32","32","750","","test","go","155","random","","",""
"","280","32","1255","0","test_block","poldrack-single-stim","170","259668","0.0-5.0-156.0","go-nogo","true","0","","true","<div class = centerbox><div  id = stim2></div></div>","32","32","750","","test","go","156","random","","",""
"","290","32","1489","0","test_block","poldrack-single-stim","171","261173","0.0-5.0-157.0","go-nogo","true","0","","true","<div class = centerbox><div  id = stim2></div></div>","32","32","750","","test","go","157","random","","",""
"","27","32","1202","0","test_block","poldrack-single-stim","172","262388","0.0-5.0-158.0","go-nogo","true","0","","true","<div class = centerbox><div  id = stim2></div></div>","32","32","750","","test","go","158","random","","",""
"","56","32","1052","0","test_block","poldrack-single-stim","173","263450","0.0-5.0-159.0","go-nogo","true","0","","true","<div class = centerbox><div  id = stim2></div></div>","32","32","750","","test","go","159","random","","",""
"","324","32","1247","0","test_block","poldrack-single-stim","174","264704","0.0-5.0-160.0","go-nogo","true","0","","true","<div class = centerbox><div  id = stim2></div></div>","32","32","750","","test","go","160","random","","",""
"","136","32","1222","0","test_block","poldrack-single-stim","175","265941","0.0-5.0-161.0","go-nogo","true","0","","false","<div class = centerbox><div  id = stim1></div></div>","-1","32","750","","test","nogo","161","random","","",""
"","-1","-1","1167","0","test_block","poldrack-single-stim","176","267115","0.0-5.0-162.0","go-nogo","true","0","","false","<div class = centerbox><div  id = stim2></div></div>","32","32","750","","test","go","162","random","","",""
"","-1","-1","1437","0","test_block","poldrack-single-stim","177","268560","0.0-5.0-163.0","go-nogo","true","0","","false","<div class = centerbox><div  id = stim2></div></div>","32","32","750","","test","go","163","random","","",""
"","-1","-1","1213","0","test_block","poldrack-single-stim","178","269782","0.0-5.0-164.0","go-nogo","true","0","","false","<div class = centerbox><div  id = stim2></div></div>","32","32","750","","test","go","164","random","","",""
"","-1","-1","1273","0","test_block","poldrack-single-stim","179","271071","0.0-5.0-165.0","go-nogo","true","0","","false","<div class = centerbox><div  id = stim2></div></div>","32","32","750","","test","go","165","random","","",""
"","-1","-1","1130","0","test_block","poldrack-single-stim","180","272210","0.0-5.0-166.0","go-nogo","true","0","","false","<div class = centerbox><div  id = stim2></div></div>","32","32","750","","test","go","166","random","","",""
"","-1","-1","1277","0","test_block","poldrack-single-stim","181","273495","0.0-5.0-167.0","go-nogo","true","0","","false","<div class = centerbox><div  id = stim2></div></div>","32","32","750","","test","go","167","random","","",""
"","-1","-1","1244","0","test_block","poldrack-single-stim","182","274746","0.0-5.0-168.0","go-nogo","true","0","","false","<div class = centerbox><div  id = stim2></div></div>","32","32","750","","test","go","168","random","","",""
"","0","32","1092","0","test_block","poldrack-single-stim","183","275847","0.0-5.0-169.0","go-nogo","true","0","","true","<div class = centerbox><div  id = stim2></div></div>","32","32","750","","test","go","169","random","","",""
"","295","32","1462","0","test_block","poldrack-single-stim","184","277317","0.0-5.0-170.0","go-nogo","true","0","","true","<div class = centerbox><div  id = stim2></div></div>","32","32","750","","test","go","170","random","","",""
"","209","32","1309","0","test_block","poldrack-single-stim","185","278633","0.0-5.0-171.0","go-nogo","true","0","","false","<div class = centerbox><div  id = stim1></div></div>","-1","32","750","","test","nogo","171","random","","",""
"","341","32","1253","0","test_block","poldrack-single-stim","186","279894","0.0-5.0-172.0","go-nogo","true","0","","true","<div class = centerbox><div  id = stim2></div></div>","32","32","750","","test","go","172","random","","",""
"","571","32","1165","0","test_block","poldrack-single-stim","187","281071","0.0-5.0-173.0","go-nogo","true","0","","true","<div class = centerbox><div  id = stim2></div></div>","32","32","750","","test","go","173","random","","",""
"","479","32","1251","0","test_block","poldrack-single-stim","188","282331","0.0-5.0-174.0","go-nogo","true","0","","true","<div class = centerbox><div  id = stim2></div></div>","32","32","750","","test","go","174","random","","",""
"","-1","-1","1053","0","test_block","poldrack-single-stim","189","283391","0.0-5.0-175.0","go-nogo","true","0","","true","<div class = centerbox><div  id = stim1></div></div>","-1","32","750","","test","nogo","175","random","","",""
"","599","32","1118","0","test_block","poldrack-single-stim","190","284517","0.0-5.0-176.0","go-nogo","true","0","","true","<div class = centerbox><div  id = stim2></div></div>","32","32","750","","test","go","176","random","","",""
"","-1","-1","1197","0","test_block","poldrack-single-stim","191","285722","0.0-5.0-177.0","go-nogo","true","0","","false","<div class = centerbox><div  id = stim2></div></div>","32","32","750","","test","go","177","random","","",""
"","-1","-1","1440","0","test_block","poldrack-single-stim","192","287168","0.0-5.0-178.0","go-nogo","true","0","","true","<div class = centerbox><div  id = stim1></div></div>","-1","32","750","","test","nogo","178","random","","",""
"","783","32","1173","0","test_block","poldrack-single-stim","193","288356","0.0-5.0-179.0","go-nogo","true","0","","true","<div class = centerbox><div  id = stim2></div></div>","32","32","750","","test","go","179","random","","",""
"","-1","-1","1182","0","test_block","poldrack-single-stim","194","289546","0.0-5.0-180.0","go-nogo","true","0","","false","<div class = centerbox><div  id = stim2></div></div>","32","32","750","","test","go","180","random","","",""
"","-1","-1","1244","0","test_block","poldrack-single-stim","195","290797","0.0-5.0-181.0","go-nogo","true","0","","false","<div class = centerbox><div  id = stim2></div></div>","32","32","750","","test","go","181","random","","",""
"","-1","-1","1010","0","test_block","poldrack-single-stim","196","291815","0.0-5.0-182.0","go-nogo","true","0","","false","<div class = centerbox><div  id = stim2></div></div>","32","32","750","","test","go","182","random","","",""
"","-1","-1","1024","0","test_block","poldrack-single-stim","197","292846","0.0-5.0-183.0","go-nogo","true","0","","true","<div class = centerbox><div  id = stim1></div></div>","-1","32","750","","test","nogo","183","random","","",""
"","664","32","1390","0","test_block","poldrack-single-stim","198","294243","0.0-5.0-184.0","go-nogo","true","0","","true","<div class = centerbox><div  id = stim2></div></div>","32","32","750","","test","go","184","random","","",""
"","354","32","1137","0","test_block","poldrack-single-stim","199","295388","0.0-5.0-185.0","go-nogo","true","0","","true","<div class = centerbox><div  id = stim2></div></div>","32","32","750","","test","go","185","random","","",""
"","-1","-1","1162","0","test_block","poldrack-single-stim","200","296557","0.0-5.0-186.0","go-nogo","true","0","","true","<div class = centerbox><div  id = stim1></div></div>","-1","32","750","","test","nogo","186","random","","",""
"","426","32","1039","0","test_block","poldrack-single-stim","201","297603","0.0-5.0-187.0","go-nogo","true","0","","true","<div class = centerbox><div  id = stim2></div></div>","32","32","750","","test","go","187","random","","",""
"","490","32","1147","0","test_block","poldrack-single-stim","202","298758","0.0-5.0-188.0","go-nogo","true","0","","true","<div class = centerbox><div  id = stim2></div></div>","32","32","750","","test","go","188","random","","",""
"","-1","-1","1084","0","test_block","poldrack-single-stim","203","299851","0.0-5.0-189.0","go-nogo","true","0","","true","<div class = centerbox><div  id = stim1></div></div>","-1","32","750","","test","nogo","189","random","","",""
"","506","32","1278","0","test_block","poldrack-single-stim","204","301137","0.0-5.0-190.0","go-nogo","true","0","","true","<div class = centerbox><div  id = stim2></div></div>","32","32","750","","test","go","190","random","","",""
"","381","32","1321","0","test_block","poldrack-single-stim","205","302465","0.0-5.0-191.0","go-nogo","true","0","","true","<div class = centerbox><div  id = stim2></div></div>","32","32","750","","test","go","191","random","","",""
"","356","32","1484","0","test_block","poldrack-single-stim","206","303960","0.0-5.0-192.0","go-nogo","true","0","","true","<div class = centerbox><div  id = stim2></div></div>","32","32","750","","test","go","192","random","","",""
"","383","32","1138","0","test_block","poldrack-single-stim","207","305115","0.0-5.0-193.0","go-nogo","true","0","","true","<div class = centerbox><div  id = stim2></div></div>","32","32","750","","test","go","193","random","","",""
"","-1","-1","1169","0","test_block","poldrack-single-stim","208","306291","0.0-5.0-194.0","go-nogo","true","0","","true","<div class = centerbox><div  id = stim1></div></div>","-1","32","750","","test","nogo","194","random","","",""
"","357","32","1227","0","test_block","poldrack-single-stim","209","307522","0.0-5.0-195.0","go-nogo","true","0","","true","<div class = centerbox><div  id = stim2></div></div>","32","32","750","","test","go","195","random","","",""
"","330","32","1192","0","test_block","poldrack-single-stim","210","308724","0.0-5.0-196.0","go-nogo","true","0","","true","<div class = centerbox><div  id = stim2></div></div>","32","32","750","","test","go","196","random","","",""
"","340","32","1325","0","test_block","poldrack-single-stim","211","310056","0.0-5.0-197.0","go-nogo","true","0","","true","<div class = centerbox><div  id = stim2></div></div>","32","32","750","","test","go","197","random","","",""
"","325","32","1002","0","test_block","poldrack-single-stim","212","311067","0.0-5.0-198.0","go-nogo","true","0","","true","<div class = centerbox><div  id = stim2></div></div>","32","32","750","","test","go","198","random","","",""
"","425","32","1154","0","test_block","poldrack-single-stim","213","312262","0.0-5.0-199.0","go-nogo","true","0","","true","<div class = centerbox><div  id = stim2></div></div>","32","32","750","","test","go","199","random","","",""
"","336","32","1016","0","test_block","poldrack-single-stim","214","313285","0.0-5.0-200.0","go-nogo","true","0","","true","<div class = centerbox><div  id = stim2></div></div>","32","32","750","","test","go","200","random","","",""
"","411","32","1403","0","test_block","poldrack-single-stim","215","314702","0.0-5.0-201.0","go-nogo","true","0","","true","<div class = centerbox><div  id = stim2></div></div>","32","32","750","","test","go","201","random","","",""
"","313","32","1287","0","test_block","poldrack-single-stim","216","315996","0.0-5.0-202.0","go-nogo","true","0","","true","<div class = centerbox><div  id = stim2></div></div>","32","32","750","","test","go","202","random","","",""
"","289","32","1149","0","test_block","poldrack-single-stim","217","317152","0.0-5.0-203.0","go-nogo","true","0","","true","<div class = centerbox><div  id = stim2></div></div>","32","32","750","","test","go","203","random","","",""
"","332","32","1047","0","test_block","poldrack-single-stim","218","318207","0.0-5.0-204.0","go-nogo","true","0","","true","<div class = centerbox><div  id = stim2></div></div>","32","32","750","","test","go","204","random","","",""
"","390","32","1419","0","test_block","poldrack-single-stim","219","319633","0.0-5.0-205.0","go-nogo","true","0","","true","<div class = centerbox><div  id = stim2></div></div>","32","32","750","","test","go","205","random","","",""
"","325","32","1046","0","test_block","poldrack-single-stim","220","320692","0.0-5.0-206.0","go-nogo","true","0","","true","<div class = centerbox><div  id = stim2></div></div>","32","32","750","","test","go","206","random","","",""
"","403","32","1137","0","test_block","poldrack-single-stim","221","321835","0.0-5.0-207.0","go-nogo","true","0","","true","<div class = centerbox><div  id = stim2></div></div>","32","32","750","","test","go","207","random","","",""
"","403","32","1022","0","test_block","poldrack-single-stim","222","322864","0.0-5.0-208.0","go-nogo","true","0","","true","<div class = centerbox><div  id = stim2></div></div>","32","32","750","","test","go","208","random","","",""
"","-1","-1","1405","0","test_block","poldrack-single-stim","223","324275","0.0-5.0-209.0","go-nogo","true","0","","true","<div class = centerbox><div  id = stim1></div></div>","-1","32","750","","test","nogo","209","random","","",""
"","346","32","1435","0","test_block","poldrack-single-stim","224","325717","0.0-5.0-210.0","go-nogo","true","0","","true","<div class = centerbox><div  id = stim2></div></div>","32","32","750","","test","go","210","random","","",""
"","158","32","1465","0","test_block","poldrack-single-stim","225","327191","0.0-5.0-211.0","go-nogo","true","0","","true","<div class = centerbox><div  id = stim2></div></div>","32","32","750","","test","go","211","random","","",""
"","301","32","1134","0","test_block","poldrack-single-stim","226","328333","0.0-5.0-212.0","go-nogo","true","0","","true","<div class = centerbox><div  id = stim2></div></div>","32","32","750","","test","go","212","random","","",""
"","360","32","1368","0","test_block","poldrack-single-stim","227","329709","0.0-5.0-213.0","go-nogo","true","0","","true","<div class = centerbox><div  id = stim2></div></div>","32","32","750","","test","go","213","random","","",""
"","554","32","1386","0","test_block","poldrack-single-stim","228","331101","0.0-5.0-214.0","go-nogo","true","0","","true","<div class = centerbox><div  id = stim2></div></div>","32","32","750","","test","go","214","random","","",""
"","-1","-1","1051","0","test_block","poldrack-single-stim","229","332159","0.0-5.0-215.0","go-nogo","true","0","","true","<div class = centerbox><div  id = stim1></div></div>","-1","32","750","","test","nogo","215","random","","",""
"","526","32","1094","0","test_block","poldrack-single-stim","230","333261","0.0-5.0-216.0","go-nogo","true","0","","true","<div class = centerbox><div  id = stim2></div></div>","32","32","750","","test","go","216","random","","",""
"","417","32","1054","0","test_block","poldrack-single-stim","231","334324","0.0-5.0-217.0","go-nogo","true","0","","true","<div class = centerbox><div  id = stim2></div></div>","32","32","750","","test","go","217","random","","",""
"","322","32","1397","0","test_block","poldrack-single-stim","232","335729","0.0-5.0-218.0","go-nogo","true","0","","true","<div class = centerbox><div  id = stim2></div></div>","32","32","750","","test","go","218","random","","",""
"","689","32","1284","0","test_block","poldrack-single-stim","233","337025","0.0-5.0-219.0","go-nogo","true","0","","true","<div class = centerbox><div  id = stim2></div></div>","32","32","750","","test","go","219","random","","",""
"","353","32","1409","0","test_block","poldrack-single-stim","234","338454","0.0-5.0-220.0","go-nogo","true","0","","true","<div class = centerbox><div  id = stim2></div></div>","32","32","750","","test","go","220","random","","",""
"","304","32","1005","0","test_block","poldrack-single-stim","235","339467","0.0-5.0-221.0","go-nogo","true","0","","true","<div class = centerbox><div  id = stim2></div></div>","32","32","750","","test","go","221","random","","",""
"","394","32","1144","0","test_block","poldrack-single-stim","236","340619","0.0-5.0-222.0","go-nogo","true","0","","true","<div class = centerbox><div  id = stim2></div></div>","32","32","750","","test","go","222","random","","",""
"","298","32","1065","0","test_block","poldrack-single-stim","237","341693","0.0-5.0-223.0","go-nogo","true","0","","true","<div class = centerbox><div  id = stim2></div></div>","32","32","750","","test","go","223","random","","",""
"","319","32","1292","0","test_block","poldrack-single-stim","238","342994","0.0-5.0-224.0","go-nogo","true","0","","true","<div class = centerbox><div  id = stim2></div></div>","32","32","750","","test","go","224","random","","",""
"","332","32","1255","0","test_block","poldrack-single-stim","239","344257","0.0-5.0-225.0","go-nogo","true","0","","true","<div class = centerbox><div  id = stim2></div></div>","32","32","750","","test","go","225","random","","",""
"","300","32","1474","0","test_block","poldrack-single-stim","240","345740","0.0-5.0-226.0","go-nogo","true","0","","true","<div class = centerbox><div  id = stim2></div></div>","32","32","750","","test","go","226","random","","",""
"","-1","-1","1162","0","test_block","poldrack-single-stim","241","346911","0.0-5.0-227.0","go-nogo","true","0","","true","<div class = centerbox><div  id = stim1></div></div>","-1","32","750","","test","nogo","227","random","","",""
"","327","32","1042","0","test_block","poldrack-single-stim","242","347961","0.0-5.0-228.0","go-nogo","true","0","","true","<div class = centerbox><div  id = stim2></div></div>","32","32","750","","test","go","228","random","","",""
"","388","32","1003","0","test_block","poldrack-single-stim","243","348973","0.0-5.0-229.0","go-nogo","true","0","","true","<div class = centerbox><div  id = stim2></div></div>","32","32","750","","test","go","229","random","","",""
"","497","32","1096","0","test_block","poldrack-single-stim","244","350077","0.0-5.0-230.0","go-nogo","true","0","","true","<div class = centerbox><div  id = stim2></div></div>","32","32","750","","test","go","230","random","","",""
"","-1","-1","1291","0","test_block","poldrack-single-stim","245","351376","0.0-5.0-231.0","go-nogo","true","0","","true","<div class = centerbox><div  id = stim1></div></div>","-1","32","750","","test","nogo","231","random","","",""
"","309","32","1262","0","test_block","poldrack-single-stim","246","352648","0.0-5.0-232.0","go-nogo","true","0","","true","<div class = centerbox><div  id = stim2></div></div>","32","32","750","","test","go","232","random","","",""
"","364","32","1284","0","test_block","poldrack-single-stim","247","353941","0.0-5.0-233.0","go-nogo","true","0","","true","<div class = centerbox><div  id = stim2></div></div>","32","32","750","","test","go","233","random","","",""
"","426","32","1169","0","test_block","poldrack-single-stim","248","355117","0.0-5.0-234.0","go-nogo","true","0","","true","<div class = centerbox><div  id = stim2></div></div>","32","32","750","","test","go","234","random","","",""
"","352","32","1202","0","test_block","poldrack-single-stim","249","356327","0.0-5.0-235.0","go-nogo","true","0","","true","<div class = centerbox><div  id = stim2></div></div>","32","32","750","","test","go","235","random","","",""
"","374","32","1137","0","test_block","poldrack-single-stim","250","357472","0.0-5.0-236.0","go-nogo","true","0","","true","<div class = centerbox><div  id = stim2></div></div>","32","32","750","","test","go","236","random","","",""
"","419","32","1063","0","test_block","poldrack-single-stim","251","358545","0.0-5.0-237.0","go-nogo","true","0","","true","<div class = centerbox><div  id = stim2></div></div>","32","32","750","","test","go","237","random","","",""
"","364","32","1165","0","test_block","poldrack-single-stim","252","359718","0.0-5.0-238.0","go-nogo","true","0","","true","<div class = centerbox><div  id = stim2></div></div>","32","32","750","","test","go","238","random","","",""
"","289","32","1187","0","test_block","poldrack-single-stim","253","360928","0.0-5.0-239.0","go-nogo","true","0","","true","<div class = centerbox><div  id = stim2></div></div>","32","32","750","","test","go","239","random","","",""
"","214","32","1171","0","test_block","poldrack-single-stim","254","362107","0.0-5.0-240.0","go-nogo","true","0","","true","<div class = centerbox><div  id = stim2></div></div>","32","32","750","","test","go","240","random","","",""
"","984","32","1475","0","test_block","poldrack-single-stim","255","363594","0.0-5.0-241.0","go-nogo","true","0","","true","<div class = centerbox><div  id = stim2></div></div>","32","32","750","","test","go","241","random","","",""
"","411","32","1227","0","test_block","poldrack-single-stim","256","364830","0.0-5.0-242.0","go-nogo","true","0","","true","<div class = centerbox><div  id = stim2></div></div>","32","32","750","","test","go","242","random","","",""
"","344","32","1327","0","test_block","poldrack-single-stim","257","366166","0.0-5.0-243.0","go-nogo","true","0","","true","<div class = centerbox><div  id = stim2></div></div>","32","32","750","","test","go","243","random","","",""
"","583","32","1249","0","test_block","poldrack-single-stim","258","367431","0.0-5.0-244.0","go-nogo","true","0","","true","<div class = centerbox><div  id = stim2></div></div>","32","32","750","","test","go","244","random","","",""
"","328","32","1375","0","test_block","poldrack-single-stim","259","368813","0.0-5.0-245.0","go-nogo","true","0","","false","<div class = centerbox><div  id = stim1></div></div>","-1","32","750","","test","nogo","245","random","","",""
"","889","32","1015","0","test_block","poldrack-single-stim","260","369836","0.0-5.0-246.0","go-nogo","true","0","","true","<div class = centerbox><div  id = stim2></div></div>","32","32","750","","test","go","246","random","","",""
"","-1","-1","1465","0","test_block","poldrack-single-stim","261","371307","0.0-5.0-247.0","go-nogo","true","0","","true","<div class = centerbox><div  id = stim1></div></div>","-1","32","750","","test","nogo","247","random","","",""
"","-1","-1","1049","0","test_block","poldrack-single-stim","262","372363","0.0-5.0-248.0","go-nogo","true","0","","false","<div class = centerbox><div  id = stim2></div></div>","32","32","750","","test","go","248","random","","",""
"","65","32","1162","0","test_block","poldrack-single-stim","263","373534","0.0-5.0-249.0","go-nogo","true","0","","true","<div class = centerbox><div  id = stim2></div></div>","32","32","750","","test","go","249","random","","",""
"","544","32","1276","0","test_block","poldrack-single-stim","264","374818","0.0-5.0-250.0","go-nogo","true","0","","true","<div class = centerbox><div  id = stim2></div></div>","32","32","750","","test","go","250","random","","",""
"","523","32","1352","0","test_block","poldrack-single-stim","265","376179","0.0-5.0-251.0","go-nogo","true","0","","true","<div class = centerbox><div  id = stim2></div></div>","32","32","750","","test","go","251","random","","",""
"","226","32","1026","0","test_block","poldrack-single-stim","266","377216","0.0-5.0-252.0","go-nogo","true","0","","false","<div class = centerbox><div  id = stim1></div></div>","-1","32","750","","test","nogo","252","random","","",""
"","396","32","1173","0","test_block","poldrack-single-stim","267","378398","0.0-5.0-253.0","go-nogo","true","0","","true","<div class = centerbox><div  id = stim2></div></div>","32","32","750","","test","go","253","random","","",""
"","255","32","1372","0","test_block","poldrack-single-stim","268","379778","0.0-5.0-254.0","go-nogo","true","0","","true","<div class = centerbox><div  id = stim2></div></div>","32","32","750","","test","go","254","random","","",""
"","565","32","1261","0","test_block","poldrack-single-stim","269","381053","0.0-5.0-255.0","go-nogo","true","0","","true","<div class = centerbox><div  id = stim2></div></div>","32","32","750","","test","go","255","random","","",""
"","310","32","1298","0","test_block","poldrack-single-stim","270","382362","0.0-5.0-256.0","go-nogo","true","0","","true","<div class = centerbox><div  id = stim2></div></div>","32","32","750","","test","go","256","random","","",""
"","115","32","1095","0","test_block","poldrack-single-stim","271","383465","0.0-5.0-257.0","go-nogo","true","0","","true","<div class = centerbox><div  id = stim2></div></div>","32","32","750","","test","go","257","random","","",""
"","573","32","1251","0","test_block","poldrack-single-stim","272","384725","0.0-5.0-258.0","go-nogo","true","0","","true","<div class = centerbox><div  id = stim2></div></div>","32","32","750","","test","go","258","random","","",""
"","238","32","1064","0","test_block","poldrack-single-stim","273","385800","0.0-5.0-259.0","go-nogo","true","0","","true","<div class = centerbox><div  id = stim2></div></div>","32","32","750","","test","go","259","random","","",""
"","296","32","1221","0","test_block","poldrack-single-stim","274","387035","0.0-5.0-260.0","go-nogo","true","0","","true","<div class = centerbox><div  id = stim2></div></div>","32","32","750","","test","go","260","random","","",""
"","9","32","1414","0","test_block","poldrack-single-stim","275","388458","0.0-5.0-261.0","go-nogo","true","0","","true","<div class = centerbox><div  id = stim2></div></div>","32","32","750","","test","go","261","random","","",""
"","372","32","1488","0","test_block","poldrack-single-stim","276","389954","0.0-5.0-262.0","go-nogo","true","0","","true","<div class = centerbox><div  id = stim2></div></div>","32","32","750","","test","go","262","random","","",""
"","84","32","1394","0","test_block","poldrack-single-stim","277","391356","0.0-5.0-263.0","go-nogo","true","0","","true","<div class = centerbox><div  id = stim2></div></div>","32","32","750","","test","go","263","random","","",""
"","386","32","1279","0","test_block","poldrack-single-stim","278","392643","0.0-5.0-264.0","go-nogo","true","0","","true","<div class = centerbox><div  id = stim2></div></div>","32","32","750","","test","go","264","random","","",""
"","475","32","1389","0","test_block","poldrack-single-stim","279","394040","0.0-5.0-265.0","go-nogo","true","0","","true","<div class = centerbox><div  id = stim2></div></div>","32","32","750","","test","go","265","random","","",""
"","513","32","1148","0","test_block","poldrack-single-stim","280","395202","0.0-5.0-266.0","go-nogo","true","0","","true","<div class = centerbox><div  id = stim2></div></div>","32","32","750","","test","go","266","random","","",""
"","756","32","1391","0","test_block","poldrack-single-stim","281","396600","0.0-5.0-267.0","go-nogo","true","0","","true","<div class = centerbox><div  id = stim2></div></div>","32","32","750","","test","go","267","random","","",""
"","526","32","1134","0","test_block","poldrack-single-stim","282","397741","0.0-5.0-268.0","go-nogo","true","0","","true","<div class = centerbox><div  id = stim2></div></div>","32","32","750","","test","go","268","random","","",""
"","568","32","1181","0","test_block","poldrack-single-stim","283","398930","0.0-5.0-269.0","go-nogo","true","0","","true","<div class = centerbox><div  id = stim2></div></div>","32","32","750","","test","go","269","random","","",""
"","531","32","1124","0","test_block","poldrack-single-stim","284","400062","0.0-5.0-270.0","go-nogo","true","0","","true","<div class = centerbox><div  id = stim2></div></div>","32","32","750","","test","go","270","random","","",""
"","490","32","1204","0","test_block","poldrack-single-stim","285","401279","0.0-5.0-271.0","go-nogo","true","0","","true","<div class = centerbox><div  id = stim2></div></div>","32","32","750","","test","go","271","random","","",""
"","431","32","1196","0","test_block","poldrack-single-stim","286","402482","0.0-5.0-272.0","go-nogo","true","0","","true","<div class = centerbox><div  id = stim2></div></div>","32","32","750","","test","go","272","random","","",""
"","332","32","1401","0","test_block","poldrack-single-stim","287","403891","0.0-5.0-273.0","go-nogo","true","0","","true","<div class = centerbox><div  id = stim2></div></div>","32","32","750","","test","go","273","random","","",""
"","411","32","1245","0","test_block","poldrack-single-stim","288","405143","0.0-5.0-274.0","go-nogo","true","0","","true","<div class = centerbox><div  id = stim2></div></div>","32","32","750","","test","go","274","random","","",""
"","327","32","1066","0","test_block","poldrack-single-stim","289","406217","0.0-5.0-275.0","go-nogo","true","0","","true","<div class = centerbox><div  id = stim2></div></div>","32","32","750","","test","go","275","random","","",""
"","382","32","1423","0","test_block","poldrack-single-stim","290","407647","0.0-5.0-276.0","go-nogo","true","0","","true","<div class = centerbox><div  id = stim2></div></div>","32","32","750","","test","go","276","random","","",""
"","239","32","1273","0","test_block","poldrack-single-stim","291","408928","0.0-5.0-277.0","go-nogo","true","0","","true","<div class = centerbox><div  id = stim2></div></div>","32","32","750","","test","go","277","random","","",""
"","317","32","1029","0","test_block","poldrack-single-stim","292","409966","0.0-5.0-278.0","go-nogo","true","0","","true","<div class = centerbox><div  id = stim2></div></div>","32","32","750","","test","go","278","random","","",""
"","476","32","1427","0","test_block","poldrack-single-stim","293","411404","0.0-5.0-279.0","go-nogo","true","0","","true","<div class = centerbox><div  id = stim2></div></div>","32","32","750","","test","go","279","random","","",""
"","337","32","1448","0","test_block","poldrack-single-stim","294","412860","0.0-5.0-280.0","go-nogo","true","0","","true","<div class = centerbox><div  id = stim2></div></div>","32","32","750","","test","go","280","random","","",""
"","313","32","1064","0","test_block","poldrack-single-stim","295","413932","0.0-5.0-281.0","go-nogo","true","0","","true","<div class = centerbox><div  id = stim2></div></div>","32","32","750","","test","go","281","random","","",""
"","442","32","1167","0","test_block","poldrack-single-stim","296","415106","0.0-5.0-282.0","go-nogo","true","0","","true","<div class = centerbox><div  id = stim2></div></div>","32","32","750","","test","go","282","random","","",""
"","363","32","1036","0","test_block","poldrack-single-stim","297","416150","0.0-5.0-283.0","go-nogo","true","0","","true","<div class = centerbox><div  id = stim2></div></div>","32","32","750","","test","go","283","random","","",""
"","-1","-1","1144","0","test_block","poldrack-single-stim","298","417306","0.0-5.0-284.0","go-nogo","true","0","","false","<div class = centerbox><div  id = stim2></div></div>","32","32","750","","test","go","284","random","","",""
"","-1","-1","1206","0","test_block","poldrack-single-stim","299","418519","0.0-5.0-285.0","go-nogo","true","0","","true","<div class = centerbox><div  id = stim1></div></div>","-1","32","750","","test","nogo","285","random","","",""
"","-1","-1","1259","0","test_block","poldrack-single-stim","300","419785","0.0-5.0-286.0","go-nogo","true","0","","false","<div class = centerbox><div  id = stim2></div></div>","32","32","750","","test","go","286","random","","",""
"","-1","-1","1223","0","test_block","poldrack-single-stim","301","421017","0.0-5.0-287.0","go-nogo","true","0","","false","<div class = centerbox><div  id = stim2></div></div>","32","32","750","","test","go","287","random","","",""
"","-1","-1","1231","0","test_block","poldrack-single-stim","302","422273","0.0-5.0-288.0","go-nogo","true","0","","false","<div class = centerbox><div  id = stim2></div></div>","32","32","750","","test","go","288","random","","",""
"","-1","-1","1129","0","test_block","poldrack-single-stim","303","423409","0.0-5.0-289.0","go-nogo","true","0","","false","<div class = centerbox><div  id = stim2></div></div>","32","32","750","","test","go","289","random","","",""
"","-1","-1","1148","0","test_block","poldrack-single-stim","304","424564","0.0-5.0-290.0","go-nogo","true","0","","false","<div class = centerbox><div  id = stim2></div></div>","32","32","750","","test","go","290","random","","",""
"","-1","-1","1253","0","test_block","poldrack-single-stim","305","425826","0.0-5.0-291.0","go-nogo","true","0","","false","<div class = centerbox><div  id = stim2></div></div>","32","32","750","","test","go","291","random","","",""
"","-1","-1","1114","0","test_block","poldrack-single-stim","306","426947","0.0-5.0-292.0","go-nogo","true","0","","false","<div class = centerbox><div  id = stim2></div></div>","32","32","750","","test","go","292","random","","",""
"","-1","-1","1024","0","test_block","poldrack-single-stim","307","427978","0.0-5.0-293.0","go-nogo","true","0","","false","<div class = centerbox><div  id = stim2></div></div>","32","32","750","","test","go","293","random","","",""
"","-1","-1","1246","0","test_block","poldrack-single-stim","308","429233","0.0-5.0-294.0","go-nogo","true","0","","false","<div class = centerbox><div  id = stim2></div></div>","32","32","750","","test","go","294","random","","",""
"","-1","-1","1406","0","test_block","poldrack-single-stim","309","430646","0.0-5.0-295.0","go-nogo","true","0","","false","<div class = centerbox><div  id = stim2></div></div>","32","32","750","","test","go","295","random","","",""
"","-1","-1","1033","0","test_block","poldrack-single-stim","310","431691","0.0-5.0-296.0","go-nogo","true","0","","false","<div class = centerbox><div  id = stim2></div></div>","32","32","750","","test","go","296","random","","",""
"","-1","-1","1049","0","test_block","poldrack-single-stim","311","432747","0.0-5.0-297.0","go-nogo","true","0","","false","<div class = centerbox><div  id = stim2></div></div>","32","32","750","","test","go","297","random","","",""
"","-1","-1","1263","0","test_block","poldrack-single-stim","312","434017","0.0-5.0-298.0","go-nogo","true","0","","false","<div class = centerbox><div  id = stim2></div></div>","32","32","750","","test","go","298","random","","",""
"","-1","-1","1128","0","test_block","poldrack-single-stim","313","435153","0.0-5.0-299.0","go-nogo","true","0","","false","<div class = centerbox><div  id = stim2></div></div>","32","32","750","","test","go","299","random","","",""
"","-1","-1","1085","0","test_block","poldrack-single-stim","314","436247","0.0-5.0-300.0","go-nogo","true","0","","false","<div class = centerbox><div  id = stim2></div></div>","32","32","750","","test","go","300","random","","",""
"","-1","-1","1423","0","test_block","poldrack-single-stim","315","437681","0.0-5.0-301.0","go-nogo","true","0","","false","<div class = centerbox><div  id = stim2></div></div>","32","32","750","","test","go","301","random","","",""
"","-1","-1","1382","0","test_block","poldrack-single-stim","316","439079","0.0-5.0-302.0","go-nogo","true","0","","false","<div class = centerbox><div  id = stim2></div></div>","32","32","750","","test","go","302","random","","",""
"","-1","-1","1373","0","test_block","poldrack-single-stim","317","440459","0.0-5.0-303.0","go-nogo","true","0","","false","<div class = centerbox><div  id = stim2></div></div>","32","32","750","","test","go","303","random","","",""
"","-1","-1","1357","0","test_block","poldrack-single-stim","318","441823","0.0-5.0-304.0","go-nogo","true","0","","true","<div class = centerbox><div  id = stim1></div></div>","-1","32","750","","test","nogo","304","random","","",""
"","-1","-1","1050","0","test_block","poldrack-single-stim","319","442884","0.0-5.0-305.0","go-nogo","true","0","","false","<div class = centerbox><div  id = stim2></div></div>","32","32","750","","test","go","305","random","","",""
"","-1","-1","1157","0","test_block","poldrack-single-stim","320","444051","0.0-5.0-306.0","go-nogo","true","0","","false","<div class = centerbox><div  id = stim2></div></div>","32","32","750","","test","go","306","random","","",""
"","-1","-1","1003","0","test_block","poldrack-single-stim","321","445059","0.0-5.0-307.0","go-nogo","true","0","","false","<div class = centerbox><div  id = stim2></div></div>","32","32","750","","test","go","307","random","","",""
"","-1","-1","1091","0","test_block","poldrack-single-stim","322","446159","0.0-5.0-308.0","go-nogo","true","0","","false","<div class = centerbox><div  id = stim2></div></div>","32","32","750","","test","go","308","random","","",""
"","-1","-1","1322","0","test_block","poldrack-single-stim","323","447488","0.0-5.0-309.0","go-nogo","true","0","","false","<div class = centerbox><div  id = stim2></div></div>","32","32","750","","test","go","309","random","","",""
"","-1","-1","1226","0","test_block","poldrack-single-stim","324","448723","0.0-5.0-310.0","go-nogo","true","0","","false","<div class = centerbox><div  id = stim2></div></div>","32","32","750","","test","go","310","random","","",""
"","-1","-1","1364","0","test_block","poldrack-single-stim","325","450092","0.0-5.0-311.0","go-nogo","true","0","","false","<div class = centerbox><div  id = stim2></div></div>","32","32","750","","test","go","311","random","","",""
"","-1","-1","1173","0","test_block","poldrack-single-stim","326","451273","0.0-5.0-312.0","go-nogo","true","0","","true","<div class = centerbox><div  id = stim1></div></div>","-1","32","750","","test","nogo","312","random","","",""
"","-1","-1","1033","0","test_block","poldrack-single-stim","327","452314","0.0-5.0-313.0","go-nogo","true","0","","false","<div class = centerbox><div  id = stim2></div></div>","32","32","750","","test","go","313","random","","",""
"","-1","-1","1256","0","test_block","poldrack-single-stim","328","453577","0.0-5.0-314.0","go-nogo","true","0","","false","<div class = centerbox><div  id = stim2></div></div>","32","32","750","","test","go","314","random","","",""
"","-1","-1","1467","0","test_block","poldrack-single-stim","329","455053","0.0-5.0-315.0","go-nogo","true","0","","false","<div class = centerbox><div  id = stim2></div></div>","32","32","750","","test","go","315","random","","",""
"","-1","-1","1278","0","test_block","poldrack-single-stim","330","456338","0.0-5.0-316.0","go-nogo","true","0","","true","<div class = centerbox><div  id = stim1></div></div>","-1","32","750","","test","nogo","316","random","","",""
"","-1","-1","1058","0","test_block","poldrack-single-stim","331","457403","0.0-5.0-317.0","go-nogo","true","0","","false","<div class = centerbox><div  id = stim2></div></div>","32","32","750","","test","go","317","random","","",""
"","-1","-1","1001","0","test_block","poldrack-single-stim","332","458412","0.0-5.0-318.0","go-nogo","true","0","","false","<div class = centerbox><div  id = stim2></div></div>","32","32","750","","test","go","318","random","","",""
"","-1","-1","1442","0","test_block","poldrack-single-stim","333","459861","0.0-5.0-319.0","go-nogo","true","0","","false","<div class = centerbox><div  id = stim2></div></div>","32","32","750","","test","go","319","random","","",""
"","-1","-1","1199","0","test_block","poldrack-single-stim","334","461067","0.0-5.0-320.0","go-nogo","true","0","","false","<div class = centerbox><div  id = stim2></div></div>","32","32","750","","test","go","320","random","","",""
"","-1","-1","1425","0","test_block","poldrack-single-stim","335","462500","0.0-5.0-321.0","go-nogo","true","0","","false","<div class = centerbox><div  id = stim2></div></div>","32","32","750","","test","go","321","random","","",""
"","-1","-1","1402","0","test_block","poldrack-single-stim","336","463910","0.0-5.0-322.0","go-nogo","true","0","","false","<div class = centerbox><div  id = stim2></div></div>","32","32","750","","test","go","322","random","","",""
"","-1","-1","1247","0","test_block","poldrack-single-stim","337","465165","0.0-5.0-323.0","go-nogo","true","0","","false","<div class = centerbox><div  id = stim2></div></div>","32","32","750","","test","go","323","random","","",""
"","-1","-1","1276","0","test_block","poldrack-single-stim","338","466448","0.0-5.0-324.0","go-nogo","true","0","","false","<div class = centerbox><div  id = stim2></div></div>","32","32","750","","test","go","324","random","","",""
"","-1","-1","1042","0","test_block","poldrack-single-stim","339","467498","0.0-5.0-325.0","go-nogo","true","0","","false","<div class = centerbox><div  id = stim2></div></div>","32","32","750","","test","go","325","random","","",""
"","-1","-1","1319","0","test_block","poldrack-single-stim","340","468825","0.0-5.0-326.0","go-nogo","true","0","","false","<div class = centerbox><div  id = stim2></div></div>","32","32","750","","test","go","326","random","","",""
"","-1","-1","1231","0","test_block","poldrack-single-stim","341","470063","0.0-5.0-327.0","go-nogo","true","0","","false","<div class = centerbox><div  id = stim2></div></div>","32","32","750","","test","go","327","random","","",""
"","-1","-1","1130","0","test_block","poldrack-single-stim","342","471200","0.0-5.0-328.0","go-nogo","true","0","","false","<div class = centerbox><div  id = stim2></div></div>","32","32","750","","test","go","328","random","","",""
"","-1","-1","1253","0","test_block","poldrack-single-stim","343","472465","0.0-5.0-329.0","go-nogo","true","0","","false","<div class = centerbox><div  id = stim2></div></div>","32","32","750","","test","go","329","random","","",""
"","-1","-1","1464","0","test_block","poldrack-single-stim","344","473937","0.0-5.0-330.0","go-nogo","true","0","","false","<div class = centerbox><div  id = stim2></div></div>","32","32","750","","test","go","330","random","","",""
"","-1","-1","1067","0","test_block","poldrack-single-stim","345","475012","0.0-5.0-331.0","go-nogo","true","0","","false","<div class = centerbox><div  id = stim2></div></div>","32","32","750","","test","go","331","random","","",""
"","-1","-1","1103","0","test_block","poldrack-single-stim","346","476124","0.0-5.0-332.0","go-nogo","true","0","","true","<div class = centerbox><div  id = stim1></div></div>","-1","32","750","","test","nogo","332","random","","",""
"","-1","-1","1023","0","test_block","poldrack-single-stim","347","477154","0.0-5.0-333.0","go-nogo","true","0","","true","<div class = centerbox><div  id = stim1></div></div>","-1","32","750","","test","nogo","333","random","","",""
"","-1","-1","1049","0","test_block","poldrack-single-stim","348","478212","0.0-5.0-334.0","go-nogo","true","0","","false","<div class = centerbox><div  id = stim2></div></div>","32","32","750","","test","go","334","random","","",""
"","-1","-1","1414","0","test_block","poldrack-single-stim","349","479633","0.0-5.0-335.0","go-nogo","true","0","","false","<div class = centerbox><div  id = stim2></div></div>","32","32","750","","test","go","335","random","","",""
"","-1","-1","1156","0","test_block","poldrack-single-stim","350","480796","0.0-5.0-336.0","go-nogo","true","0","","false","<div class = centerbox><div  id = stim2></div></div>","32","32","750","","test","go","336","random","","",""
"","1145","32","1376","0","test_block","poldrack-single-stim","351","482179","0.0-5.0-337.0","go-nogo","true","0","","true","<div class = centerbox><div  id = stim2></div></div>","32","32","750","","test","go","337","random","","",""
"","317","32","1375","0","test_block","poldrack-single-stim","352","483568","0.0-5.0-338.0","go-nogo","true","0","","true","<div class = centerbox><div  id = stim2></div></div>","32","32","750","","test","go","338","random","","",""
"","414","32","1047","0","test_block","poldrack-single-stim","353","484622","0.0-5.0-339.0","go-nogo","true","0","","false","<div class = centerbox><div  id = stim1></div></div>","-1","32","750","","test","nogo","339","random","","",""
"","-1","-1","1311","0","test_block","poldrack-single-stim","354","485945","0.0-5.0-340.0","go-nogo","true","0","","false","<div class = centerbox><div  id = stim2></div></div>","32","32","750","","test","go","340","random","","",""
"","-1","-1","1255","0","test_block","poldrack-single-stim","355","487211","0.0-5.0-341.0","go-nogo","true","0","","false","<div class = centerbox><div  id = stim2></div></div>","32","32","750","","test","go","341","random","","",""
"","-1","-1","1117","0","test_block","poldrack-single-stim","356","488336","0.0-5.0-342.0","go-nogo","true","0","","false","<div class = centerbox><div  id = stim2></div></div>","32","32","750","","test","go","342","random","","",""
"","-1","-1","1370","0","test_block","poldrack-single-stim","357","489713","0.0-5.0-343.0","go-nogo","true","0","","false","<div class = centerbox><div  id = stim2></div></div>","32","32","750","","test","go","343","random","","",""
"","-1","-1","1454","0","test_block","poldrack-single-stim","358","491174","0.0-5.0-344.0","go-nogo","true","0","","false","<div class = centerbox><div  id = stim2></div></div>","32","32","750","","test","go","344","random","","",""
"","-1","-1","1154","0","test_block","poldrack-single-stim","359","492335","0.0-5.0-345.0","go-nogo","true","0","","false","<div class = centerbox><div  id = stim2></div></div>","32","32","750","","test","go","345","random","","",""
"","-1","-1","1403","0","test_block","poldrack-single-stim","360","493744","0.0-5.0-346.0","go-nogo","true","0","","true","<div class = centerbox><div  id = stim1></div></div>","-1","32","750","","test","nogo","346","random","","",""
"","-1","-1","1183","0","test_block","poldrack-single-stim","361","494935","0.0-5.0-347.0","go-nogo","true","0","","false","<div class = centerbox><div  id = stim2></div></div>","32","32","750","","test","go","347","random","","",""
"","-1","-1","1270","0","test_block","poldrack-single-stim","362","496212","0.0-5.0-348.0","go-nogo","true","0","","false","<div class = centerbox><div  id = stim2></div></div>","32","32","750","","test","go","348","random","","",""
"","-1","-1","1444","0","test_block","poldrack-single-stim","363","497664","0.0-5.0-349.0","go-nogo","true","0","","false","<div class = centerbox><div  id = stim2></div></div>","32","32","750","","test","go","349","random","","",""
"","176644","","","","post task questions","survey-text","364","674325","0.0-7.0","go-nogo","true","0","","","","","","","","","","","","{""Q0"":""this survey is identify the blue or yellow and knowledgeable."",""Q1"":""good""}","",""
"<div class = centerbox><p class = center-block-text>Thanks for completing this task!</p><p class = center-block-text>Insert the following code to collect your payment at Amazon Mechanical Turk:</p><p class = center-block-text>606699317</p><p class = center-block-text>Press <strong>enter</strong> to continue.</p></div>","6086","13","6086","0","end","poldrack-text","365","681413","0.0-8.0","go-nogo","true","0","","","","","","","","","","","","","606699317","true"
