"text","rt","key_press","block_duration","timing_post_trial","trial_id","trial_type","trial_index","time_elapsed","internal_node_id","exp_id","full_screen","focus_shifts","view_history","correct","stimulus","correct_response","possible_responses","stim_duration","feedback_duration","exp_stage","condition","trial_num","mode","responses","payment_id","credit_var"
"<div class = centerbox><p class = center-block-text>Welcome to the experiment. This task will take around 10 minutes. Press <strong>enter</strong> to begin.</p></div>","4303","13","4303","0","instruction","poldrack-text","0","4306","0.0-0.0-0.0","go-nogo","true","0","","","","","","","","","","","","","",""
"","40365","","","","instruction","poldrack-instructions","1","44672","0.0-0.0-1.0","go-nogo","true","1","[{""page_index"":0,""viewing_time"":40364}]","","","","","","","","","","","","",""
"","-1","-1","1170","250","practice","poldrack-categorize","2","47854","0.0-1.0-0.0","go-nogo","true","0","","true","<div class = centerbox><div id = stim1></div></div>","-1","32","750","1000","practice","nogo","0","adv","","",""
"","776","32","1143","250","practice","poldrack-categorize","3","50256","0.0-1.0-1.0","go-nogo","true","0","","true","<div class = centerbox><div  id = stim2></div></div>","32","32","750","1000","practice","go","1","adv","","",""
"","-1","-1","1071","250","practice","poldrack-categorize","4","52582","0.0-1.0-2.0","go-nogo","true","0","","true","<div class = centerbox><div id = stim1></div></div>","-1","32","750","1000","practice","nogo","2","adv","","",""
"","-1","-1","1483","250","practice","poldrack-categorize","5","55324","0.0-1.0-3.0","go-nogo","true","0","","true","<div class = centerbox><div id = stim1></div></div>","-1","32","750","1000","practice","nogo","3","adv","","",""
"","383","32","1435","250","practice","poldrack-categorize","6","58027","0.0-1.0-4.0","go-nogo","true","0","","true","<div class = centerbox><div  id = stim2></div></div>","32","32","750","1000","practice","go","4","adv","","",""
"","415","32","1428","250","practice","poldrack-categorize","7","60715","0.0-1.0-5.0","go-nogo","true","0","","true","<div class = centerbox><div  id = stim2></div></div>","32","32","750","1000","practice","go","5","adv","","",""
"","405","32","1422","250","practice","poldrack-categorize","8","63398","0.0-1.0-6.0","go-nogo","true","0","","true","<div class = centerbox><div  id = stim2></div></div>","32","32","750","1000","practice","go","6","adv","","",""
"","-1","-1","1297","250","practice","poldrack-categorize","9","65961","0.0-1.0-7.0","go-nogo","true","0","","true","<div class = centerbox><div id = stim1></div></div>","-1","32","750","1000","practice","nogo","7","adv","","",""
"","453","32","1267","250","practice","poldrack-categorize","10","68488","0.0-1.0-8.0","go-nogo","true","0","","true","<div class = centerbox><div  id = stim2></div></div>","32","32","750","1000","practice","go","8","adv","","",""
"","-1","-1","1206","250","practice","poldrack-categorize","11","70956","0.0-1.0-9.0","go-nogo","true","0","","true","<div class = centerbox><div id = stim1></div></div>","-1","32","750","1000","practice","nogo","9","adv","","",""
"","","","","","reset_trial","call-function","12","71209","0.0-3.0","go-nogo","true","0","","","","","","","","","","","","","",""
"<div class = centerbox><p class = block-text>Practice is over, we will now begin the experiment. You will no longer get feedback about your responses.</p><p class = block-text>Remember, if you see the <font color=""blue"">blue</font> square you should <strong> respond by pressing the spacebar as quickly as possible</strong>. If you see the <font color=""orange"">orange</font> square you should <strong> not respond</strong>. Press <strong>enter</strong> to begin.</p></div>","12477","13","12477","1000","test_intro","poldrack-text","13","83686","0.0-4.0","go-nogo","true","0","","","","","","","","","","","","","",""
"","610","32","1476","0","test_block","poldrack-single-stim","14","86169","0.0-5.0-0.0","go-nogo","true","0","","true","<div class = centerbox><div  id = stim2></div></div>","32","32","750","","test","go","0","adv","","",""
"","430","32","1090","0","test_block","poldrack-single-stim","15","87328","0.0-5.0-1.0","go-nogo","true","0","","true","<div class = centerbox><div  id = stim2></div></div>","32","32","750","","test","go","1","adv","","",""
"","422","32","1281","0","test_block","poldrack-single-stim","16","88659","0.0-5.0-2.0","go-nogo","true","0","","true","<div class = centerbox><div  id = stim2></div></div>","32","32","750","","test","go","2","adv","","",""
"","307","32","1384","0","test_block","poldrack-single-stim","17","90081","0.0-5.0-3.0","go-nogo","true","0","","true","<div class = centerbox><div  id = stim2></div></div>","32","32","750","","test","go","3","adv","","",""
"","337","32","1455","0","test_block","poldrack-single-stim","18","91574","0.0-5.0-4.0","go-nogo","true","0","","true","<div class = centerbox><div  id = stim2></div></div>","32","32","750","","test","go","4","adv","","",""
"","328","32","1088","0","test_block","poldrack-single-stim","19","92703","0.0-5.0-5.0","go-nogo","true","0","","true","<div class = centerbox><div  id = stim2></div></div>","32","32","750","","test","go","5","adv","","",""
"","311","32","1328","0","test_block","poldrack-single-stim","20","94066","0.0-5.0-6.0","go-nogo","true","0","","true","<div class = centerbox><div  id = stim2></div></div>","32","32","750","","test","go","6","adv","","",""
"","312","32","1287","0","test_block","poldrack-single-stim","21","95393","0.0-5.0-7.0","go-nogo","true","0","","true","<div class = centerbox><div  id = stim2></div></div>","32","32","750","","test","go","7","adv","","",""
"","268","32","1387","0","test_block","poldrack-single-stim","22","96812","0.0-5.0-8.0","go-nogo","true","0","","true","<div class = centerbox><div  id = stim2></div></div>","32","32","750","","test","go","8","adv","","",""
"","346","32","1037","0","test_block","poldrack-single-stim","23","97890","0.0-5.0-9.0","go-nogo","true","0","","true","<div class = centerbox><div  id = stim2></div></div>","32","32","750","","test","go","9","adv","","",""
"","322","32","1498","0","test_block","poldrack-single-stim","24","99424","0.0-5.0-10.0","go-nogo","true","0","","true","<div class = centerbox><div  id = stim2></div></div>","32","32","750","","test","go","10","adv","","",""
"","338","32","1005","0","test_block","poldrack-single-stim","25","100464","0.0-5.0-11.0","go-nogo","true","0","","true","<div class = centerbox><div  id = stim2></div></div>","32","32","750","","test","go","11","adv","","",""
"","307","32","1175","0","test_block","poldrack-single-stim","26","101670","0.0-5.0-12.0","go-nogo","true","0","","true","<div class = centerbox><div  id = stim2></div></div>","32","32","750","","test","go","12","adv","","",""
"","285","32","1183","0","test_block","poldrack-single-stim","27","102889","0.0-5.0-13.0","go-nogo","true","0","","true","<div class = centerbox><div  id = stim2></div></div>","32","32","750","","test","go","13","adv","","",""
"","238","32","1000","0","test_block","poldrack-single-stim","28","103922","0.0-5.0-14.0","go-nogo","true","0","","true","<div class = centerbox><div  id = stim2></div></div>","32","32","750","","test","go","14","adv","","",""
"","269","32","1215","0","test_block","poldrack-single-stim","29","105173","0.0-5.0-15.0","go-nogo","true","0","","true","<div class = centerbox><div  id = stim2></div></div>","32","32","750","","test","go","15","adv","","",""
"","283","32","1076","0","test_block","poldrack-single-stim","30","106278","0.0-5.0-16.0","go-nogo","true","0","","true","<div class = centerbox><div  id = stim2></div></div>","32","32","750","","test","go","16","adv","","",""
"","270","32","1326","0","test_block","poldrack-single-stim","31","107638","0.0-5.0-17.0","go-nogo","true","0","","true","<div class = centerbox><div  id = stim2></div></div>","32","32","750","","test","go","17","adv","","",""
"","259","32","1266","0","test_block","poldrack-single-stim","32","108936","0.0-5.0-18.0","go-nogo","true","0","","true","<div class = centerbox><div  id = stim2></div></div>","32","32","750","","test","go","18","adv","","",""
"","304","32","1418","0","test_block","poldrack-single-stim","33","110383","0.0-5.0-19.0","go-nogo","true","0","","true","<div class = centerbox><div  id = stim2></div></div>","32","32","750","","test","go","19","adv","","",""
"","300","32","1217","0","test_block","poldrack-single-stim","34","111636","0.0-5.0-20.0","go-nogo","true","0","","true","<div class = centerbox><div  id = stim2></div></div>","32","32","750","","test","go","20","adv","","",""
"","378","32","1054","0","test_block","poldrack-single-stim","35","112722","0.0-5.0-21.0","go-nogo","true","0","","true","<div class = centerbox><div  id = stim2></div></div>","32","32","750","","test","go","21","adv","","",""
"","266","32","1329","0","test_block","poldrack-single-stim","36","114082","0.0-5.0-22.0","go-nogo","true","0","","true","<div class = centerbox><div  id = stim2></div></div>","32","32","750","","test","go","22","adv","","",""
"","312","32","1397","0","test_block","poldrack-single-stim","37","115510","0.0-5.0-23.0","go-nogo","true","0","","true","<div class = centerbox><div  id = stim2></div></div>","32","32","750","","test","go","23","adv","","",""
"","282","32","1204","0","test_block","poldrack-single-stim","38","116747","0.0-5.0-24.0","go-nogo","true","0","","true","<div class = centerbox><div  id = stim2></div></div>","32","32","750","","test","go","24","adv","","",""
"","307","32","1386","0","test_block","poldrack-single-stim","39","118160","0.0-5.0-25.0","go-nogo","true","0","","true","<div class = centerbox><div  id = stim2></div></div>","32","32","750","","test","go","25","adv","","",""
"","187","32","1446","0","test_block","poldrack-single-stim","40","119636","0.0-5.0-26.0","go-nogo","true","0","","true","<div class = centerbox><div  id = stim2></div></div>","32","32","750","","test","go","26","adv","","",""
"","243","32","1313","0","test_block","poldrack-single-stim","41","120983","0.0-5.0-27.0","go-nogo","true","0","","true","<div class = centerbox><div  id = stim2></div></div>","32","32","750","","test","go","27","adv","","",""
"","284","32","1045","0","test_block","poldrack-single-stim","42","122063","0.0-5.0-28.0","go-nogo","true","0","","true","<div class = centerbox><div  id = stim2></div></div>","32","32","750","","test","go","28","adv","","",""
"","370","32","1248","0","test_block","poldrack-single-stim","43","123341","0.0-5.0-29.0","go-nogo","true","0","","true","<div class = centerbox><div  id = stim2></div></div>","32","32","750","","test","go","29","adv","","",""
"","273","32","1480","0","test_block","poldrack-single-stim","44","124853","0.0-5.0-30.0","go-nogo","true","0","","true","<div class = centerbox><div  id = stim2></div></div>","32","32","750","","test","go","30","adv","","",""
"","231","32","1442","0","test_block","poldrack-single-stim","45","126330","0.0-5.0-31.0","go-nogo","true","0","","true","<div class = centerbox><div  id = stim2></div></div>","32","32","750","","test","go","31","adv","","",""
"","301","32","1007","0","test_block","poldrack-single-stim","46","127368","0.0-5.0-32.0","go-nogo","true","0","","true","<div class = centerbox><div  id = stim2></div></div>","32","32","750","","test","go","32","adv","","",""
"","300","32","1385","0","test_block","poldrack-single-stim","47","128783","0.0-5.0-33.0","go-nogo","true","0","","true","<div class = centerbox><div  id = stim2></div></div>","32","32","750","","test","go","33","adv","","",""
"","272","32","1254","0","test_block","poldrack-single-stim","48","130063","0.0-5.0-34.0","go-nogo","true","0","","true","<div class = centerbox><div  id = stim2></div></div>","32","32","750","","test","go","34","adv","","",""
"","289","32","1290","0","test_block","poldrack-single-stim","49","131384","0.0-5.0-35.0","go-nogo","true","0","","true","<div class = centerbox><div  id = stim2></div></div>","32","32","750","","test","go","35","adv","","",""
"","267","32","1312","0","test_block","poldrack-single-stim","50","132724","0.0-5.0-36.0","go-nogo","true","0","","true","<div class = centerbox><div  id = stim2></div></div>","32","32","750","","test","go","36","adv","","",""
"","278","32","1041","0","test_block","poldrack-single-stim","51","133790","0.0-5.0-37.0","go-nogo","true","0","","true","<div class = centerbox><div  id = stim2></div></div>","32","32","750","","test","go","37","adv","","",""
"","293","32","1282","0","test_block","poldrack-single-stim","52","135101","0.0-5.0-38.0","go-nogo","true","0","","true","<div class = centerbox><div  id = stim2></div></div>","32","32","750","","test","go","38","adv","","",""
"","257","32","1429","0","test_block","poldrack-single-stim","53","136558","0.0-5.0-39.0","go-nogo","true","0","","true","<div class = centerbox><div  id = stim2></div></div>","32","32","750","","test","go","39","adv","","",""
"","231","32","1456","0","test_block","poldrack-single-stim","54","138043","0.0-5.0-40.0","go-nogo","true","0","","true","<div class = centerbox><div  id = stim2></div></div>","32","32","750","","test","go","40","adv","","",""
"","239","32","1031","0","test_block","poldrack-single-stim","55","139106","0.0-5.0-41.0","go-nogo","true","0","","true","<div class = centerbox><div  id = stim2></div></div>","32","32","750","","test","go","41","adv","","",""
"","285","32","1377","0","test_block","poldrack-single-stim","56","140515","0.0-5.0-42.0","go-nogo","true","0","","true","<div class = centerbox><div  id = stim2></div></div>","32","32","750","","test","go","42","adv","","",""
"","244","32","1221","0","test_block","poldrack-single-stim","57","141770","0.0-5.0-43.0","go-nogo","true","0","","true","<div class = centerbox><div  id = stim2></div></div>","32","32","750","","test","go","43","adv","","",""
"","326","32","1273","0","test_block","poldrack-single-stim","58","143075","0.0-5.0-44.0","go-nogo","true","0","","true","<div class = centerbox><div  id = stim2></div></div>","32","32","750","","test","go","44","adv","","",""
"","303","32","1237","0","test_block","poldrack-single-stim","59","144343","0.0-5.0-45.0","go-nogo","true","0","","true","<div class = centerbox><div  id = stim2></div></div>","32","32","750","","test","go","45","adv","","",""
"","178","32","1239","0","test_block","poldrack-single-stim","60","145614","0.0-5.0-46.0","go-nogo","true","0","","true","<div class = centerbox><div  id = stim2></div></div>","32","32","750","","test","go","46","adv","","",""
"","275","32","1159","0","test_block","poldrack-single-stim","61","146801","0.0-5.0-47.0","go-nogo","true","0","","true","<div class = centerbox><div  id = stim2></div></div>","32","32","750","","test","go","47","adv","","",""
"","315","32","1289","0","test_block","poldrack-single-stim","62","148120","0.0-5.0-48.0","go-nogo","true","0","","true","<div class = centerbox><div  id = stim2></div></div>","32","32","750","","test","go","48","adv","","",""
"","243","32","1308","0","test_block","poldrack-single-stim","63","149459","0.0-5.0-49.0","go-nogo","true","0","","true","<div class = centerbox><div  id = stim2></div></div>","32","32","750","","test","go","49","adv","","",""
"","259","32","1057","0","test_block","poldrack-single-stim","64","150544","0.0-5.0-50.0","go-nogo","true","0","","true","<div class = centerbox><div  id = stim2></div></div>","32","32","750","","test","go","50","adv","","",""
"","243","32","1022","0","test_block","poldrack-single-stim","65","151592","0.0-5.0-51.0","go-nogo","true","0","","true","<div class = centerbox><div  id = stim2></div></div>","32","32","750","","test","go","51","adv","","",""
"","236","32","1462","0","test_block","poldrack-single-stim","66","153080","0.0-5.0-52.0","go-nogo","true","0","","true","<div class = centerbox><div  id = stim2></div></div>","32","32","750","","test","go","52","adv","","",""
"","281","32","1208","0","test_block","poldrack-single-stim","67","154318","0.0-5.0-53.0","go-nogo","true","0","","true","<div class = centerbox><div  id = stim2></div></div>","32","32","750","","test","go","53","adv","","",""
"","270","32","1251","0","test_block","poldrack-single-stim","68","155597","0.0-5.0-54.0","go-nogo","true","0","","true","<div class = centerbox><div  id = stim2></div></div>","32","32","750","","test","go","54","adv","","",""
"","356","32","1258","0","test_block","poldrack-single-stim","69","156883","0.0-5.0-55.0","go-nogo","true","0","","true","<div class = centerbox><div  id = stim2></div></div>","32","32","750","","test","go","55","adv","","",""
"","312","32","1365","0","test_block","poldrack-single-stim","70","158281","0.0-5.0-56.0","go-nogo","true","0","","true","<div class = centerbox><div  id = stim2></div></div>","32","32","750","","test","go","56","adv","","",""
"","268","32","1231","0","test_block","poldrack-single-stim","71","159540","0.0-5.0-57.0","go-nogo","true","0","","true","<div class = centerbox><div  id = stim2></div></div>","32","32","750","","test","go","57","adv","","",""
"","267","32","1135","0","test_block","poldrack-single-stim","72","160704","0.0-5.0-58.0","go-nogo","true","0","","true","<div class = centerbox><div  id = stim2></div></div>","32","32","750","","test","go","58","adv","","",""
"","334","32","1243","0","test_block","poldrack-single-stim","73","161976","0.0-5.0-59.0","go-nogo","true","0","","true","<div class = centerbox><div  id = stim2></div></div>","32","32","750","","test","go","59","adv","","",""
"","311","32","1429","0","test_block","poldrack-single-stim","74","163432","0.0-5.0-60.0","go-nogo","true","0","","true","<div class = centerbox><div  id = stim2></div></div>","32","32","750","","test","go","60","adv","","",""
"","286","32","1062","0","test_block","poldrack-single-stim","75","164526","0.0-5.0-61.0","go-nogo","true","0","","true","<div class = centerbox><div  id = stim2></div></div>","32","32","750","","test","go","61","adv","","",""
"","277","32","1110","0","test_block","poldrack-single-stim","76","165663","0.0-5.0-62.0","go-nogo","true","0","","true","<div class = centerbox><div  id = stim2></div></div>","32","32","750","","test","go","62","adv","","",""
"","260","32","1117","0","test_block","poldrack-single-stim","77","166806","0.0-5.0-63.0","go-nogo","true","0","","true","<div class = centerbox><div  id = stim2></div></div>","32","32","750","","test","go","63","adv","","",""
"","221","32","1427","0","test_block","poldrack-single-stim","78","168264","0.0-5.0-64.0","go-nogo","true","0","","true","<div class = centerbox><div  id = stim2></div></div>","32","32","750","","test","go","64","adv","","",""
"","230","32","1344","0","test_block","poldrack-single-stim","79","169638","0.0-5.0-65.0","go-nogo","true","0","","true","<div class = centerbox><div  id = stim2></div></div>","32","32","750","","test","go","65","adv","","",""
"","161","32","1480","0","test_block","poldrack-single-stim","80","171149","0.0-5.0-66.0","go-nogo","true","0","","true","<div class = centerbox><div  id = stim2></div></div>","32","32","750","","test","go","66","adv","","",""
"","287","32","1179","0","test_block","poldrack-single-stim","81","172362","0.0-5.0-67.0","go-nogo","true","0","","true","<div class = centerbox><div  id = stim2></div></div>","32","32","750","","test","go","67","adv","","",""
"","307","32","1152","0","test_block","poldrack-single-stim","82","173543","0.0-5.0-68.0","go-nogo","true","0","","true","<div class = centerbox><div  id = stim2></div></div>","32","32","750","","test","go","68","adv","","",""
"","262","32","1458","0","test_block","poldrack-single-stim","83","175028","0.0-5.0-69.0","go-nogo","true","0","","true","<div class = centerbox><div  id = stim2></div></div>","32","32","750","","test","go","69","adv","","",""
"","149","32","1101","0","test_block","poldrack-single-stim","84","176159","0.0-5.0-70.0","go-nogo","true","0","","true","<div class = centerbox><div  id = stim2></div></div>","32","32","750","","test","go","70","adv","","",""
"","388","32","1321","0","test_block","poldrack-single-stim","85","177507","0.0-5.0-71.0","go-nogo","true","0","","true","<div class = centerbox><div  id = stim2></div></div>","32","32","750","","test","go","71","adv","","",""
"","295","32","1121","0","test_block","poldrack-single-stim","86","178655","0.0-5.0-72.0","go-nogo","true","0","","true","<div class = centerbox><div  id = stim2></div></div>","32","32","750","","test","go","72","adv","","",""
"","362","32","1474","0","test_block","poldrack-single-stim","87","180154","0.0-5.0-73.0","go-nogo","true","0","","true","<div class = centerbox><div  id = stim2></div></div>","32","32","750","","test","go","73","adv","","",""
"","267","32","1301","0","test_block","poldrack-single-stim","88","181482","0.0-5.0-74.0","go-nogo","true","0","","true","<div class = centerbox><div  id = stim2></div></div>","32","32","750","","test","go","74","adv","","",""
"","267","32","1484","0","test_block","poldrack-single-stim","89","182996","0.0-5.0-75.0","go-nogo","true","0","","true","<div class = centerbox><div  id = stim2></div></div>","32","32","750","","test","go","75","adv","","",""
"","292","32","1282","0","test_block","poldrack-single-stim","90","184307","0.0-5.0-76.0","go-nogo","true","0","","true","<div class = centerbox><div  id = stim2></div></div>","32","32","750","","test","go","76","adv","","",""
"","343","32","1088","0","test_block","poldrack-single-stim","91","185424","0.0-5.0-77.0","go-nogo","true","0","","true","<div class = centerbox><div  id = stim2></div></div>","32","32","750","","test","go","77","adv","","",""
"","284","32","1025","0","test_block","poldrack-single-stim","92","186478","0.0-5.0-78.0","go-nogo","true","0","","true","<div class = centerbox><div  id = stim2></div></div>","32","32","750","","test","go","78","adv","","",""
"","310","32","1402","0","test_block","poldrack-single-stim","93","187920","0.0-5.0-79.0","go-nogo","true","0","","true","<div class = centerbox><div  id = stim2></div></div>","32","32","750","","test","go","79","adv","","",""
"","-1","-1","1012","0","test_block","poldrack-single-stim","94","188961","0.0-5.0-80.0","go-nogo","true","0","","false","<div class = centerbox><div  id = stim2></div></div>","32","32","750","","test","go","80","adv","","",""
"","309","32","1238","0","test_block","poldrack-single-stim","95","190229","0.0-5.0-81.0","go-nogo","true","0","","true","<div class = centerbox><div  id = stim2></div></div>","32","32","750","","test","go","81","adv","","",""
"","260","32","1120","0","test_block","poldrack-single-stim","96","191375","0.0-5.0-82.0","go-nogo","true","0","","false","<div class = centerbox><div  id = stim1></div></div>","-1","32","750","","test","nogo","82","adv","","",""
"","-1","-1","1320","0","test_block","poldrack-single-stim","97","192723","0.0-5.0-83.0","go-nogo","true","0","","true","<div class = centerbox><div  id = stim1></div></div>","-1","32","750","","test","nogo","83","adv","","",""
"","371","32","1023","0","test_block","poldrack-single-stim","98","193776","0.0-5.0-84.0","go-nogo","true","0","","true","<div class = centerbox><div  id = stim2></div></div>","32","32","750","","test","go","84","adv","","",""
"","344","32","1170","0","test_block","poldrack-single-stim","99","194970","0.0-5.0-85.0","go-nogo","true","0","","true","<div class = centerbox><div  id = stim2></div></div>","32","32","750","","test","go","85","adv","","",""
"","314","32","1405","0","test_block","poldrack-single-stim","100","196403","0.0-5.0-86.0","go-nogo","true","0","","true","<div class = centerbox><div  id = stim2></div></div>","32","32","750","","test","go","86","adv","","",""
"","339","32","1319","0","test_block","poldrack-single-stim","101","197749","0.0-5.0-87.0","go-nogo","true","0","","true","<div class = centerbox><div  id = stim2></div></div>","32","32","750","","test","go","87","adv","","",""
"","333","32","1128","0","test_block","poldrack-single-stim","102","198906","0.0-5.0-88.0","go-nogo","true","0","","true","<div class = centerbox><div  id = stim2></div></div>","32","32","750","","test","go","88","adv","","",""
"","369","32","1222","0","test_block","poldrack-single-stim","103","200159","0.0-5.0-89.0","go-nogo","true","0","","true","<div class = centerbox><div  id = stim2></div></div>","32","32","750","","test","go","89","adv","","",""
"","436","32","1420","0","test_block","poldrack-single-stim","104","201608","0.0-5.0-90.0","go-nogo","true","0","","true","<div class = centerbox><div  id = stim2></div></div>","32","32","750","","test","go","90","adv","","",""
"","412","32","1232","0","test_block","poldrack-single-stim","105","202866","0.0-5.0-91.0","go-nogo","true","0","","true","<div class = centerbox><div  id = stim2></div></div>","32","32","750","","test","go","91","adv","","",""
"","523","32","1134","0","test_block","poldrack-single-stim","106","204028","0.0-5.0-92.0","go-nogo","true","0","","true","<div class = centerbox><div  id = stim2></div></div>","32","32","750","","test","go","92","adv","","",""
"","551","32","1489","0","test_block","poldrack-single-stim","107","205541","0.0-5.0-93.0","go-nogo","true","0","","true","<div class = centerbox><div  id = stim2></div></div>","32","32","750","","test","go","93","adv","","",""
"","361","32","1174","0","test_block","poldrack-single-stim","108","206746","0.0-5.0-94.0","go-nogo","true","0","","true","<div class = centerbox><div  id = stim2></div></div>","32","32","750","","test","go","94","adv","","",""
"","342","32","1315","0","test_block","poldrack-single-stim","109","208090","0.0-5.0-95.0","go-nogo","true","0","","true","<div class = centerbox><div  id = stim2></div></div>","32","32","750","","test","go","95","adv","","",""
"","311","32","1048","0","test_block","poldrack-single-stim","110","209167","0.0-5.0-96.0","go-nogo","true","0","","true","<div class = centerbox><div  id = stim2></div></div>","32","32","750","","test","go","96","adv","","",""
"","308","32","1393","0","test_block","poldrack-single-stim","111","210587","0.0-5.0-97.0","go-nogo","true","0","","true","<div class = centerbox><div  id = stim2></div></div>","32","32","750","","test","go","97","adv","","",""
"","292","32","1458","0","test_block","poldrack-single-stim","112","212077","0.0-5.0-98.0","go-nogo","true","0","","true","<div class = centerbox><div  id = stim2></div></div>","32","32","750","","test","go","98","adv","","",""
"","513","32","1313","0","test_block","poldrack-single-stim","113","213419","0.0-5.0-99.0","go-nogo","true","0","","true","<div class = centerbox><div  id = stim2></div></div>","32","32","750","","test","go","99","adv","","",""
"","302","32","1398","0","test_block","poldrack-single-stim","114","214845","0.0-5.0-100.0","go-nogo","true","0","","true","<div class = centerbox><div  id = stim2></div></div>","32","32","750","","test","go","100","adv","","",""
"","330","32","1373","0","test_block","poldrack-single-stim","115","216247","0.0-5.0-101.0","go-nogo","true","0","","true","<div class = centerbox><div  id = stim2></div></div>","32","32","750","","test","go","101","adv","","",""
"","552","32","1049","0","test_block","poldrack-single-stim","116","217321","0.0-5.0-102.0","go-nogo","true","0","","true","<div class = centerbox><div  id = stim2></div></div>","32","32","750","","test","go","102","adv","","",""
"","435","32","1169","0","test_block","poldrack-single-stim","117","218515","0.0-5.0-103.0","go-nogo","true","0","","true","<div class = centerbox><div  id = stim2></div></div>","32","32","750","","test","go","103","adv","","",""
"","397","32","1174","0","test_block","poldrack-single-stim","118","219716","0.0-5.0-104.0","go-nogo","true","0","","true","<div class = centerbox><div  id = stim2></div></div>","32","32","750","","test","go","104","adv","","",""
"","270","32","1351","0","test_block","poldrack-single-stim","119","221098","0.0-5.0-105.0","go-nogo","true","0","","true","<div class = centerbox><div  id = stim2></div></div>","32","32","750","","test","go","105","adv","","",""
"","314","32","1348","0","test_block","poldrack-single-stim","120","222476","0.0-5.0-106.0","go-nogo","true","0","","true","<div class = centerbox><div  id = stim2></div></div>","32","32","750","","test","go","106","adv","","",""
"","297","32","1082","0","test_block","poldrack-single-stim","121","223586","0.0-5.0-107.0","go-nogo","true","0","","true","<div class = centerbox><div  id = stim2></div></div>","32","32","750","","test","go","107","adv","","",""
"","290","32","1186","0","test_block","poldrack-single-stim","122","224796","0.0-5.0-108.0","go-nogo","true","0","","true","<div class = centerbox><div  id = stim2></div></div>","32","32","750","","test","go","108","adv","","",""
"","276","32","1401","0","test_block","poldrack-single-stim","123","226226","0.0-5.0-109.0","go-nogo","true","0","","true","<div class = centerbox><div  id = stim2></div></div>","32","32","750","","test","go","109","adv","","",""
"","282","32","1133","0","test_block","poldrack-single-stim","124","227384","0.0-5.0-110.0","go-nogo","true","0","","true","<div class = centerbox><div  id = stim2></div></div>","32","32","750","","test","go","110","adv","","",""
"","285","32","1439","0","test_block","poldrack-single-stim","125","228851","0.0-5.0-111.0","go-nogo","true","0","","true","<div class = centerbox><div  id = stim2></div></div>","32","32","750","","test","go","111","adv","","",""
"","288","32","1409","0","test_block","poldrack-single-stim","126","230285","0.0-5.0-112.0","go-nogo","true","0","","true","<div class = centerbox><div  id = stim2></div></div>","32","32","750","","test","go","112","adv","","",""
"","315","32","1170","0","test_block","poldrack-single-stim","127","231483","0.0-5.0-113.0","go-nogo","true","0","","true","<div class = centerbox><div  id = stim2></div></div>","32","32","750","","test","go","113","adv","","",""
"","369","32","1046","0","test_block","poldrack-single-stim","128","232554","0.0-5.0-114.0","go-nogo","true","0","","true","<div class = centerbox><div  id = stim2></div></div>","32","32","750","","test","go","114","adv","","",""
"","361","32","1388","0","test_block","poldrack-single-stim","129","233969","0.0-5.0-115.0","go-nogo","true","0","","true","<div class = centerbox><div  id = stim2></div></div>","32","32","750","","test","go","115","adv","","",""
"","262","32","1389","0","test_block","poldrack-single-stim","130","235385","0.0-5.0-116.0","go-nogo","true","0","","true","<div class = centerbox><div  id = stim2></div></div>","32","32","750","","test","go","116","adv","","",""
"","297","32","1352","0","test_block","poldrack-single-stim","131","236762","0.0-5.0-117.0","go-nogo","true","0","","true","<div class = centerbox><div  id = stim2></div></div>","32","32","750","","test","go","117","adv","","",""
"","296","32","1319","0","test_block","poldrack-single-stim","132","238112","0.0-5.0-118.0","go-nogo","true","0","","true","<div class = centerbox><div  id = stim2></div></div>","32","32","750","","test","go","118","adv","","",""
"","279","32","1045","0","test_block","poldrack-single-stim","133","239187","0.0-5.0-119.0","go-nogo","true","0","","true","<div class = centerbox><div  id = stim2></div></div>","32","32","750","","test","go","119","adv","","",""
"","374","32","1237","0","test_block","poldrack-single-stim","134","240452","0.0-5.0-120.0","go-nogo","true","0","","true","<div class = centerbox><div  id = stim2></div></div>","32","32","750","","test","go","120","adv","","",""
"","349","32","1075","0","test_block","poldrack-single-stim","135","241556","0.0-5.0-121.0","go-nogo","true","0","","true","<div class = centerbox><div  id = stim2></div></div>","32","32","750","","test","go","121","adv","","",""
"","302","32","1153","0","test_block","poldrack-single-stim","136","242736","0.0-5.0-122.0","go-nogo","true","0","","true","<div class = centerbox><div  id = stim2></div></div>","32","32","750","","test","go","122","adv","","",""
"","286","32","1285","0","test_block","poldrack-single-stim","137","244048","0.0-5.0-123.0","go-nogo","true","0","","true","<div class = centerbox><div  id = stim2></div></div>","32","32","750","","test","go","123","adv","","",""
"","287","32","1232","0","test_block","poldrack-single-stim","138","245305","0.0-5.0-124.0","go-nogo","true","0","","true","<div class = centerbox><div  id = stim2></div></div>","32","32","750","","test","go","124","adv","","",""
"","309","32","1051","0","test_block","poldrack-single-stim","139","246382","0.0-5.0-125.0","go-nogo","true","0","","true","<div class = centerbox><div  id = stim2></div></div>","32","32","750","","test","go","125","adv","","",""
"","365","32","1156","0","test_block","poldrack-single-stim","140","247567","0.0-5.0-126.0","go-nogo","true","0","","true","<div class = centerbox><div  id = stim2></div></div>","32","32","750","","test","go","126","adv","","",""
"","358","32","1117","0","test_block","poldrack-single-stim","141","248708","0.0-5.0-127.0","go-nogo","true","0","","true","<div class = centerbox><div  id = stim2></div></div>","32","32","750","","test","go","127","adv","","",""
"","334","32","1234","0","test_block","poldrack-single-stim","142","249969","0.0-5.0-128.0","go-nogo","true","0","","true","<div class = centerbox><div  id = stim2></div></div>","32","32","750","","test","go","128","adv","","",""
"","407","32","1114","0","test_block","poldrack-single-stim","143","251112","0.0-5.0-129.0","go-nogo","true","0","","true","<div class = centerbox><div  id = stim2></div></div>","32","32","750","","test","go","129","adv","","",""
"","308","32","1153","0","test_block","poldrack-single-stim","144","252291","0.0-5.0-130.0","go-nogo","true","0","","true","<div class = centerbox><div  id = stim2></div></div>","32","32","750","","test","go","130","adv","","",""
"","343","32","1228","0","test_block","poldrack-single-stim","145","253551","0.0-5.0-131.0","go-nogo","true","0","","true","<div class = centerbox><div  id = stim2></div></div>","32","32","750","","test","go","131","adv","","",""
"","272","32","1154","0","test_block","poldrack-single-stim","146","254736","0.0-5.0-132.0","go-nogo","true","0","","true","<div class = centerbox><div  id = stim2></div></div>","32","32","750","","test","go","132","adv","","",""
"","289","32","1388","0","test_block","poldrack-single-stim","147","256147","0.0-5.0-133.0","go-nogo","true","0","","true","<div class = centerbox><div  id = stim2></div></div>","32","32","750","","test","go","133","adv","","",""
"","274","32","1134","0","test_block","poldrack-single-stim","148","257312","0.0-5.0-134.0","go-nogo","true","0","","true","<div class = centerbox><div  id = stim2></div></div>","32","32","750","","test","go","134","adv","","",""
"","287","32","1034","0","test_block","poldrack-single-stim","149","258370","0.0-5.0-135.0","go-nogo","true","0","","true","<div class = centerbox><div  id = stim2></div></div>","32","32","750","","test","go","135","adv","","",""
"","297","32","1457","0","test_block","poldrack-single-stim","150","259857","0.0-5.0-136.0","go-nogo","true","0","","true","<div class = centerbox><div  id = stim2></div></div>","32","32","750","","test","go","136","adv","","",""
"","305","32","1023","0","test_block","poldrack-single-stim","151","260905","0.0-5.0-137.0","go-nogo","true","0","","true","<div class = centerbox><div  id = stim2></div></div>","32","32","750","","test","go","137","adv","","",""
"","283","32","1029","0","test_block","poldrack-single-stim","152","261963","0.0-5.0-138.0","go-nogo","true","0","","true","<div class = centerbox><div  id = stim2></div></div>","32","32","750","","test","go","138","adv","","",""
"","275","32","1020","0","test_block","poldrack-single-stim","153","263012","0.0-5.0-139.0","go-nogo","true","0","","true","<div class = centerbox><div  id = stim2></div></div>","32","32","750","","test","go","139","adv","","",""
"","273","32","1185","0","test_block","poldrack-single-stim","154","264222","0.0-5.0-140.0","go-nogo","true","0","","true","<div class = centerbox><div  id = stim2></div></div>","32","32","750","","test","go","140","adv","","",""
"","285","32","1385","0","test_block","poldrack-single-stim","155","265636","0.0-5.0-141.0","go-nogo","true","0","","true","<div class = centerbox><div  id = stim2></div></div>","32","32","750","","test","go","141","adv","","",""
"","262","32","1217","0","test_block","poldrack-single-stim","156","266882","0.0-5.0-142.0","go-nogo","true","0","","true","<div class = centerbox><div  id = stim2></div></div>","32","32","750","","test","go","142","adv","","",""
"","384","32","1053","0","test_block","poldrack-single-stim","157","267960","0.0-5.0-143.0","go-nogo","true","0","","true","<div class = centerbox><div  id = stim2></div></div>","32","32","750","","test","go","143","adv","","",""
"","298","32","1280","0","test_block","poldrack-single-stim","158","269269","0.0-5.0-144.0","go-nogo","true","0","","true","<div class = centerbox><div  id = stim2></div></div>","32","32","750","","test","go","144","adv","","",""
"","292","32","1086","0","test_block","poldrack-single-stim","159","270383","0.0-5.0-145.0","go-nogo","true","0","","true","<div class = centerbox><div  id = stim2></div></div>","32","32","750","","test","go","145","adv","","",""
"","284","32","1079","0","test_block","poldrack-single-stim","160","271488","0.0-5.0-146.0","go-nogo","true","0","","true","<div class = centerbox><div  id = stim2></div></div>","32","32","750","","test","go","146","adv","","",""
"","295","32","1393","0","test_block","poldrack-single-stim","161","272911","0.0-5.0-147.0","go-nogo","true","0","","true","<div class = centerbox><div  id = stim2></div></div>","32","32","750","","test","go","147","adv","","",""
"","362","32","1029","0","test_block","poldrack-single-stim","162","273967","0.0-5.0-148.0","go-nogo","true","0","","false","<div class = centerbox><div  id = stim1></div></div>","-1","32","750","","test","nogo","148","adv","","",""
"","422","32","1196","0","test_block","poldrack-single-stim","163","275191","0.0-5.0-149.0","go-nogo","true","0","","true","<div class = centerbox><div  id = stim2></div></div>","32","32","750","","test","go","149","adv","","",""
"","315","32","1433","0","test_block","poldrack-single-stim","164","276648","0.0-5.0-150.0","go-nogo","true","0","","true","<div class = centerbox><div  id = stim2></div></div>","32","32","750","","test","go","150","adv","","",""
"","-1","-1","1478","0","test_block","poldrack-single-stim","165","278153","0.0-5.0-151.0","go-nogo","true","0","","true","<div class = centerbox><div  id = stim1></div></div>","-1","32","750","","test","nogo","151","adv","","",""
"","287","32","1018","0","test_block","poldrack-single-stim","166","279198","0.0-5.0-152.0","go-nogo","true","0","","true","<div class = centerbox><div  id = stim2></div></div>","32","32","750","","test","go","152","adv","","",""
"","429","32","1474","0","test_block","poldrack-single-stim","167","280706","0.0-5.0-153.0","go-nogo","true","0","","true","<div class = centerbox><div  id = stim2></div></div>","32","32","750","","test","go","153","adv","","",""
"","362","32","1201","0","test_block","poldrack-single-stim","168","281931","0.0-5.0-154.0","go-nogo","true","0","","true","<div class = centerbox><div  id = stim2></div></div>","32","32","750","","test","go","154","adv","","",""
"","-1","-1","1126","0","test_block","poldrack-single-stim","169","283082","0.0-5.0-155.0","go-nogo","true","0","","true","<div class = centerbox><div  id = stim1></div></div>","-1","32","750","","test","nogo","155","adv","","",""
"","349","32","1015","0","test_block","poldrack-single-stim","170","284124","0.0-5.0-156.0","go-nogo","true","0","","true","<div class = centerbox><div  id = stim2></div></div>","32","32","750","","test","go","156","adv","","",""
"","382","32","1166","0","test_block","poldrack-single-stim","171","285319","0.0-5.0-157.0","go-nogo","true","0","","true","<div class = centerbox><div  id = stim2></div></div>","32","32","750","","test","go","157","adv","","",""
"","331","32","1117","0","test_block","poldrack-single-stim","172","286464","0.0-5.0-158.0","go-nogo","true","0","","true","<div class = centerbox><div  id = stim2></div></div>","32","32","750","","test","go","158","adv","","",""
"","300","32","1227","0","test_block","poldrack-single-stim","173","287724","0.0-5.0-159.0","go-nogo","true","0","","true","<div class = centerbox><div  id = stim2></div></div>","32","32","750","","test","go","159","adv","","",""
"","293","32","1178","0","test_block","poldrack-single-stim","174","288926","0.0-5.0-160.0","go-nogo","true","0","","true","<div class = centerbox><div  id = stim2></div></div>","32","32","750","","test","go","160","adv","","",""
"","322","32","1357","0","test_block","poldrack-single-stim","175","290313","0.0-5.0-161.0","go-nogo","true","0","","true","<div class = centerbox><div  id = stim2></div></div>","32","32","750","","test","go","161","adv","","",""
"","322","32","1237","0","test_block","poldrack-single-stim","176","291578","0.0-5.0-162.0","go-nogo","true","0","","true","<div class = centerbox><div  id = stim2></div></div>","32","32","750","","test","go","162","adv","","",""
"","266","32","1147","0","test_block","poldrack-single-stim","177","292752","0.0-5.0-163.0","go-nogo","true","0","","true","<div class = centerbox><div  id = stim2></div></div>","32","32","750","","test","go","163","adv","","",""
"","325","32","1286","0","test_block","poldrack-single-stim","178","294065","0.0-5.0-164.0","go-nogo","true","0","","false","<div class = centerbox><div  id = stim1></div></div>","-1","32","750","","test","nogo","164","adv","","",""
"","-1","-1","1177","0","test_block","poldrack-single-stim","179","295268","0.0-5.0-165.0","go-nogo","true","0","","true","<div class = centerbox><div  id = stim1></div></div>","-1","32","750","","test","nogo","165","adv","","",""
"","317","32","1196","0","test_block","poldrack-single-stim","180","296491","0.0-5.0-166.0","go-nogo","true","0","","true","<div class = centerbox><div  id = stim2></div></div>","32","32","750","","test","go","166","adv","","",""
"","308","32","1478","0","test_block","poldrack-single-stim","181","297993","0.0-5.0-167.0","go-nogo","true","0","","true","<div class = centerbox><div  id = stim2></div></div>","32","32","750","","test","go","167","adv","","",""
"","327","32","1237","0","test_block","poldrack-single-stim","182","299258","0.0-5.0-168.0","go-nogo","true","0","","true","<div class = centerbox><div  id = stim2></div></div>","32","32","750","","test","go","168","adv","","",""
"","318","32","1141","0","test_block","poldrack-single-stim","183","300424","0.0-5.0-169.0","go-nogo","true","0","","true","<div class = centerbox><div  id = stim2></div></div>","32","32","750","","test","go","169","adv","","",""
"","-1","-1","1378","0","test_block","poldrack-single-stim","184","301826","0.0-5.0-170.0","go-nogo","true","0","","true","<div class = centerbox><div  id = stim1></div></div>","-1","32","750","","test","nogo","170","adv","","",""
"","286","32","1088","0","test_block","poldrack-single-stim","185","302942","0.0-5.0-171.0","go-nogo","true","0","","true","<div class = centerbox><div  id = stim2></div></div>","32","32","750","","test","go","171","adv","","",""
"","401","32","1057","0","test_block","poldrack-single-stim","186","304024","0.0-5.0-172.0","go-nogo","true","0","","true","<div class = centerbox><div  id = stim2></div></div>","32","32","750","","test","go","172","adv","","",""
"","315","32","1410","0","test_block","poldrack-single-stim","187","305457","0.0-5.0-173.0","go-nogo","true","0","","true","<div class = centerbox><div  id = stim2></div></div>","32","32","750","","test","go","173","adv","","",""
"","393","32","1302","0","test_block","poldrack-single-stim","188","306785","0.0-5.0-174.0","go-nogo","true","0","","true","<div class = centerbox><div  id = stim2></div></div>","32","32","750","","test","go","174","adv","","",""
"","303","32","1291","0","test_block","poldrack-single-stim","189","308104","0.0-5.0-175.0","go-nogo","true","0","","true","<div class = centerbox><div  id = stim2></div></div>","32","32","750","","test","go","175","adv","","",""
"","319","32","1092","0","test_block","poldrack-single-stim","190","309226","0.0-5.0-176.0","go-nogo","true","0","","true","<div class = centerbox><div  id = stim2></div></div>","32","32","750","","test","go","176","adv","","",""
"","479","32","1285","0","test_block","poldrack-single-stim","191","310539","0.0-5.0-177.0","go-nogo","true","0","","true","<div class = centerbox><div  id = stim2></div></div>","32","32","750","","test","go","177","adv","","",""
"","310","32","1182","0","test_block","poldrack-single-stim","192","311752","0.0-5.0-178.0","go-nogo","true","0","","true","<div class = centerbox><div  id = stim2></div></div>","32","32","750","","test","go","178","adv","","",""
"","-1","-1","1460","0","test_block","poldrack-single-stim","193","313238","0.0-5.0-179.0","go-nogo","true","0","","true","<div class = centerbox><div  id = stim1></div></div>","-1","32","750","","test","nogo","179","adv","","",""
"","285","32","1229","0","test_block","poldrack-single-stim","194","314498","0.0-5.0-180.0","go-nogo","true","0","","true","<div class = centerbox><div  id = stim2></div></div>","32","32","750","","test","go","180","adv","","",""
"","326","32","1408","0","test_block","poldrack-single-stim","195","315933","0.0-5.0-181.0","go-nogo","true","0","","true","<div class = centerbox><div  id = stim2></div></div>","32","32","750","","test","go","181","adv","","",""
"","363","32","1248","0","test_block","poldrack-single-stim","196","317209","0.0-5.0-182.0","go-nogo","true","0","","true","<div class = centerbox><div  id = stim2></div></div>","32","32","750","","test","go","182","adv","","",""
"","878","32","1007","0","test_block","poldrack-single-stim","197","318246","0.0-5.0-183.0","go-nogo","true","0","","true","<div class = centerbox><div  id = stim2></div></div>","32","32","750","","test","go","183","adv","","",""
"","621","32","1411","0","test_block","poldrack-single-stim","198","319684","0.0-5.0-184.0","go-nogo","true","0","","true","<div class = centerbox><div  id = stim2></div></div>","32","32","750","","test","go","184","adv","","",""
"","319","32","1063","0","test_block","poldrack-single-stim","199","320776","0.0-5.0-185.0","go-nogo","true","0","","true","<div class = centerbox><div  id = stim2></div></div>","32","32","750","","test","go","185","adv","","",""
"","276","32","1183","0","test_block","poldrack-single-stim","200","321984","0.0-5.0-186.0","go-nogo","true","0","","true","<div class = centerbox><div  id = stim2></div></div>","32","32","750","","test","go","186","adv","","",""
"","317","32","1330","0","test_block","poldrack-single-stim","201","323338","0.0-5.0-187.0","go-nogo","true","0","","true","<div class = centerbox><div  id = stim2></div></div>","32","32","750","","test","go","187","adv","","",""
"","321","32","1056","0","test_block","poldrack-single-stim","202","324419","0.0-5.0-188.0","go-nogo","true","0","","true","<div class = centerbox><div  id = stim2></div></div>","32","32","750","","test","go","188","adv","","",""
"","-1","-1","1028","0","test_block","poldrack-single-stim","203","325472","0.0-5.0-189.0","go-nogo","true","0","","true","<div class = centerbox><div  id = stim1></div></div>","-1","32","750","","test","nogo","189","adv","","",""
"","304","32","1075","0","test_block","poldrack-single-stim","204","326571","0.0-5.0-190.0","go-nogo","true","0","","true","<div class = centerbox><div  id = stim2></div></div>","32","32","750","","test","go","190","adv","","",""
"","388","32","1391","0","test_block","poldrack-single-stim","205","327990","0.0-5.0-191.0","go-nogo","true","0","","true","<div class = centerbox><div  id = stim2></div></div>","32","32","750","","test","go","191","adv","","",""
"","302","32","1170","0","test_block","poldrack-single-stim","206","329184","0.0-5.0-192.0","go-nogo","true","0","","true","<div class = centerbox><div  id = stim2></div></div>","32","32","750","","test","go","192","adv","","",""
"","290","32","1185","0","test_block","poldrack-single-stim","207","330400","0.0-5.0-193.0","go-nogo","true","0","","true","<div class = centerbox><div  id = stim2></div></div>","32","32","750","","test","go","193","adv","","",""
"","264","32","1330","0","test_block","poldrack-single-stim","208","331756","0.0-5.0-194.0","go-nogo","true","0","","true","<div class = centerbox><div  id = stim2></div></div>","32","32","750","","test","go","194","adv","","",""
"","286","32","1124","0","test_block","poldrack-single-stim","209","332904","0.0-5.0-195.0","go-nogo","true","0","","true","<div class = centerbox><div  id = stim2></div></div>","32","32","750","","test","go","195","adv","","",""
"","301","32","1208","0","test_block","poldrack-single-stim","210","334139","0.0-5.0-196.0","go-nogo","true","0","","true","<div class = centerbox><div  id = stim2></div></div>","32","32","750","","test","go","196","adv","","",""
"","286","32","1377","0","test_block","poldrack-single-stim","211","335542","0.0-5.0-197.0","go-nogo","true","0","","true","<div class = centerbox><div  id = stim2></div></div>","32","32","750","","test","go","197","adv","","",""
"","318","32","1449","0","test_block","poldrack-single-stim","212","337020","0.0-5.0-198.0","go-nogo","true","0","","true","<div class = centerbox><div  id = stim2></div></div>","32","32","750","","test","go","198","adv","","",""
"","282","32","1142","0","test_block","poldrack-single-stim","213","338187","0.0-5.0-199.0","go-nogo","true","0","","true","<div class = centerbox><div  id = stim2></div></div>","32","32","750","","test","go","199","adv","","",""
"","292","32","1240","0","test_block","poldrack-single-stim","214","339456","0.0-5.0-200.0","go-nogo","true","0","","false","<div class = centerbox><div  id = stim1></div></div>","-1","32","750","","test","nogo","200","adv","","",""
"","264","32","1213","0","test_block","poldrack-single-stim","215","340694","0.0-5.0-201.0","go-nogo","true","0","","true","<div class = centerbox><div  id = stim2></div></div>","32","32","750","","test","go","201","adv","","",""
"","276","32","1403","0","test_block","poldrack-single-stim","216","342123","0.0-5.0-202.0","go-nogo","true","0","","true","<div class = centerbox><div  id = stim2></div></div>","32","32","750","","test","go","202","adv","","",""
"","-1","-1","1385","0","test_block","poldrack-single-stim","217","343531","0.0-5.0-203.0","go-nogo","true","0","","true","<div class = centerbox><div  id = stim1></div></div>","-1","32","750","","test","nogo","203","adv","","",""
"","251","32","1314","0","test_block","poldrack-single-stim","218","344869","0.0-5.0-204.0","go-nogo","true","0","","true","<div class = centerbox><div  id = stim2></div></div>","32","32","750","","test","go","204","adv","","",""
"","284","32","1308","0","test_block","poldrack-single-stim","219","346203","0.0-5.0-205.0","go-nogo","true","0","","true","<div class = centerbox><div  id = stim2></div></div>","32","32","750","","test","go","205","adv","","",""
"","335","32","1200","0","test_block","poldrack-single-stim","220","347429","0.0-5.0-206.0","go-nogo","true","0","","true","<div class = centerbox><div  id = stim2></div></div>","32","32","750","","test","go","206","adv","","",""
"","281","32","1412","0","test_block","poldrack-single-stim","221","348870","0.0-5.0-207.0","go-nogo","true","0","","false","<div class = centerbox><div  id = stim1></div></div>","-1","32","750","","test","nogo","207","adv","","",""
"","-1","-1","1178","0","test_block","poldrack-single-stim","222","350076","0.0-5.0-208.0","go-nogo","true","0","","true","<div class = centerbox><div  id = stim1></div></div>","-1","32","750","","test","nogo","208","adv","","",""
"","388","32","1168","0","test_block","poldrack-single-stim","223","351271","0.0-5.0-209.0","go-nogo","true","0","","true","<div class = centerbox><div  id = stim2></div></div>","32","32","750","","test","go","209","adv","","",""
"","422","32","1213","0","test_block","poldrack-single-stim","224","352508","0.0-5.0-210.0","go-nogo","true","0","","true","<div class = centerbox><div  id = stim2></div></div>","32","32","750","","test","go","210","adv","","",""
"","548","32","1482","0","test_block","poldrack-single-stim","225","354014","0.0-5.0-211.0","go-nogo","true","0","","true","<div class = centerbox><div  id = stim2></div></div>","32","32","750","","test","go","211","adv","","",""
"","299","32","1058","0","test_block","poldrack-single-stim","226","355101","0.0-5.0-212.0","go-nogo","true","0","","false","<div class = centerbox><div  id = stim1></div></div>","-1","32","750","","test","nogo","212","adv","","",""
"","-1","-1","1035","0","test_block","poldrack-single-stim","227","356162","0.0-5.0-213.0","go-nogo","true","0","","true","<div class = centerbox><div  id = stim1></div></div>","-1","32","750","","test","nogo","213","adv","","",""
"","332","32","1081","0","test_block","poldrack-single-stim","228","357266","0.0-5.0-214.0","go-nogo","true","0","","true","<div class = centerbox><div  id = stim2></div></div>","32","32","750","","test","go","214","adv","","",""
"","429","32","1078","0","test_block","poldrack-single-stim","229","358370","0.0-5.0-215.0","go-nogo","true","0","","true","<div class = centerbox><div  id = stim2></div></div>","32","32","750","","test","go","215","adv","","",""
"","387","32","1151","0","test_block","poldrack-single-stim","230","359547","0.0-5.0-216.0","go-nogo","true","0","","true","<div class = centerbox><div  id = stim2></div></div>","32","32","750","","test","go","216","adv","","",""
"","-1","-1","1198","0","test_block","poldrack-single-stim","231","360771","0.0-5.0-217.0","go-nogo","true","0","","true","<div class = centerbox><div  id = stim1></div></div>","-1","32","750","","test","nogo","217","adv","","",""
"","407","32","1249","0","test_block","poldrack-single-stim","232","362050","0.0-5.0-218.0","go-nogo","true","0","","true","<div class = centerbox><div  id = stim2></div></div>","32","32","750","","test","go","218","adv","","",""
"","302","32","1091","0","test_block","poldrack-single-stim","233","363170","0.0-5.0-219.0","go-nogo","true","0","","true","<div class = centerbox><div  id = stim2></div></div>","32","32","750","","test","go","219","adv","","",""
"","398","32","1329","0","test_block","poldrack-single-stim","234","364529","0.0-5.0-220.0","go-nogo","true","0","","true","<div class = centerbox><div  id = stim2></div></div>","32","32","750","","test","go","220","adv","","",""
"","-1","-1","1168","0","test_block","poldrack-single-stim","235","365726","0.0-5.0-221.0","go-nogo","true","0","","true","<div class = centerbox><div  id = stim1></div></div>","-1","32","750","","test","nogo","221","adv","","",""
"","437","32","1166","0","test_block","poldrack-single-stim","236","366916","0.0-5.0-222.0","go-nogo","true","0","","true","<div class = centerbox><div  id = stim2></div></div>","32","32","750","","test","go","222","adv","","",""
"","343","32","1402","0","test_block","poldrack-single-stim","237","368348","0.0-5.0-223.0","go-nogo","true","0","","true","<div class = centerbox><div  id = stim2></div></div>","32","32","750","","test","go","223","adv","","",""
"","308","32","1485","0","test_block","poldrack-single-stim","238","369870","0.0-5.0-224.0","go-nogo","true","0","","true","<div class = centerbox><div  id = stim2></div></div>","32","32","750","","test","go","224","adv","","",""
"","457","32","1297","0","test_block","poldrack-single-stim","239","371193","0.0-5.0-225.0","go-nogo","true","0","","true","<div class = centerbox><div  id = stim2></div></div>","32","32","750","","test","go","225","adv","","",""
"","317","32","1257","0","test_block","poldrack-single-stim","240","372476","0.0-5.0-226.0","go-nogo","true","0","","true","<div class = centerbox><div  id = stim2></div></div>","32","32","750","","test","go","226","adv","","",""
"","-1","-1","1220","0","test_block","poldrack-single-stim","241","373722","0.0-5.0-227.0","go-nogo","true","0","","true","<div class = centerbox><div  id = stim1></div></div>","-1","32","750","","test","nogo","227","adv","","",""
"","411","32","1221","0","test_block","poldrack-single-stim","242","374968","0.0-5.0-228.0","go-nogo","true","0","","true","<div class = centerbox><div  id = stim2></div></div>","32","32","750","","test","go","228","adv","","",""
"","378","32","1402","0","test_block","poldrack-single-stim","243","376399","0.0-5.0-229.0","go-nogo","true","0","","true","<div class = centerbox><div  id = stim2></div></div>","32","32","750","","test","go","229","adv","","",""
"","311","32","1411","0","test_block","poldrack-single-stim","244","377838","0.0-5.0-230.0","go-nogo","true","0","","true","<div class = centerbox><div  id = stim2></div></div>","32","32","750","","test","go","230","adv","","",""
"","306","32","1441","0","test_block","poldrack-single-stim","245","379306","0.0-5.0-231.0","go-nogo","true","0","","true","<div class = centerbox><div  id = stim2></div></div>","32","32","750","","test","go","231","adv","","",""
"","318","32","1455","0","test_block","poldrack-single-stim","246","380790","0.0-5.0-232.0","go-nogo","true","0","","true","<div class = centerbox><div  id = stim2></div></div>","32","32","750","","test","go","232","adv","","",""
"","299","32","1416","0","test_block","poldrack-single-stim","247","382234","0.0-5.0-233.0","go-nogo","true","0","","true","<div class = centerbox><div  id = stim2></div></div>","32","32","750","","test","go","233","adv","","",""
"","306","32","1218","0","test_block","poldrack-single-stim","248","383480","0.0-5.0-234.0","go-nogo","true","0","","true","<div class = centerbox><div  id = stim2></div></div>","32","32","750","","test","go","234","adv","","",""
"","343","32","1240","0","test_block","poldrack-single-stim","249","384746","0.0-5.0-235.0","go-nogo","true","0","","true","<div class = centerbox><div  id = stim2></div></div>","32","32","750","","test","go","235","adv","","",""
"","348","32","1312","0","test_block","poldrack-single-stim","250","386083","0.0-5.0-236.0","go-nogo","true","0","","true","<div class = centerbox><div  id = stim2></div></div>","32","32","750","","test","go","236","adv","","",""
"","279","32","1131","0","test_block","poldrack-single-stim","251","387242","0.0-5.0-237.0","go-nogo","true","0","","true","<div class = centerbox><div  id = stim2></div></div>","32","32","750","","test","go","237","adv","","",""
"","-1","-1","1304","0","test_block","poldrack-single-stim","252","388573","0.0-5.0-238.0","go-nogo","true","0","","true","<div class = centerbox><div  id = stim1></div></div>","-1","32","750","","test","nogo","238","adv","","",""
"","278","32","1144","0","test_block","poldrack-single-stim","253","389743","0.0-5.0-239.0","go-nogo","true","0","","true","<div class = centerbox><div  id = stim2></div></div>","32","32","750","","test","go","239","adv","","",""
"","310","32","1486","0","test_block","poldrack-single-stim","254","391255","0.0-5.0-240.0","go-nogo","true","0","","true","<div class = centerbox><div  id = stim2></div></div>","32","32","750","","test","go","240","adv","","",""
"","317","32","1244","0","test_block","poldrack-single-stim","255","392525","0.0-5.0-241.0","go-nogo","true","0","","true","<div class = centerbox><div  id = stim2></div></div>","32","32","750","","test","go","241","adv","","",""
"","271","32","1481","0","test_block","poldrack-single-stim","256","394037","0.0-5.0-242.0","go-nogo","true","0","","true","<div class = centerbox><div  id = stim2></div></div>","32","32","750","","test","go","242","adv","","",""
"","283","32","1394","0","test_block","poldrack-single-stim","257","395459","0.0-5.0-243.0","go-nogo","true","0","","true","<div class = centerbox><div  id = stim2></div></div>","32","32","750","","test","go","243","adv","","",""
"","370","32","1326","0","test_block","poldrack-single-stim","258","396810","0.0-5.0-244.0","go-nogo","true","0","","true","<div class = centerbox><div  id = stim2></div></div>","32","32","750","","test","go","244","adv","","",""
"","313","32","1094","0","test_block","poldrack-single-stim","259","397931","0.0-5.0-245.0","go-nogo","true","0","","true","<div class = centerbox><div  id = stim2></div></div>","32","32","750","","test","go","245","adv","","",""
"","283","32","1457","0","test_block","poldrack-single-stim","260","399416","0.0-5.0-246.0","go-nogo","true","0","","true","<div class = centerbox><div  id = stim2></div></div>","32","32","750","","test","go","246","adv","","",""
"","320","32","1114","0","test_block","poldrack-single-stim","261","400557","0.0-5.0-247.0","go-nogo","true","0","","true","<div class = centerbox><div  id = stim2></div></div>","32","32","750","","test","go","247","adv","","",""
"","303","32","1126","0","test_block","poldrack-single-stim","262","401709","0.0-5.0-248.0","go-nogo","true","0","","true","<div class = centerbox><div  id = stim2></div></div>","32","32","750","","test","go","248","adv","","",""
"","-1","-1","1094","0","test_block","poldrack-single-stim","263","402826","0.0-5.0-249.0","go-nogo","true","0","","true","<div class = centerbox><div  id = stim1></div></div>","-1","32","750","","test","nogo","249","adv","","",""
"","345","32","1236","0","test_block","poldrack-single-stim","264","404092","0.0-5.0-250.0","go-nogo","true","0","","true","<div class = centerbox><div  id = stim2></div></div>","32","32","750","","test","go","250","adv","","",""
"","337","32","1180","0","test_block","poldrack-single-stim","265","405297","0.0-5.0-251.0","go-nogo","true","0","","true","<div class = centerbox><div  id = stim2></div></div>","32","32","750","","test","go","251","adv","","",""
"","523","32","1128","0","test_block","poldrack-single-stim","266","406452","0.0-5.0-252.0","go-nogo","true","0","","true","<div class = centerbox><div  id = stim2></div></div>","32","32","750","","test","go","252","adv","","",""
"","335","32","1327","0","test_block","poldrack-single-stim","267","407807","0.0-5.0-253.0","go-nogo","true","0","","true","<div class = centerbox><div  id = stim2></div></div>","32","32","750","","test","go","253","adv","","",""
"","354","32","1068","0","test_block","poldrack-single-stim","268","408902","0.0-5.0-254.0","go-nogo","true","0","","true","<div class = centerbox><div  id = stim2></div></div>","32","32","750","","test","go","254","adv","","",""
"","350","32","1162","0","test_block","poldrack-single-stim","269","410086","0.0-5.0-255.0","go-nogo","true","0","","true","<div class = centerbox><div  id = stim2></div></div>","32","32","750","","test","go","255","adv","","",""
"","300","32","1266","0","test_block","poldrack-single-stim","270","411377","0.0-5.0-256.0","go-nogo","true","0","","true","<div class = centerbox><div  id = stim2></div></div>","32","32","750","","test","go","256","adv","","",""
"","283","32","1046","0","test_block","poldrack-single-stim","271","412447","0.0-5.0-257.0","go-nogo","true","0","","true","<div class = centerbox><div  id = stim2></div></div>","32","32","750","","test","go","257","adv","","",""
"","304","32","1403","0","test_block","poldrack-single-stim","272","413881","0.0-5.0-258.0","go-nogo","true","0","","true","<div class = centerbox><div  id = stim2></div></div>","32","32","750","","test","go","258","adv","","",""
"","348","32","1325","0","test_block","poldrack-single-stim","273","415232","0.0-5.0-259.0","go-nogo","true","0","","true","<div class = centerbox><div  id = stim2></div></div>","32","32","750","","test","go","259","adv","","",""
"","253","32","1327","0","test_block","poldrack-single-stim","274","416582","0.0-5.0-260.0","go-nogo","true","0","","false","<div class = centerbox><div  id = stim1></div></div>","-1","32","750","","test","nogo","260","adv","","",""
"","426","32","1179","0","test_block","poldrack-single-stim","275","417785","0.0-5.0-261.0","go-nogo","true","0","","true","<div class = centerbox><div  id = stim2></div></div>","32","32","750","","test","go","261","adv","","",""
"","317","32","1458","0","test_block","poldrack-single-stim","276","419268","0.0-5.0-262.0","go-nogo","true","0","","true","<div class = centerbox><div  id = stim2></div></div>","32","32","750","","test","go","262","adv","","",""
"","-1","-1","1041","0","test_block","poldrack-single-stim","277","420337","0.0-5.0-263.0","go-nogo","true","0","","true","<div class = centerbox><div  id = stim1></div></div>","-1","32","750","","test","nogo","263","adv","","",""
"","351","32","1455","0","test_block","poldrack-single-stim","278","421816","0.0-5.0-264.0","go-nogo","true","0","","true","<div class = centerbox><div  id = stim2></div></div>","32","32","750","","test","go","264","adv","","",""
"","420","32","1386","0","test_block","poldrack-single-stim","279","423230","0.0-5.0-265.0","go-nogo","true","0","","true","<div class = centerbox><div  id = stim2></div></div>","32","32","750","","test","go","265","adv","","",""
"","-1","-1","1268","0","test_block","poldrack-single-stim","280","424524","0.0-5.0-266.0","go-nogo","true","0","","true","<div class = centerbox><div  id = stim1></div></div>","-1","32","750","","test","nogo","266","adv","","",""
"","306","32","1334","0","test_block","poldrack-single-stim","281","425886","0.0-5.0-267.0","go-nogo","true","0","","true","<div class = centerbox><div  id = stim2></div></div>","32","32","750","","test","go","267","adv","","",""
"","280","32","1153","0","test_block","poldrack-single-stim","282","427064","0.0-5.0-268.0","go-nogo","true","0","","true","<div class = centerbox><div  id = stim2></div></div>","32","32","750","","test","go","268","adv","","",""
"","305","32","1108","0","test_block","poldrack-single-stim","283","428200","0.0-5.0-269.0","go-nogo","true","0","","true","<div class = centerbox><div  id = stim2></div></div>","32","32","750","","test","go","269","adv","","",""
"","298","32","1196","0","test_block","poldrack-single-stim","284","429425","0.0-5.0-270.0","go-nogo","true","0","","true","<div class = centerbox><div  id = stim2></div></div>","32","32","750","","test","go","270","adv","","",""
"","288","32","1260","0","test_block","poldrack-single-stim","285","430710","0.0-5.0-271.0","go-nogo","true","0","","true","<div class = centerbox><div  id = stim2></div></div>","32","32","750","","test","go","271","adv","","",""
"","-1","-1","1072","0","test_block","poldrack-single-stim","286","431809","0.0-5.0-272.0","go-nogo","true","0","","true","<div class = centerbox><div  id = stim1></div></div>","-1","32","750","","test","nogo","272","adv","","",""
"","293","32","1327","0","test_block","poldrack-single-stim","287","433161","0.0-5.0-273.0","go-nogo","true","0","","true","<div class = centerbox><div  id = stim2></div></div>","32","32","750","","test","go","273","adv","","",""
"","309","32","1424","0","test_block","poldrack-single-stim","288","434612","0.0-5.0-274.0","go-nogo","true","0","","true","<div class = centerbox><div  id = stim2></div></div>","32","32","750","","test","go","274","adv","","",""
"","299","32","1298","0","test_block","poldrack-single-stim","289","435937","0.0-5.0-275.0","go-nogo","true","0","","true","<div class = centerbox><div  id = stim2></div></div>","32","32","750","","test","go","275","adv","","",""
"","301","32","1363","0","test_block","poldrack-single-stim","290","437330","0.0-5.0-276.0","go-nogo","true","0","","true","<div class = centerbox><div  id = stim2></div></div>","32","32","750","","test","go","276","adv","","",""
"","277","32","1257","0","test_block","poldrack-single-stim","291","438625","0.0-5.0-277.0","go-nogo","true","0","","true","<div class = centerbox><div  id = stim2></div></div>","32","32","750","","test","go","277","adv","","",""
"","292","32","1480","0","test_block","poldrack-single-stim","292","440132","0.0-5.0-278.0","go-nogo","true","0","","true","<div class = centerbox><div  id = stim2></div></div>","32","32","750","","test","go","278","adv","","",""
"","366","32","1331","0","test_block","poldrack-single-stim","293","441492","0.0-5.0-279.0","go-nogo","true","0","","true","<div class = centerbox><div  id = stim2></div></div>","32","32","750","","test","go","279","adv","","",""
"","299","32","1388","0","test_block","poldrack-single-stim","294","442911","0.0-5.0-280.0","go-nogo","true","0","","true","<div class = centerbox><div  id = stim2></div></div>","32","32","750","","test","go","280","adv","","",""
"","297","32","1377","0","test_block","poldrack-single-stim","295","444313","0.0-5.0-281.0","go-nogo","true","0","","true","<div class = centerbox><div  id = stim2></div></div>","32","32","750","","test","go","281","adv","","",""
"","286","32","1053","0","test_block","poldrack-single-stim","296","445396","0.0-5.0-282.0","go-nogo","true","0","","true","<div class = centerbox><div  id = stim2></div></div>","32","32","750","","test","go","282","adv","","",""
"","328","32","1087","0","test_block","poldrack-single-stim","297","446510","0.0-5.0-283.0","go-nogo","true","0","","true","<div class = centerbox><div  id = stim2></div></div>","32","32","750","","test","go","283","adv","","",""
"","-1","-1","1488","0","test_block","poldrack-single-stim","298","448029","0.0-5.0-284.0","go-nogo","true","0","","true","<div class = centerbox><div  id = stim1></div></div>","-1","32","750","","test","nogo","284","adv","","",""
"","319","32","1393","0","test_block","poldrack-single-stim","299","449450","0.0-5.0-285.0","go-nogo","true","0","","true","<div class = centerbox><div  id = stim2></div></div>","32","32","750","","test","go","285","adv","","",""
"","315","32","1473","0","test_block","poldrack-single-stim","300","450951","0.0-5.0-286.0","go-nogo","true","0","","true","<div class = centerbox><div  id = stim2></div></div>","32","32","750","","test","go","286","adv","","",""
"","302","32","1401","0","test_block","poldrack-single-stim","301","452380","0.0-5.0-287.0","go-nogo","true","0","","true","<div class = centerbox><div  id = stim2></div></div>","32","32","750","","test","go","287","adv","","",""
"","299","32","1017","0","test_block","poldrack-single-stim","302","453429","0.0-5.0-288.0","go-nogo","true","0","","true","<div class = centerbox><div  id = stim2></div></div>","32","32","750","","test","go","288","adv","","",""
"","320","32","1083","0","test_block","poldrack-single-stim","303","454537","0.0-5.0-289.0","go-nogo","true","0","","true","<div class = centerbox><div  id = stim2></div></div>","32","32","750","","test","go","289","adv","","",""
"","355","32","1160","0","test_block","poldrack-single-stim","304","455724","0.0-5.0-290.0","go-nogo","true","0","","true","<div class = centerbox><div  id = stim2></div></div>","32","32","750","","test","go","290","adv","","",""
"","336","32","1485","0","test_block","poldrack-single-stim","305","457236","0.0-5.0-291.0","go-nogo","true","0","","true","<div class = centerbox><div  id = stim2></div></div>","32","32","750","","test","go","291","adv","","",""
"","292","32","1124","0","test_block","poldrack-single-stim","306","458388","0.0-5.0-292.0","go-nogo","true","0","","true","<div class = centerbox><div  id = stim2></div></div>","32","32","750","","test","go","292","adv","","",""
"","347","32","1027","0","test_block","poldrack-single-stim","307","459442","0.0-5.0-293.0","go-nogo","true","0","","true","<div class = centerbox><div  id = stim2></div></div>","32","32","750","","test","go","293","adv","","",""
"","340","32","1104","0","test_block","poldrack-single-stim","308","460573","0.0-5.0-294.0","go-nogo","true","0","","true","<div class = centerbox><div  id = stim2></div></div>","32","32","750","","test","go","294","adv","","",""
"","340","32","1252","0","test_block","poldrack-single-stim","309","461849","0.0-5.0-295.0","go-nogo","true","0","","true","<div class = centerbox><div  id = stim2></div></div>","32","32","750","","test","go","295","adv","","",""
"","301","32","1349","0","test_block","poldrack-single-stim","310","463225","0.0-5.0-296.0","go-nogo","true","0","","true","<div class = centerbox><div  id = stim2></div></div>","32","32","750","","test","go","296","adv","","",""
"","325","32","1052","0","test_block","poldrack-single-stim","311","464306","0.0-5.0-297.0","go-nogo","true","0","","true","<div class = centerbox><div  id = stim2></div></div>","32","32","750","","test","go","297","adv","","",""
"","326","32","1158","0","test_block","poldrack-single-stim","312","465487","0.0-5.0-298.0","go-nogo","true","0","","true","<div class = centerbox><div  id = stim2></div></div>","32","32","750","","test","go","298","adv","","",""
"","311","32","1088","0","test_block","poldrack-single-stim","313","466602","0.0-5.0-299.0","go-nogo","true","0","","false","<div class = centerbox><div  id = stim1></div></div>","-1","32","750","","test","nogo","299","adv","","",""
"","358","32","1187","0","test_block","poldrack-single-stim","314","467818","0.0-5.0-300.0","go-nogo","true","0","","true","<div class = centerbox><div  id = stim2></div></div>","32","32","750","","test","go","300","adv","","",""
"","358","32","1311","0","test_block","poldrack-single-stim","315","469157","0.0-5.0-301.0","go-nogo","true","0","","true","<div class = centerbox><div  id = stim2></div></div>","32","32","750","","test","go","301","adv","","",""
"","-1","-1","1235","0","test_block","poldrack-single-stim","316","470423","0.0-5.0-302.0","go-nogo","true","0","","true","<div class = centerbox><div  id = stim1></div></div>","-1","32","750","","test","nogo","302","adv","","",""
"","286","32","1030","0","test_block","poldrack-single-stim","317","471477","0.0-5.0-303.0","go-nogo","true","0","","true","<div class = centerbox><div  id = stim2></div></div>","32","32","750","","test","go","303","adv","","",""
"","343","32","1486","0","test_block","poldrack-single-stim","318","472986","0.0-5.0-304.0","go-nogo","true","0","","true","<div class = centerbox><div  id = stim2></div></div>","32","32","750","","test","go","304","adv","","",""
"","274","32","1107","0","test_block","poldrack-single-stim","319","474123","0.0-5.0-305.0","go-nogo","true","0","","false","<div class = centerbox><div  id = stim1></div></div>","-1","32","750","","test","nogo","305","adv","","",""
"","363","32","1138","0","test_block","poldrack-single-stim","320","475285","0.0-5.0-306.0","go-nogo","true","0","","true","<div class = centerbox><div  id = stim2></div></div>","32","32","750","","test","go","306","adv","","",""
"","298","32","1254","0","test_block","poldrack-single-stim","321","476564","0.0-5.0-307.0","go-nogo","true","0","","true","<div class = centerbox><div  id = stim2></div></div>","32","32","750","","test","go","307","adv","","",""
"","-1","-1","1347","0","test_block","poldrack-single-stim","322","477939","0.0-5.0-308.0","go-nogo","true","0","","true","<div class = centerbox><div  id = stim1></div></div>","-1","32","750","","test","nogo","308","adv","","",""
"","378","32","1348","0","test_block","poldrack-single-stim","323","479312","0.0-5.0-309.0","go-nogo","true","0","","true","<div class = centerbox><div  id = stim2></div></div>","32","32","750","","test","go","309","adv","","",""
"","374","32","1422","0","test_block","poldrack-single-stim","324","480759","0.0-5.0-310.0","go-nogo","true","0","","true","<div class = centerbox><div  id = stim2></div></div>","32","32","750","","test","go","310","adv","","",""
"","-1","-1","1188","0","test_block","poldrack-single-stim","325","481973","0.0-5.0-311.0","go-nogo","true","0","","true","<div class = centerbox><div  id = stim1></div></div>","-1","32","750","","test","nogo","311","adv","","",""
"","309","32","1108","0","test_block","poldrack-single-stim","326","483131","0.0-5.0-312.0","go-nogo","true","0","","true","<div class = centerbox><div  id = stim2></div></div>","32","32","750","","test","go","312","adv","","",""
"","362","32","1271","0","test_block","poldrack-single-stim","327","484430","0.0-5.0-313.0","go-nogo","true","0","","true","<div class = centerbox><div  id = stim2></div></div>","32","32","750","","test","go","313","adv","","",""
"","-1","-1","1150","0","test_block","poldrack-single-stim","328","485605","0.0-5.0-314.0","go-nogo","true","0","","true","<div class = centerbox><div  id = stim1></div></div>","-1","32","750","","test","nogo","314","adv","","",""
"","289","32","1346","0","test_block","poldrack-single-stim","329","486981","0.0-5.0-315.0","go-nogo","true","0","","true","<div class = centerbox><div  id = stim2></div></div>","32","32","750","","test","go","315","adv","","",""
"","538","32","1258","0","test_block","poldrack-single-stim","330","488264","0.0-5.0-316.0","go-nogo","true","0","","true","<div class = centerbox><div  id = stim2></div></div>","32","32","750","","test","go","316","adv","","",""
"","357","32","1104","0","test_block","poldrack-single-stim","331","489392","0.0-5.0-317.0","go-nogo","true","0","","true","<div class = centerbox><div  id = stim2></div></div>","32","32","750","","test","go","317","adv","","",""
"","324","32","1219","0","test_block","poldrack-single-stim","332","490641","0.0-5.0-318.0","go-nogo","true","0","","true","<div class = centerbox><div  id = stim2></div></div>","32","32","750","","test","go","318","adv","","",""
"","322","32","1404","0","test_block","poldrack-single-stim","333","492075","0.0-5.0-319.0","go-nogo","true","0","","true","<div class = centerbox><div  id = stim2></div></div>","32","32","750","","test","go","319","adv","","",""
"","329","32","1108","0","test_block","poldrack-single-stim","334","493211","0.0-5.0-320.0","go-nogo","true","0","","true","<div class = centerbox><div  id = stim2></div></div>","32","32","750","","test","go","320","adv","","",""
"","-1","-1","1438","0","test_block","poldrack-single-stim","335","494677","0.0-5.0-321.0","go-nogo","true","0","","true","<div class = centerbox><div  id = stim1></div></div>","-1","32","750","","test","nogo","321","adv","","",""
"","339","32","1324","0","test_block","poldrack-single-stim","336","496030","0.0-5.0-322.0","go-nogo","true","0","","true","<div class = centerbox><div  id = stim2></div></div>","32","32","750","","test","go","322","adv","","",""
"","316","32","1292","0","test_block","poldrack-single-stim","337","497345","0.0-5.0-323.0","go-nogo","true","0","","true","<div class = centerbox><div  id = stim2></div></div>","32","32","750","","test","go","323","adv","","",""
"","322","32","1045","0","test_block","poldrack-single-stim","338","498424","0.0-5.0-324.0","go-nogo","true","0","","true","<div class = centerbox><div  id = stim2></div></div>","32","32","750","","test","go","324","adv","","",""
"","817","32","1095","0","test_block","poldrack-single-stim","339","499544","0.0-5.0-325.0","go-nogo","true","0","","true","<div class = centerbox><div  id = stim2></div></div>","32","32","750","","test","go","325","adv","","",""
"","376","32","1216","0","test_block","poldrack-single-stim","340","500787","0.0-5.0-326.0","go-nogo","true","0","","true","<div class = centerbox><div  id = stim2></div></div>","32","32","750","","test","go","326","adv","","",""
"","356","32","1431","0","test_block","poldrack-single-stim","341","502246","0.0-5.0-327.0","go-nogo","true","0","","true","<div class = centerbox><div  id = stim2></div></div>","32","32","750","","test","go","327","adv","","",""
"","293","32","1179","0","test_block","poldrack-single-stim","342","503450","0.0-5.0-328.0","go-nogo","true","0","","true","<div class = centerbox><div  id = stim2></div></div>","32","32","750","","test","go","328","adv","","",""
"","308","32","1064","0","test_block","poldrack-single-stim","343","504544","0.0-5.0-329.0","go-nogo","true","0","","true","<div class = centerbox><div  id = stim2></div></div>","32","32","750","","test","go","329","adv","","",""
"","342","32","1114","0","test_block","poldrack-single-stim","344","505686","0.0-5.0-330.0","go-nogo","true","0","","true","<div class = centerbox><div  id = stim2></div></div>","32","32","750","","test","go","330","adv","","",""
"","313","32","1489","0","test_block","poldrack-single-stim","345","507201","0.0-5.0-331.0","go-nogo","true","0","","true","<div class = centerbox><div  id = stim2></div></div>","32","32","750","","test","go","331","adv","","",""
"","322","32","1093","0","test_block","poldrack-single-stim","346","508320","0.0-5.0-332.0","go-nogo","true","0","","true","<div class = centerbox><div  id = stim2></div></div>","32","32","750","","test","go","332","adv","","",""
"","299","32","1289","0","test_block","poldrack-single-stim","347","509638","0.0-5.0-333.0","go-nogo","true","0","","true","<div class = centerbox><div  id = stim2></div></div>","32","32","750","","test","go","333","adv","","",""
"","358","32","1023","0","test_block","poldrack-single-stim","348","510689","0.0-5.0-334.0","go-nogo","true","0","","true","<div class = centerbox><div  id = stim2></div></div>","32","32","750","","test","go","334","adv","","",""
"","363","32","1361","0","test_block","poldrack-single-stim","349","512075","0.0-5.0-335.0","go-nogo","true","0","","true","<div class = centerbox><div  id = stim2></div></div>","32","32","750","","test","go","335","adv","","",""
"","252","32","1390","0","test_block","poldrack-single-stim","350","513489","0.0-5.0-336.0","go-nogo","true","0","","true","<div class = centerbox><div  id = stim2></div></div>","32","32","750","","test","go","336","adv","","",""
"","280","32","1010","0","test_block","poldrack-single-stim","351","514526","0.0-5.0-337.0","go-nogo","true","0","","true","<div class = centerbox><div  id = stim2></div></div>","32","32","750","","test","go","337","adv","","",""
"","448","32","1342","0","test_block","poldrack-single-stim","352","515899","0.0-5.0-338.0","go-nogo","true","0","","true","<div class = centerbox><div  id = stim2></div></div>","32","32","750","","test","go","338","adv","","",""
"","328","32","1199","0","test_block","poldrack-single-stim","353","517126","0.0-5.0-339.0","go-nogo","true","0","","true","<div class = centerbox><div  id = stim2></div></div>","32","32","750","","test","go","339","adv","","",""
"","355","32","1375","0","test_block","poldrack-single-stim","354","518527","0.0-5.0-340.0","go-nogo","true","0","","true","<div class = centerbox><div  id = stim2></div></div>","32","32","750","","test","go","340","adv","","",""
"","301","32","1290","0","test_block","poldrack-single-stim","355","519841","0.0-5.0-341.0","go-nogo","true","0","","true","<div class = centerbox><div  id = stim2></div></div>","32","32","750","","test","go","341","adv","","",""
"","294","32","1015","0","test_block","poldrack-single-stim","356","520880","0.0-5.0-342.0","go-nogo","true","0","","true","<div class = centerbox><div  id = stim2></div></div>","32","32","750","","test","go","342","adv","","",""
"","292","32","1268","0","test_block","poldrack-single-stim","357","522175","0.0-5.0-343.0","go-nogo","true","0","","true","<div class = centerbox><div  id = stim2></div></div>","32","32","750","","test","go","343","adv","","",""
"","293","32","1143","0","test_block","poldrack-single-stim","358","523346","0.0-5.0-344.0","go-nogo","true","0","","true","<div class = centerbox><div  id = stim2></div></div>","32","32","750","","test","go","344","adv","","",""
"","339","32","1203","0","test_block","poldrack-single-stim","359","524575","0.0-5.0-345.0","go-nogo","true","0","","true","<div class = centerbox><div  id = stim2></div></div>","32","32","750","","test","go","345","adv","","",""
"","259","32","1426","0","test_block","poldrack-single-stim","360","526025","0.0-5.0-346.0","go-nogo","true","0","","true","<div class = centerbox><div  id = stim2></div></div>","32","32","750","","test","go","346","adv","","",""
"","283","32","1092","0","test_block","poldrack-single-stim","361","527145","0.0-5.0-347.0","go-nogo","true","0","","true","<div class = centerbox><div  id = stim2></div></div>","32","32","750","","test","go","347","adv","","",""
"","282","32","1099","0","test_block","poldrack-single-stim","362","528272","0.0-5.0-348.0","go-nogo","true","0","","false","<div class = centerbox><div  id = stim1></div></div>","-1","32","750","","test","nogo","348","adv","","",""
"","-1","-1","1355","0","test_block","poldrack-single-stim","363","529651","0.0-5.0-349.0","go-nogo","true","0","","true","<div class = centerbox><div  id = stim1></div></div>","-1","32","750","","test","nogo","349","adv","","",""
"","91950","","","","post task questions","survey-text","364","621628","0.0-7.0","go-nogo","true","3","","","","","","","","","","","","{""Q0"":""I reacted to the blue squares, I tried not to react to the orange squares."",""Q1"":""it is very tiring, one gets tense after a point.\n""}","",""
"<div class = centerbox><p class = center-block-text>Thanks for completing this task!</p><p class = center-block-text>Insert the following code to collect your payment at Amazon Mechanical Turk:</p><p class = center-block-text>111691317</p><p class = center-block-text>Press <strong>enter</strong> to continue.</p></div>","10873","13","10873","0","end","poldrack-text","365","633507","0.0-8.0","go-nogo","true","0","","","","","","","","","","","","","111691317","true"
