"text","rt","key_press","block_duration","timing_post_trial","trial_id","trial_type","trial_index","time_elapsed","internal_node_id","exp_id","full_screen","focus_shifts","view_history","correct","stimulus","correct_response","possible_responses","stim_duration","feedback_duration","exp_stage","condition","trial_num","mode","responses","payment_id","credit_var"
"<div class = centerbox><p class = center-block-text>Welcome to the experiment. This task will take around 10 minutes. Press <strong>enter</strong> to begin.</p></div>","6981","13","6981","0","instruction","poldrack-text","0","6982","0.0-0.0-0.0","go-nogo","true","0","","","","","","","","","","","","","",""
"","7898","","","","instruction","poldrack-instructions","1","14880","0.0-0.0-1.0","go-nogo","true","0","[{""page_index"":0,""viewing_time"":7898}]","","","","","","","","","","","","",""
"","547","32","1280","250","practice","poldrack-categorize","2","18168","0.0-1.0-0.0","go-nogo","true","0","","true","<div class = centerbox><div  id = stim2></div></div>","32","32","750","1000","practice","go","0","adv","","",""
"","471","32","1103","250","practice","poldrack-categorize","3","20526","0.0-1.0-1.0","go-nogo","true","0","","true","<div class = centerbox><div  id = stim2></div></div>","32","32","750","1000","practice","go","1","adv","","",""
"","-1","-1","1396","250","practice","poldrack-categorize","4","23179","0.0-1.0-2.0","go-nogo","true","0","","true","<div class = centerbox><div id = stim1></div></div>","-1","32","750","1000","practice","nogo","2","adv","","",""
"","-1","-1","1328","250","practice","poldrack-categorize","5","25763","0.0-1.0-3.0","go-nogo","true","0","","true","<div class = centerbox><div id = stim1></div></div>","-1","32","750","1000","practice","nogo","3","adv","","",""
"","-1","-1","1416","250","practice","poldrack-categorize","6","28435","0.0-1.0-4.0","go-nogo","true","0","","true","<div class = centerbox><div id = stim1></div></div>","-1","32","750","1000","practice","nogo","4","adv","","",""
"","821","32","1088","250","practice","poldrack-categorize","7","30778","0.0-1.0-5.0","go-nogo","true","0","","true","<div class = centerbox><div  id = stim2></div></div>","32","32","750","1000","practice","go","5","adv","","",""
"","377","32","1104","250","practice","poldrack-categorize","8","33138","0.0-1.0-6.0","go-nogo","true","0","","true","<div class = centerbox><div  id = stim2></div></div>","32","32","750","1000","practice","go","6","adv","","",""
"","353","32","1448","250","practice","poldrack-categorize","9","35843","0.0-1.0-7.0","go-nogo","true","0","","true","<div class = centerbox><div  id = stim2></div></div>","32","32","750","1000","practice","go","7","adv","","",""
"","-1","-1","1111","250","practice","poldrack-categorize","10","38214","0.0-1.0-8.0","go-nogo","true","0","","true","<div class = centerbox><div id = stim1></div></div>","-1","32","750","1000","practice","nogo","8","adv","","",""
"","-1","-1","1327","250","practice","poldrack-categorize","11","40797","0.0-1.0-9.0","go-nogo","true","0","","true","<div class = centerbox><div id = stim1></div></div>","-1","32","750","1000","practice","nogo","9","adv","","",""
"","","","","","reset_trial","call-function","12","41048","0.0-3.0","go-nogo","true","0","","","","","","","","","","","","","",""
"<div class = centerbox><p class = block-text>Practice is over, we will now begin the experiment. You will no longer get feedback about your responses.</p><p class = block-text>Remember, if you see the <font color=""blue"">blue</font> square you should <strong> respond by pressing the spacebar as quickly as possible</strong>. If you see the <font color=""orange"">orange</font> square you should <strong> not respond</strong>. Press <strong>enter</strong> to begin.</p></div>","4122","13","4122","1000","test_intro","poldrack-text","13","45171","0.0-4.0","go-nogo","true","0","","","","","","","","","","","","","",""
"","337","32","1172","0","test_block","poldrack-single-stim","14","47348","0.0-5.0-0.0","go-nogo","true","0","","true","<div class = centerbox><div  id = stim2></div></div>","32","32","750","","test","go","0","adv","","",""
"","412","32","1055","0","test_block","poldrack-single-stim","15","48502","0.0-5.0-1.0","go-nogo","true","0","","true","<div class = centerbox><div  id = stim2></div></div>","32","32","750","","test","go","1","adv","","",""
"","349","32","1032","0","test_block","poldrack-single-stim","16","49628","0.0-5.0-2.0","go-nogo","true","0","","true","<div class = centerbox><div  id = stim2></div></div>","32","32","750","","test","go","2","adv","","",""
"","283","32","1054","0","test_block","poldrack-single-stim","17","50749","0.0-5.0-3.0","go-nogo","true","0","","true","<div class = centerbox><div  id = stim2></div></div>","32","32","750","","test","go","3","adv","","",""
"","262","32","1085","0","test_block","poldrack-single-stim","18","51896","0.0-5.0-4.0","go-nogo","true","0","","true","<div class = centerbox><div  id = stim2></div></div>","32","32","750","","test","go","4","adv","","",""
"","272","32","1016","0","test_block","poldrack-single-stim","19","52977","0.0-5.0-5.0","go-nogo","true","0","","true","<div class = centerbox><div  id = stim2></div></div>","32","32","750","","test","go","5","adv","","",""
"","294","32","1341","0","test_block","poldrack-single-stim","20","54385","0.0-5.0-6.0","go-nogo","true","0","","true","<div class = centerbox><div  id = stim2></div></div>","32","32","750","","test","go","6","adv","","",""
"","380","32","1283","0","test_block","poldrack-single-stim","21","55744","0.0-5.0-7.0","go-nogo","true","0","","true","<div class = centerbox><div  id = stim2></div></div>","32","32","750","","test","go","7","adv","","",""
"","346","32","1474","0","test_block","poldrack-single-stim","22","57285","0.0-5.0-8.0","go-nogo","true","0","","true","<div class = centerbox><div  id = stim2></div></div>","32","32","750","","test","go","8","adv","","",""
"","353","32","1037","0","test_block","poldrack-single-stim","23","58381","0.0-5.0-9.0","go-nogo","true","0","","true","<div class = centerbox><div  id = stim2></div></div>","32","32","750","","test","go","9","adv","","",""
"","450","32","1273","0","test_block","poldrack-single-stim","24","59737","0.0-5.0-10.0","go-nogo","true","0","","true","<div class = centerbox><div  id = stim2></div></div>","32","32","750","","test","go","10","adv","","",""
"","266","32","1286","0","test_block","poldrack-single-stim","25","61053","0.0-5.0-11.0","go-nogo","true","0","","true","<div class = centerbox><div  id = stim2></div></div>","32","32","750","","test","go","11","adv","","",""
"","250","32","1393","0","test_block","poldrack-single-stim","26","62554","0.0-5.0-12.0","go-nogo","true","0","","true","<div class = centerbox><div  id = stim2></div></div>","32","32","750","","test","go","12","adv","","",""
"","236","32","1223","0","test_block","poldrack-single-stim","27","63884","0.0-5.0-13.0","go-nogo","true","0","","true","<div class = centerbox><div  id = stim2></div></div>","32","32","750","","test","go","13","adv","","",""
"","277","32","1491","0","test_block","poldrack-single-stim","28","65502","0.0-5.0-14.0","go-nogo","true","0","","true","<div class = centerbox><div  id = stim2></div></div>","32","32","750","","test","go","14","adv","","",""
"","248","32","1210","0","test_block","poldrack-single-stim","29","66772","0.0-5.0-15.0","go-nogo","true","0","","true","<div class = centerbox><div  id = stim2></div></div>","32","32","750","","test","go","15","adv","","",""
"","242","32","1083","0","test_block","poldrack-single-stim","30","67910","0.0-5.0-16.0","go-nogo","true","0","","true","<div class = centerbox><div  id = stim2></div></div>","32","32","750","","test","go","16","adv","","",""
"","304","32","1370","0","test_block","poldrack-single-stim","31","69330","0.0-5.0-17.0","go-nogo","true","0","","true","<div class = centerbox><div  id = stim2></div></div>","32","32","750","","test","go","17","adv","","",""
"","255","32","1383","0","test_block","poldrack-single-stim","32","70778","0.0-5.0-18.0","go-nogo","true","0","","true","<div class = centerbox><div  id = stim2></div></div>","32","32","750","","test","go","18","adv","","",""
"","213","32","1278","0","test_block","poldrack-single-stim","33","72123","0.0-5.0-19.0","go-nogo","true","0","","true","<div class = centerbox><div  id = stim2></div></div>","32","32","750","","test","go","19","adv","","",""
"","182","32","1231","0","test_block","poldrack-single-stim","34","73378","0.0-5.0-20.0","go-nogo","true","0","","true","<div class = centerbox><div  id = stim2></div></div>","32","32","750","","test","go","20","adv","","",""
"","98","32","1215","0","test_block","poldrack-single-stim","35","74726","0.0-5.0-21.0","go-nogo","true","0","","true","<div class = centerbox><div  id = stim2></div></div>","32","32","750","","test","go","21","adv","","",""
"","132","32","1329","0","test_block","poldrack-single-stim","36","76189","0.0-5.0-22.0","go-nogo","true","0","","true","<div class = centerbox><div  id = stim2></div></div>","32","32","750","","test","go","22","adv","","",""
"","242","32","1124","0","test_block","poldrack-single-stim","37","77452","0.0-5.0-23.0","go-nogo","true","0","","true","<div class = centerbox><div  id = stim2></div></div>","32","32","750","","test","go","23","adv","","",""
"","303","32","1317","0","test_block","poldrack-single-stim","38","78896","0.0-5.0-24.0","go-nogo","true","0","","true","<div class = centerbox><div  id = stim2></div></div>","32","32","750","","test","go","24","adv","","",""
"","201","32","1078","0","test_block","poldrack-single-stim","39","80039","0.0-5.0-25.0","go-nogo","true","0","","true","<div class = centerbox><div  id = stim2></div></div>","32","32","750","","test","go","25","adv","","",""
"","267","32","1204","0","test_block","poldrack-single-stim","40","81315","0.0-5.0-26.0","go-nogo","true","0","","true","<div class = centerbox><div  id = stim2></div></div>","32","32","750","","test","go","26","adv","","",""
"","239","32","1250","0","test_block","poldrack-single-stim","41","82628","0.0-5.0-27.0","go-nogo","true","0","","true","<div class = centerbox><div  id = stim2></div></div>","32","32","750","","test","go","27","adv","","",""
"","53","32","1301","0","test_block","poldrack-single-stim","42","83953","0.0-5.0-28.0","go-nogo","true","0","","true","<div class = centerbox><div  id = stim2></div></div>","32","32","750","","test","go","28","adv","","",""
"","439","32","1174","0","test_block","poldrack-single-stim","43","85150","0.0-5.0-29.0","go-nogo","true","0","","true","<div class = centerbox><div  id = stim2></div></div>","32","32","750","","test","go","29","adv","","",""
"","397","32","1231","0","test_block","poldrack-single-stim","44","86404","0.0-5.0-30.0","go-nogo","true","0","","true","<div class = centerbox><div  id = stim2></div></div>","32","32","750","","test","go","30","adv","","",""
"","220","32","1447","0","test_block","poldrack-single-stim","45","87876","0.0-5.0-31.0","go-nogo","true","0","","true","<div class = centerbox><div  id = stim2></div></div>","32","32","750","","test","go","31","adv","","",""
"","239","32","1475","0","test_block","poldrack-single-stim","46","89369","0.0-5.0-32.0","go-nogo","true","0","","true","<div class = centerbox><div  id = stim2></div></div>","32","32","750","","test","go","32","adv","","",""
"","50","32","1397","0","test_block","poldrack-single-stim","47","90788","0.0-5.0-33.0","go-nogo","true","0","","true","<div class = centerbox><div  id = stim2></div></div>","32","32","750","","test","go","33","adv","","",""
"","19","32","1129","0","test_block","poldrack-single-stim","48","92040","0.0-5.0-34.0","go-nogo","true","0","","true","<div class = centerbox><div  id = stim2></div></div>","32","32","750","","test","go","34","adv","","",""
"","227","32","1182","0","test_block","poldrack-single-stim","49","93293","0.0-5.0-35.0","go-nogo","true","0","","true","<div class = centerbox><div  id = stim2></div></div>","32","32","750","","test","go","35","adv","","",""
"","224","32","1343","0","test_block","poldrack-single-stim","50","94736","0.0-5.0-36.0","go-nogo","true","0","","true","<div class = centerbox><div  id = stim2></div></div>","32","32","750","","test","go","36","adv","","",""
"","215","32","1378","0","test_block","poldrack-single-stim","51","96172","0.0-5.0-37.0","go-nogo","true","0","","true","<div class = centerbox><div  id = stim2></div></div>","32","32","750","","test","go","37","adv","","",""
"","77","32","1498","0","test_block","poldrack-single-stim","52","97726","0.0-5.0-38.0","go-nogo","true","0","","true","<div class = centerbox><div  id = stim2></div></div>","32","32","750","","test","go","38","adv","","",""
"","122","32","1250","0","test_block","poldrack-single-stim","53","99000","0.0-5.0-39.0","go-nogo","true","0","","true","<div class = centerbox><div  id = stim2></div></div>","32","32","750","","test","go","39","adv","","",""
"","179","32","1398","0","test_block","poldrack-single-stim","54","100526","0.0-5.0-40.0","go-nogo","true","0","","true","<div class = centerbox><div  id = stim2></div></div>","32","32","750","","test","go","40","adv","","",""
"","143","32","1119","0","test_block","poldrack-single-stim","55","101713","0.0-5.0-41.0","go-nogo","true","0","","true","<div class = centerbox><div  id = stim2></div></div>","32","32","750","","test","go","41","adv","","",""
"","240","32","1304","0","test_block","poldrack-single-stim","56","103081","0.0-5.0-42.0","go-nogo","true","0","","true","<div class = centerbox><div  id = stim2></div></div>","32","32","750","","test","go","42","adv","","",""
"","161","32","1078","0","test_block","poldrack-single-stim","57","104221","0.0-5.0-43.0","go-nogo","true","0","","true","<div class = centerbox><div  id = stim2></div></div>","32","32","750","","test","go","43","adv","","",""
"","243","32","1099","0","test_block","poldrack-single-stim","58","105393","0.0-5.0-44.0","go-nogo","true","0","","true","<div class = centerbox><div  id = stim2></div></div>","32","32","750","","test","go","44","adv","","",""
"","253","32","1127","0","test_block","poldrack-single-stim","59","106588","0.0-5.0-45.0","go-nogo","true","0","","true","<div class = centerbox><div  id = stim2></div></div>","32","32","750","","test","go","45","adv","","",""
"","188","32","1380","0","test_block","poldrack-single-stim","60","108026","0.0-5.0-46.0","go-nogo","true","0","","true","<div class = centerbox><div  id = stim2></div></div>","32","32","750","","test","go","46","adv","","",""
"","235","32","1282","0","test_block","poldrack-single-stim","61","109376","0.0-5.0-47.0","go-nogo","true","0","","true","<div class = centerbox><div  id = stim2></div></div>","32","32","750","","test","go","47","adv","","",""
"","192","32","1257","0","test_block","poldrack-single-stim","62","110701","0.0-5.0-48.0","go-nogo","true","0","","true","<div class = centerbox><div  id = stim2></div></div>","32","32","750","","test","go","48","adv","","",""
"","200","32","1091","0","test_block","poldrack-single-stim","63","111852","0.0-5.0-49.0","go-nogo","true","0","","true","<div class = centerbox><div  id = stim2></div></div>","32","32","750","","test","go","49","adv","","",""
"","234","32","1207","0","test_block","poldrack-single-stim","64","113118","0.0-5.0-50.0","go-nogo","true","0","","true","<div class = centerbox><div  id = stim2></div></div>","32","32","750","","test","go","50","adv","","",""
"","117","32","1327","0","test_block","poldrack-single-stim","65","114506","0.0-5.0-51.0","go-nogo","true","0","","true","<div class = centerbox><div  id = stim2></div></div>","32","32","750","","test","go","51","adv","","",""
"","1","32","1478","0","test_block","poldrack-single-stim","66","116031","0.0-5.0-52.0","go-nogo","true","0","","true","<div class = centerbox><div  id = stim2></div></div>","32","32","750","","test","go","52","adv","","",""
"","195","32","1309","0","test_block","poldrack-single-stim","67","117403","0.0-5.0-53.0","go-nogo","true","0","","true","<div class = centerbox><div  id = stim2></div></div>","32","32","750","","test","go","53","adv","","",""
"","204","32","1298","0","test_block","poldrack-single-stim","68","118759","0.0-5.0-54.0","go-nogo","true","0","","true","<div class = centerbox><div  id = stim2></div></div>","32","32","750","","test","go","54","adv","","",""
"","198","32","1039","0","test_block","poldrack-single-stim","69","119866","0.0-5.0-55.0","go-nogo","true","0","","true","<div class = centerbox><div  id = stim2></div></div>","32","32","750","","test","go","55","adv","","",""
"","244","32","1006","0","test_block","poldrack-single-stim","70","120933","0.0-5.0-56.0","go-nogo","true","0","","true","<div class = centerbox><div  id = stim2></div></div>","32","32","750","","test","go","56","adv","","",""
"","207","32","1338","0","test_block","poldrack-single-stim","71","122332","0.0-5.0-57.0","go-nogo","true","0","","true","<div class = centerbox><div  id = stim2></div></div>","32","32","750","","test","go","57","adv","","",""
"","231","32","1032","0","test_block","poldrack-single-stim","72","123426","0.0-5.0-58.0","go-nogo","true","0","","true","<div class = centerbox><div  id = stim2></div></div>","32","32","750","","test","go","58","adv","","",""
"","232","32","1265","0","test_block","poldrack-single-stim","73","124762","0.0-5.0-59.0","go-nogo","true","0","","true","<div class = centerbox><div  id = stim2></div></div>","32","32","750","","test","go","59","adv","","",""
"","245","32","1330","0","test_block","poldrack-single-stim","74","126158","0.0-5.0-60.0","go-nogo","true","0","","true","<div class = centerbox><div  id = stim2></div></div>","32","32","750","","test","go","60","adv","","",""
"","218","32","1067","0","test_block","poldrack-single-stim","75","127250","0.0-5.0-61.0","go-nogo","true","0","","true","<div class = centerbox><div  id = stim2></div></div>","32","32","750","","test","go","61","adv","","",""
"","238","32","1081","0","test_block","poldrack-single-stim","76","128358","0.0-5.0-62.0","go-nogo","true","0","","true","<div class = centerbox><div  id = stim2></div></div>","32","32","750","","test","go","62","adv","","",""
"","226","32","1209","0","test_block","poldrack-single-stim","77","129704","0.0-5.0-63.0","go-nogo","true","0","","true","<div class = centerbox><div  id = stim2></div></div>","32","32","750","","test","go","63","adv","","",""
"","229","32","1327","0","test_block","poldrack-single-stim","78","131154","0.0-5.0-64.0","go-nogo","true","0","","true","<div class = centerbox><div  id = stim2></div></div>","32","32","750","","test","go","64","adv","","",""
"","171","32","1311","0","test_block","poldrack-single-stim","79","132490","0.0-5.0-65.0","go-nogo","true","0","","true","<div class = centerbox><div  id = stim2></div></div>","32","32","750","","test","go","65","adv","","",""
"","176","32","1160","0","test_block","poldrack-single-stim","80","133676","0.0-5.0-66.0","go-nogo","true","0","","true","<div class = centerbox><div  id = stim2></div></div>","32","32","750","","test","go","66","adv","","",""
"","224","32","1039","0","test_block","poldrack-single-stim","81","134834","0.0-5.0-67.0","go-nogo","true","0","","true","<div class = centerbox><div  id = stim2></div></div>","32","32","750","","test","go","67","adv","","",""
"","241","32","1496","0","test_block","poldrack-single-stim","82","136440","0.0-5.0-68.0","go-nogo","true","0","","true","<div class = centerbox><div  id = stim2></div></div>","32","32","750","","test","go","68","adv","","",""
"","204","32","1351","0","test_block","poldrack-single-stim","83","137812","0.0-5.0-69.0","go-nogo","true","0","","true","<div class = centerbox><div  id = stim2></div></div>","32","32","750","","test","go","69","adv","","",""
"","235","32","1243","0","test_block","poldrack-single-stim","84","139120","0.0-5.0-70.0","go-nogo","true","0","","true","<div class = centerbox><div  id = stim2></div></div>","32","32","750","","test","go","70","adv","","",""
"","232","32","1438","0","test_block","poldrack-single-stim","85","140615","0.0-5.0-71.0","go-nogo","true","0","","true","<div class = centerbox><div  id = stim2></div></div>","32","32","750","","test","go","71","adv","","",""
"","301","32","1359","0","test_block","poldrack-single-stim","86","142037","0.0-5.0-72.0","go-nogo","true","0","","true","<div class = centerbox><div  id = stim2></div></div>","32","32","750","","test","go","72","adv","","",""
"","223","32","1244","0","test_block","poldrack-single-stim","87","143338","0.0-5.0-73.0","go-nogo","true","0","","true","<div class = centerbox><div  id = stim2></div></div>","32","32","750","","test","go","73","adv","","",""
"","413","32","1273","0","test_block","poldrack-single-stim","88","144669","0.0-5.0-74.0","go-nogo","true","0","","true","<div class = centerbox><div  id = stim2></div></div>","32","32","750","","test","go","74","adv","","",""
"","251","32","1239","0","test_block","poldrack-single-stim","89","145966","0.0-5.0-75.0","go-nogo","true","0","","true","<div class = centerbox><div  id = stim2></div></div>","32","32","750","","test","go","75","adv","","",""
"","206","32","1209","0","test_block","poldrack-single-stim","90","147197","0.0-5.0-76.0","go-nogo","true","0","","true","<div class = centerbox><div  id = stim2></div></div>","32","32","750","","test","go","76","adv","","",""
"","269","32","1389","0","test_block","poldrack-single-stim","91","148650","0.0-5.0-77.0","go-nogo","true","0","","true","<div class = centerbox><div  id = stim2></div></div>","32","32","750","","test","go","77","adv","","",""
"","210","32","1482","0","test_block","poldrack-single-stim","92","150193","0.0-5.0-78.0","go-nogo","true","0","","true","<div class = centerbox><div  id = stim2></div></div>","32","32","750","","test","go","78","adv","","",""
"","0","32","1019","0","test_block","poldrack-single-stim","93","151279","0.0-5.0-79.0","go-nogo","true","0","","true","<div class = centerbox><div  id = stim2></div></div>","32","32","750","","test","go","79","adv","","",""
"","268","32","1106","0","test_block","poldrack-single-stim","94","152409","0.0-5.0-80.0","go-nogo","true","0","","true","<div class = centerbox><div  id = stim2></div></div>","32","32","750","","test","go","80","adv","","",""
"","255","32","1031","0","test_block","poldrack-single-stim","95","153576","0.0-5.0-81.0","go-nogo","true","0","","true","<div class = centerbox><div  id = stim2></div></div>","32","32","750","","test","go","81","adv","","",""
"","234","32","1257","0","test_block","poldrack-single-stim","96","154967","0.0-5.0-82.0","go-nogo","true","0","","true","<div class = centerbox><div  id = stim2></div></div>","32","32","750","","test","go","82","adv","","",""
"","202","32","1137","0","test_block","poldrack-single-stim","97","156232","0.0-5.0-83.0","go-nogo","true","0","","true","<div class = centerbox><div  id = stim2></div></div>","32","32","750","","test","go","83","adv","","",""
"","235","32","1070","0","test_block","poldrack-single-stim","98","157364","0.0-5.0-84.0","go-nogo","true","0","","true","<div class = centerbox><div  id = stim2></div></div>","32","32","750","","test","go","84","adv","","",""
"","245","32","1484","0","test_block","poldrack-single-stim","99","158911","0.0-5.0-85.0","go-nogo","true","0","","true","<div class = centerbox><div  id = stim2></div></div>","32","32","750","","test","go","85","adv","","",""
"","288","32","1053","0","test_block","poldrack-single-stim","100","160030","0.0-5.0-86.0","go-nogo","true","0","","true","<div class = centerbox><div  id = stim2></div></div>","32","32","750","","test","go","86","adv","","",""
"","280","32","1157","0","test_block","poldrack-single-stim","101","161252","0.0-5.0-87.0","go-nogo","true","0","","true","<div class = centerbox><div  id = stim2></div></div>","32","32","750","","test","go","87","adv","","",""
"","240","32","1395","0","test_block","poldrack-single-stim","102","162669","0.0-5.0-88.0","go-nogo","true","0","","true","<div class = centerbox><div  id = stim2></div></div>","32","32","750","","test","go","88","adv","","",""
"","235","32","1362","0","test_block","poldrack-single-stim","103","164052","0.0-5.0-89.0","go-nogo","true","0","","true","<div class = centerbox><div  id = stim2></div></div>","32","32","750","","test","go","89","adv","","",""
"","130","32","1370","0","test_block","poldrack-single-stim","104","165480","0.0-5.0-90.0","go-nogo","true","0","","true","<div class = centerbox><div  id = stim2></div></div>","32","32","750","","test","go","90","adv","","",""
"","34","32","1100","0","test_block","poldrack-single-stim","105","166645","0.0-5.0-91.0","go-nogo","true","0","","true","<div class = centerbox><div  id = stim2></div></div>","32","32","750","","test","go","91","adv","","",""
"","179","32","1169","0","test_block","poldrack-single-stim","106","167884","0.0-5.0-92.0","go-nogo","true","0","","true","<div class = centerbox><div  id = stim2></div></div>","32","32","750","","test","go","92","adv","","",""
"","209","32","1472","0","test_block","poldrack-single-stim","107","169377","0.0-5.0-93.0","go-nogo","true","0","","true","<div class = centerbox><div  id = stim2></div></div>","32","32","750","","test","go","93","adv","","",""
"","253","32","1240","0","test_block","poldrack-single-stim","108","170718","0.0-5.0-94.0","go-nogo","true","0","","true","<div class = centerbox><div  id = stim2></div></div>","32","32","750","","test","go","94","adv","","",""
"","402","32","1337","0","test_block","poldrack-single-stim","109","172080","0.0-5.0-95.0","go-nogo","true","0","","true","<div class = centerbox><div  id = stim2></div></div>","32","32","750","","test","go","95","adv","","",""
"","271","32","1316","0","test_block","poldrack-single-stim","110","173510","0.0-5.0-96.0","go-nogo","true","0","","true","<div class = centerbox><div  id = stim2></div></div>","32","32","750","","test","go","96","adv","","",""
"","282","32","1050","0","test_block","poldrack-single-stim","111","174695","0.0-5.0-97.0","go-nogo","true","0","","true","<div class = centerbox><div  id = stim2></div></div>","32","32","750","","test","go","97","adv","","",""
"","278","32","1022","0","test_block","poldrack-single-stim","112","175849","0.0-5.0-98.0","go-nogo","true","0","","true","<div class = centerbox><div  id = stim2></div></div>","32","32","750","","test","go","98","adv","","",""
"","247","32","1258","0","test_block","poldrack-single-stim","113","177235","0.0-5.0-99.0","go-nogo","true","0","","true","<div class = centerbox><div  id = stim2></div></div>","32","32","750","","test","go","99","adv","","",""
"","92","32","1192","0","test_block","poldrack-single-stim","114","178486","0.0-5.0-100.0","go-nogo","true","0","","true","<div class = centerbox><div  id = stim2></div></div>","32","32","750","","test","go","100","adv","","",""
"","214","32","1430","0","test_block","poldrack-single-stim","115","179994","0.0-5.0-101.0","go-nogo","true","0","","true","<div class = centerbox><div  id = stim2></div></div>","32","32","750","","test","go","101","adv","","",""
"","180","32","1052","0","test_block","poldrack-single-stim","116","181117","0.0-5.0-102.0","go-nogo","true","0","","true","<div class = centerbox><div  id = stim2></div></div>","32","32","750","","test","go","102","adv","","",""
"","254","32","1272","0","test_block","poldrack-single-stim","117","182500","0.0-5.0-103.0","go-nogo","true","0","","true","<div class = centerbox><div  id = stim2></div></div>","32","32","750","","test","go","103","adv","","",""
"","4","32","1077","0","test_block","poldrack-single-stim","118","183723","0.0-5.0-104.0","go-nogo","true","0","","true","<div class = centerbox><div  id = stim2></div></div>","32","32","750","","test","go","104","adv","","",""
"","163","32","1457","0","test_block","poldrack-single-stim","119","185234","0.0-5.0-105.0","go-nogo","true","0","","true","<div class = centerbox><div  id = stim2></div></div>","32","32","750","","test","go","105","adv","","",""
"","259","32","1350","0","test_block","poldrack-single-stim","120","186644","0.0-5.0-106.0","go-nogo","true","0","","true","<div class = centerbox><div  id = stim2></div></div>","32","32","750","","test","go","106","adv","","",""
"","179","32","1012","0","test_block","poldrack-single-stim","121","187723","0.0-5.0-107.0","go-nogo","true","0","","true","<div class = centerbox><div  id = stim2></div></div>","32","32","750","","test","go","107","adv","","",""
"","248","32","1287","0","test_block","poldrack-single-stim","122","189065","0.0-5.0-108.0","go-nogo","true","0","","true","<div class = centerbox><div  id = stim2></div></div>","32","32","750","","test","go","108","adv","","",""
"","223","32","1125","0","test_block","poldrack-single-stim","123","190319","0.0-5.0-109.0","go-nogo","true","0","","true","<div class = centerbox><div  id = stim2></div></div>","32","32","750","","test","go","109","adv","","",""
"","244","32","1254","0","test_block","poldrack-single-stim","124","191714","0.0-5.0-110.0","go-nogo","true","0","","true","<div class = centerbox><div  id = stim2></div></div>","32","32","750","","test","go","110","adv","","",""
"","158","32","1128","0","test_block","poldrack-single-stim","125","192956","0.0-5.0-111.0","go-nogo","true","0","","true","<div class = centerbox><div  id = stim2></div></div>","32","32","750","","test","go","111","adv","","",""
"","219","32","1236","0","test_block","poldrack-single-stim","126","194314","0.0-5.0-112.0","go-nogo","true","0","","true","<div class = centerbox><div  id = stim2></div></div>","32","32","750","","test","go","112","adv","","",""
"","28","32","1119","0","test_block","poldrack-single-stim","127","195496","0.0-5.0-113.0","go-nogo","true","0","","true","<div class = centerbox><div  id = stim2></div></div>","32","32","750","","test","go","113","adv","","",""
"","129","32","1199","0","test_block","poldrack-single-stim","128","196760","0.0-5.0-114.0","go-nogo","true","0","","true","<div class = centerbox><div  id = stim2></div></div>","32","32","750","","test","go","114","adv","","",""
"","134","32","1341","0","test_block","poldrack-single-stim","129","198169","0.0-5.0-115.0","go-nogo","true","0","","true","<div class = centerbox><div  id = stim2></div></div>","32","32","750","","test","go","115","adv","","",""
"","0","32","1405","0","test_block","poldrack-single-stim","130","199652","0.0-5.0-116.0","go-nogo","true","0","","true","<div class = centerbox><div  id = stim2></div></div>","32","32","750","","test","go","116","adv","","",""
"","410","32","1162","0","test_block","poldrack-single-stim","131","200872","0.0-5.0-117.0","go-nogo","true","0","","true","<div class = centerbox><div  id = stim2></div></div>","32","32","750","","test","go","117","adv","","",""
"","262","32","1236","0","test_block","poldrack-single-stim","132","202230","0.0-5.0-118.0","go-nogo","true","0","","true","<div class = centerbox><div  id = stim2></div></div>","32","32","750","","test","go","118","adv","","",""
"","136","32","1495","0","test_block","poldrack-single-stim","133","203856","0.0-5.0-119.0","go-nogo","true","0","","true","<div class = centerbox><div  id = stim2></div></div>","32","32","750","","test","go","119","adv","","",""
"","216","32","1114","0","test_block","poldrack-single-stim","134","205092","0.0-5.0-120.0","go-nogo","true","0","","true","<div class = centerbox><div  id = stim2></div></div>","32","32","750","","test","go","120","adv","","",""
"","221","32","1220","0","test_block","poldrack-single-stim","135","206381","0.0-5.0-121.0","go-nogo","true","0","","true","<div class = centerbox><div  id = stim2></div></div>","32","32","750","","test","go","121","adv","","",""
"","190","32","1004","0","test_block","poldrack-single-stim","136","207448","0.0-5.0-122.0","go-nogo","true","0","","true","<div class = centerbox><div  id = stim2></div></div>","32","32","750","","test","go","122","adv","","",""
"","211","32","1474","0","test_block","poldrack-single-stim","137","208985","0.0-5.0-123.0","go-nogo","true","0","","true","<div class = centerbox><div  id = stim2></div></div>","32","32","750","","test","go","123","adv","","",""
"","64","32","1227","0","test_block","poldrack-single-stim","138","210260","0.0-5.0-124.0","go-nogo","true","0","","true","<div class = centerbox><div  id = stim2></div></div>","32","32","750","","test","go","124","adv","","",""
"","56","32","1210","0","test_block","poldrack-single-stim","139","211491","0.0-5.0-125.0","go-nogo","true","0","","true","<div class = centerbox><div  id = stim2></div></div>","32","32","750","","test","go","125","adv","","",""
"","5","32","1107","0","test_block","poldrack-single-stim","140","212734","0.0-5.0-126.0","go-nogo","true","0","","true","<div class = centerbox><div  id = stim2></div></div>","32","32","750","","test","go","126","adv","","",""
"","230","32","1454","0","test_block","poldrack-single-stim","141","214248","0.0-5.0-127.0","go-nogo","true","0","","true","<div class = centerbox><div  id = stim2></div></div>","32","32","750","","test","go","127","adv","","",""
"","235","32","1106","0","test_block","poldrack-single-stim","142","215416","0.0-5.0-128.0","go-nogo","true","0","","true","<div class = centerbox><div  id = stim2></div></div>","32","32","750","","test","go","128","adv","","",""
"","239","32","1193","0","test_block","poldrack-single-stim","143","216670","0.0-5.0-129.0","go-nogo","true","0","","true","<div class = centerbox><div  id = stim2></div></div>","32","32","750","","test","go","129","adv","","",""
"","202","32","1031","0","test_block","poldrack-single-stim","144","217759","0.0-5.0-130.0","go-nogo","true","0","","true","<div class = centerbox><div  id = stim2></div></div>","32","32","750","","test","go","130","adv","","",""
"","190","32","1473","0","test_block","poldrack-single-stim","145","219285","0.0-5.0-131.0","go-nogo","true","0","","true","<div class = centerbox><div  id = stim2></div></div>","32","32","750","","test","go","131","adv","","",""
"","1","32","1064","0","test_block","poldrack-single-stim","146","220408","0.0-5.0-132.0","go-nogo","true","0","","true","<div class = centerbox><div  id = stim2></div></div>","32","32","750","","test","go","132","adv","","",""
"","189","32","1100","0","test_block","poldrack-single-stim","147","221560","0.0-5.0-133.0","go-nogo","true","0","","true","<div class = centerbox><div  id = stim2></div></div>","32","32","750","","test","go","133","adv","","",""
"","155","32","1071","0","test_block","poldrack-single-stim","148","222687","0.0-5.0-134.0","go-nogo","true","0","","true","<div class = centerbox><div  id = stim2></div></div>","32","32","750","","test","go","134","adv","","",""
"","180","32","1168","0","test_block","poldrack-single-stim","149","223893","0.0-5.0-135.0","go-nogo","true","0","","true","<div class = centerbox><div  id = stim2></div></div>","32","32","750","","test","go","135","adv","","",""
"","8","32","1019","0","test_block","poldrack-single-stim","150","224980","0.0-5.0-136.0","go-nogo","true","0","","true","<div class = centerbox><div  id = stim2></div></div>","32","32","750","","test","go","136","adv","","",""
"","153","32","1479","0","test_block","poldrack-single-stim","151","226478","0.0-5.0-137.0","go-nogo","true","0","","true","<div class = centerbox><div  id = stim2></div></div>","32","32","750","","test","go","137","adv","","",""
"","30","32","1056","0","test_block","poldrack-single-stim","152","227651","0.0-5.0-138.0","go-nogo","true","0","","true","<div class = centerbox><div  id = stim2></div></div>","32","32","750","","test","go","138","adv","","",""
"","126","32","1096","0","test_block","poldrack-single-stim","153","228876","0.0-5.0-139.0","go-nogo","true","0","","true","<div class = centerbox><div  id = stim2></div></div>","32","32","750","","test","go","139","adv","","",""
"","122","32","1009","0","test_block","poldrack-single-stim","154","229953","0.0-5.0-140.0","go-nogo","true","0","","true","<div class = centerbox><div  id = stim2></div></div>","32","32","750","","test","go","140","adv","","",""
"","215","32","1360","0","test_block","poldrack-single-stim","155","231371","0.0-5.0-141.0","go-nogo","true","0","","true","<div class = centerbox><div  id = stim2></div></div>","32","32","750","","test","go","141","adv","","",""
"","157","32","1296","0","test_block","poldrack-single-stim","156","232684","0.0-5.0-142.0","go-nogo","true","0","","true","<div class = centerbox><div  id = stim2></div></div>","32","32","750","","test","go","142","adv","","",""
"","231","32","1125","0","test_block","poldrack-single-stim","157","233936","0.0-5.0-143.0","go-nogo","true","0","","true","<div class = centerbox><div  id = stim2></div></div>","32","32","750","","test","go","143","adv","","",""
"","108","32","1331","0","test_block","poldrack-single-stim","158","235392","0.0-5.0-144.0","go-nogo","true","0","","true","<div class = centerbox><div  id = stim2></div></div>","32","32","750","","test","go","144","adv","","",""
"","395","32","1428","0","test_block","poldrack-single-stim","159","236938","0.0-5.0-145.0","go-nogo","true","0","","true","<div class = centerbox><div  id = stim2></div></div>","32","32","750","","test","go","145","adv","","",""
"","232","32","1233","0","test_block","poldrack-single-stim","160","238227","0.0-5.0-146.0","go-nogo","true","0","","true","<div class = centerbox><div  id = stim2></div></div>","32","32","750","","test","go","146","adv","","",""
"","225","32","1374","0","test_block","poldrack-single-stim","161","239687","0.0-5.0-147.0","go-nogo","true","0","","true","<div class = centerbox><div  id = stim2></div></div>","32","32","750","","test","go","147","adv","","",""
"","450","32","1048","0","test_block","poldrack-single-stim","162","240792","0.0-5.0-148.0","go-nogo","true","0","","true","<div class = centerbox><div  id = stim2></div></div>","32","32","750","","test","go","148","adv","","",""
"","397","32","1370","0","test_block","poldrack-single-stim","163","242231","0.0-5.0-149.0","go-nogo","true","0","","true","<div class = centerbox><div  id = stim2></div></div>","32","32","750","","test","go","149","adv","","",""
"","27","32","1303","0","test_block","poldrack-single-stim","164","243598","0.0-5.0-150.0","go-nogo","true","0","","true","<div class = centerbox><div  id = stim2></div></div>","32","32","750","","test","go","150","adv","","",""
"","207","32","1457","0","test_block","poldrack-single-stim","165","245123","0.0-5.0-151.0","go-nogo","true","0","","true","<div class = centerbox><div  id = stim2></div></div>","32","32","750","","test","go","151","adv","","",""
"","162","32","1130","0","test_block","poldrack-single-stim","166","246273","0.0-5.0-152.0","go-nogo","true","0","","true","<div class = centerbox><div  id = stim2></div></div>","32","32","750","","test","go","152","adv","","",""
"","200","32","1150","0","test_block","poldrack-single-stim","167","247544","0.0-5.0-153.0","go-nogo","true","0","","true","<div class = centerbox><div  id = stim2></div></div>","32","32","750","","test","go","153","adv","","",""
"","57","32","1189","0","test_block","poldrack-single-stim","168","248867","0.0-5.0-154.0","go-nogo","true","0","","true","<div class = centerbox><div  id = stim2></div></div>","32","32","750","","test","go","154","adv","","",""
"","87","32","1174","0","test_block","poldrack-single-stim","169","250169","0.0-5.0-155.0","go-nogo","true","0","","true","<div class = centerbox><div  id = stim2></div></div>","32","32","750","","test","go","155","adv","","",""
"","11","32","1099","0","test_block","poldrack-single-stim","170","251393","0.0-5.0-156.0","go-nogo","true","0","","true","<div class = centerbox><div  id = stim2></div></div>","32","32","750","","test","go","156","adv","","",""
"","59","32","1389","0","test_block","poldrack-single-stim","171","252900","0.0-5.0-157.0","go-nogo","true","0","","true","<div class = centerbox><div  id = stim2></div></div>","32","32","750","","test","go","157","adv","","",""
"","209","32","1297","0","test_block","poldrack-single-stim","172","254258","0.0-5.0-158.0","go-nogo","true","0","","true","<div class = centerbox><div  id = stim2></div></div>","32","32","750","","test","go","158","adv","","",""
"","234","32","1292","0","test_block","poldrack-single-stim","173","255620","0.0-5.0-159.0","go-nogo","true","0","","true","<div class = centerbox><div  id = stim2></div></div>","32","32","750","","test","go","159","adv","","",""
"","44","32","1253","0","test_block","poldrack-single-stim","174","256931","0.0-5.0-160.0","go-nogo","true","0","","false","<div class = centerbox><div  id = stim1></div></div>","-1","32","750","","test","nogo","160","adv","","",""
"","344","32","1304","0","test_block","poldrack-single-stim","175","258298","0.0-5.0-161.0","go-nogo","true","0","","true","<div class = centerbox><div  id = stim2></div></div>","32","32","750","","test","go","161","adv","","",""
"","282","32","1193","0","test_block","poldrack-single-stim","176","259573","0.0-5.0-162.0","go-nogo","true","0","","true","<div class = centerbox><div  id = stim2></div></div>","32","32","750","","test","go","162","adv","","",""
"","-1","-1","1382","0","test_block","poldrack-single-stim","177","261010","0.0-5.0-163.0","go-nogo","true","0","","true","<div class = centerbox><div  id = stim1></div></div>","-1","32","750","","test","nogo","163","adv","","",""
"","276","32","1274","0","test_block","poldrack-single-stim","178","262352","0.0-5.0-164.0","go-nogo","true","0","","true","<div class = centerbox><div  id = stim2></div></div>","32","32","750","","test","go","164","adv","","",""
"","287","32","1217","0","test_block","poldrack-single-stim","179","263628","0.0-5.0-165.0","go-nogo","true","0","","true","<div class = centerbox><div  id = stim2></div></div>","32","32","750","","test","go","165","adv","","",""
"","-1","-1","1363","0","test_block","poldrack-single-stim","180","265012","0.0-5.0-166.0","go-nogo","true","0","","true","<div class = centerbox><div  id = stim1></div></div>","-1","32","750","","test","nogo","166","adv","","",""
"","210","32","1195","0","test_block","poldrack-single-stim","181","266227","0.0-5.0-167.0","go-nogo","true","0","","true","<div class = centerbox><div  id = stim2></div></div>","32","32","750","","test","go","167","adv","","",""
"","212","32","1257","0","test_block","poldrack-single-stim","182","267551","0.0-5.0-168.0","go-nogo","true","0","","true","<div class = centerbox><div  id = stim2></div></div>","32","32","750","","test","go","168","adv","","",""
"","415","32","1369","0","test_block","poldrack-single-stim","183","268980","0.0-5.0-169.0","go-nogo","true","0","","true","<div class = centerbox><div  id = stim2></div></div>","32","32","750","","test","go","169","adv","","",""
"","350","32","1319","0","test_block","poldrack-single-stim","184","270430","0.0-5.0-170.0","go-nogo","true","0","","true","<div class = centerbox><div  id = stim2></div></div>","32","32","750","","test","go","170","adv","","",""
"","-1","-1","1285","0","test_block","poldrack-single-stim","185","271780","0.0-5.0-171.0","go-nogo","true","0","","true","<div class = centerbox><div  id = stim1></div></div>","-1","32","750","","test","nogo","171","adv","","",""
"","261","32","1092","0","test_block","poldrack-single-stim","186","272937","0.0-5.0-172.0","go-nogo","true","0","","true","<div class = centerbox><div  id = stim2></div></div>","32","32","750","","test","go","172","adv","","",""
"","252","32","1381","0","test_block","poldrack-single-stim","187","274394","0.0-5.0-173.0","go-nogo","true","0","","true","<div class = centerbox><div  id = stim2></div></div>","32","32","750","","test","go","173","adv","","",""
"","310","32","1390","0","test_block","poldrack-single-stim","188","275834","0.0-5.0-174.0","go-nogo","true","0","","true","<div class = centerbox><div  id = stim2></div></div>","32","32","750","","test","go","174","adv","","",""
"","217","32","1286","0","test_block","poldrack-single-stim","189","277142","0.0-5.0-175.0","go-nogo","true","0","","true","<div class = centerbox><div  id = stim2></div></div>","32","32","750","","test","go","175","adv","","",""
"","253","32","1144","0","test_block","poldrack-single-stim","190","278309","0.0-5.0-176.0","go-nogo","true","0","","true","<div class = centerbox><div  id = stim2></div></div>","32","32","750","","test","go","176","adv","","",""
"","261","32","1376","0","test_block","poldrack-single-stim","191","279757","0.0-5.0-177.0","go-nogo","true","0","","true","<div class = centerbox><div  id = stim2></div></div>","32","32","750","","test","go","177","adv","","",""
"","258","32","1274","0","test_block","poldrack-single-stim","192","281101","0.0-5.0-178.0","go-nogo","true","0","","true","<div class = centerbox><div  id = stim2></div></div>","32","32","750","","test","go","178","adv","","",""
"","241","32","1393","0","test_block","poldrack-single-stim","193","282553","0.0-5.0-179.0","go-nogo","true","0","","true","<div class = centerbox><div  id = stim2></div></div>","32","32","750","","test","go","179","adv","","",""
"","214","32","1258","0","test_block","poldrack-single-stim","194","283838","0.0-5.0-180.0","go-nogo","true","0","","false","<div class = centerbox><div  id = stim1></div></div>","-1","32","750","","test","nogo","180","adv","","",""
"","314","32","1410","0","test_block","poldrack-single-stim","195","285266","0.0-5.0-181.0","go-nogo","true","0","","true","<div class = centerbox><div  id = stim2></div></div>","32","32","750","","test","go","181","adv","","",""
"","268","32","1117","0","test_block","poldrack-single-stim","196","286594","0.0-5.0-182.0","go-nogo","true","0","","true","<div class = centerbox><div  id = stim2></div></div>","32","32","750","","test","go","182","adv","","",""
"","-1","-1","1055","0","test_block","poldrack-single-stim","197","287749","0.0-5.0-183.0","go-nogo","true","0","","true","<div class = centerbox><div  id = stim1></div></div>","-1","32","750","","test","nogo","183","adv","","",""
"","306","32","1162","0","test_block","poldrack-single-stim","198","288930","0.0-5.0-184.0","go-nogo","true","0","","true","<div class = centerbox><div  id = stim2></div></div>","32","32","750","","test","go","184","adv","","",""
"","264","32","1158","0","test_block","poldrack-single-stim","199","290111","0.0-5.0-185.0","go-nogo","true","0","","true","<div class = centerbox><div  id = stim2></div></div>","32","32","750","","test","go","185","adv","","",""
"","289","32","1311","0","test_block","poldrack-single-stim","200","291555","0.0-5.0-186.0","go-nogo","true","0","","true","<div class = centerbox><div  id = stim2></div></div>","32","32","750","","test","go","186","adv","","",""
"","-1","-1","1321","0","test_block","poldrack-single-stim","201","292998","0.0-5.0-187.0","go-nogo","true","0","","true","<div class = centerbox><div  id = stim1></div></div>","-1","32","750","","test","nogo","187","adv","","",""
"","248","32","1307","0","test_block","poldrack-single-stim","202","294421","0.0-5.0-188.0","go-nogo","true","0","","true","<div class = centerbox><div  id = stim2></div></div>","32","32","750","","test","go","188","adv","","",""
"","249","32","1070","0","test_block","poldrack-single-stim","203","295616","0.0-5.0-189.0","go-nogo","true","0","","true","<div class = centerbox><div  id = stim2></div></div>","32","32","750","","test","go","189","adv","","",""
"","353","32","1471","0","test_block","poldrack-single-stim","204","297219","0.0-5.0-190.0","go-nogo","true","0","","true","<div class = centerbox><div  id = stim2></div></div>","32","32","750","","test","go","190","adv","","",""
"","401","32","1042","0","test_block","poldrack-single-stim","205","298282","0.0-5.0-191.0","go-nogo","true","0","","true","<div class = centerbox><div  id = stim2></div></div>","32","32","750","","test","go","191","adv","","",""
"","290","32","1457","0","test_block","poldrack-single-stim","206","299761","0.0-5.0-192.0","go-nogo","true","0","","true","<div class = centerbox><div  id = stim2></div></div>","32","32","750","","test","go","192","adv","","",""
"","300","32","1418","0","test_block","poldrack-single-stim","207","301199","0.0-5.0-193.0","go-nogo","true","0","","true","<div class = centerbox><div  id = stim2></div></div>","32","32","750","","test","go","193","adv","","",""
"","-1","-1","1137","0","test_block","poldrack-single-stim","208","302354","0.0-5.0-194.0","go-nogo","true","0","","true","<div class = centerbox><div  id = stim1></div></div>","-1","32","750","","test","nogo","194","adv","","",""
"","263","32","1401","0","test_block","poldrack-single-stim","209","303879","0.0-5.0-195.0","go-nogo","true","0","","true","<div class = centerbox><div  id = stim2></div></div>","32","32","750","","test","go","195","adv","","",""
"","234","32","1435","0","test_block","poldrack-single-stim","210","305379","0.0-5.0-196.0","go-nogo","true","0","","true","<div class = centerbox><div  id = stim2></div></div>","32","32","750","","test","go","196","adv","","",""
"","253","32","1041","0","test_block","poldrack-single-stim","211","306486","0.0-5.0-197.0","go-nogo","true","0","","true","<div class = centerbox><div  id = stim2></div></div>","32","32","750","","test","go","197","adv","","",""
"","282","32","1328","0","test_block","poldrack-single-stim","212","307872","0.0-5.0-198.0","go-nogo","true","0","","true","<div class = centerbox><div  id = stim2></div></div>","32","32","750","","test","go","198","adv","","",""
"","282","32","1095","0","test_block","poldrack-single-stim","213","309022","0.0-5.0-199.0","go-nogo","true","0","","true","<div class = centerbox><div  id = stim2></div></div>","32","32","750","","test","go","199","adv","","",""
"","299","32","1160","0","test_block","poldrack-single-stim","214","310238","0.0-5.0-200.0","go-nogo","true","0","","true","<div class = centerbox><div  id = stim2></div></div>","32","32","750","","test","go","200","adv","","",""
"","332","32","1290","0","test_block","poldrack-single-stim","215","311584","0.0-5.0-201.0","go-nogo","true","0","","true","<div class = centerbox><div  id = stim2></div></div>","32","32","750","","test","go","201","adv","","",""
"","334","32","1483","0","test_block","poldrack-single-stim","216","313127","0.0-5.0-202.0","go-nogo","true","0","","true","<div class = centerbox><div  id = stim2></div></div>","32","32","750","","test","go","202","adv","","",""
"","370","32","1286","0","test_block","poldrack-single-stim","217","314483","0.0-5.0-203.0","go-nogo","true","0","","true","<div class = centerbox><div  id = stim2></div></div>","32","32","750","","test","go","203","adv","","",""
"","298","32","1332","0","test_block","poldrack-single-stim","218","315876","0.0-5.0-204.0","go-nogo","true","0","","true","<div class = centerbox><div  id = stim2></div></div>","32","32","750","","test","go","204","adv","","",""
"","281","32","1489","0","test_block","poldrack-single-stim","219","317434","0.0-5.0-205.0","go-nogo","true","0","","false","<div class = centerbox><div  id = stim1></div></div>","-1","32","750","","test","nogo","205","adv","","",""
"","204","32","1239","0","test_block","poldrack-single-stim","220","318693","0.0-5.0-206.0","go-nogo","true","0","","true","<div class = centerbox><div  id = stim2></div></div>","32","32","750","","test","go","206","adv","","",""
"","257","32","1281","0","test_block","poldrack-single-stim","221","320042","0.0-5.0-207.0","go-nogo","true","0","","true","<div class = centerbox><div  id = stim2></div></div>","32","32","750","","test","go","207","adv","","",""
"","251","32","1422","0","test_block","poldrack-single-stim","222","321533","0.0-5.0-208.0","go-nogo","true","0","","false","<div class = centerbox><div  id = stim1></div></div>","-1","32","750","","test","nogo","208","adv","","",""
"","240","32","1147","0","test_block","poldrack-single-stim","223","322742","0.0-5.0-209.0","go-nogo","true","0","","true","<div class = centerbox><div  id = stim2></div></div>","32","32","750","","test","go","209","adv","","",""
"","263","32","1327","0","test_block","poldrack-single-stim","224","324138","0.0-5.0-210.0","go-nogo","true","0","","true","<div class = centerbox><div  id = stim2></div></div>","32","32","750","","test","go","210","adv","","",""
"","-1","-1","1159","0","test_block","poldrack-single-stim","225","325344","0.0-5.0-211.0","go-nogo","true","0","","true","<div class = centerbox><div  id = stim1></div></div>","-1","32","750","","test","nogo","211","adv","","",""
"","306","32","1002","0","test_block","poldrack-single-stim","226","326463","0.0-5.0-212.0","go-nogo","true","0","","true","<div class = centerbox><div  id = stim2></div></div>","32","32","750","","test","go","212","adv","","",""
"","306","32","1397","0","test_block","poldrack-single-stim","227","327925","0.0-5.0-213.0","go-nogo","true","0","","true","<div class = centerbox><div  id = stim2></div></div>","32","32","750","","test","go","213","adv","","",""
"","-1","-1","1006","0","test_block","poldrack-single-stim","228","328983","0.0-5.0-214.0","go-nogo","true","0","","true","<div class = centerbox><div  id = stim1></div></div>","-1","32","750","","test","nogo","214","adv","","",""
"","256","32","1214","0","test_block","poldrack-single-stim","229","330216","0.0-5.0-215.0","go-nogo","true","0","","true","<div class = centerbox><div  id = stim2></div></div>","32","32","750","","test","go","215","adv","","",""
"","292","32","1398","0","test_block","poldrack-single-stim","230","331676","0.0-5.0-216.0","go-nogo","true","0","","true","<div class = centerbox><div  id = stim2></div></div>","32","32","750","","test","go","216","adv","","",""
"","-1","-1","1149","0","test_block","poldrack-single-stim","231","332845","0.0-5.0-217.0","go-nogo","true","0","","true","<div class = centerbox><div  id = stim1></div></div>","-1","32","750","","test","nogo","217","adv","","",""
"","241","32","1251","0","test_block","poldrack-single-stim","232","334116","0.0-5.0-218.0","go-nogo","true","0","","true","<div class = centerbox><div  id = stim2></div></div>","32","32","750","","test","go","218","adv","","",""
"","352","32","1129","0","test_block","poldrack-single-stim","233","335306","0.0-5.0-219.0","go-nogo","true","0","","true","<div class = centerbox><div  id = stim2></div></div>","32","32","750","","test","go","219","adv","","",""
"","263","32","1471","0","test_block","poldrack-single-stim","234","336801","0.0-5.0-220.0","go-nogo","true","0","","true","<div class = centerbox><div  id = stim2></div></div>","32","32","750","","test","go","220","adv","","",""
"","284","32","1052","0","test_block","poldrack-single-stim","235","337879","0.0-5.0-221.0","go-nogo","true","0","","true","<div class = centerbox><div  id = stim2></div></div>","32","32","750","","test","go","221","adv","","",""
"","306","32","1042","0","test_block","poldrack-single-stim","236","338986","0.0-5.0-222.0","go-nogo","true","0","","true","<div class = centerbox><div  id = stim2></div></div>","32","32","750","","test","go","222","adv","","",""
"","312","32","1108","0","test_block","poldrack-single-stim","237","340142","0.0-5.0-223.0","go-nogo","true","0","","true","<div class = centerbox><div  id = stim2></div></div>","32","32","750","","test","go","223","adv","","",""
"","288","32","1367","0","test_block","poldrack-single-stim","238","341562","0.0-5.0-224.0","go-nogo","true","0","","true","<div class = centerbox><div  id = stim2></div></div>","32","32","750","","test","go","224","adv","","",""
"","-1","-1","1216","0","test_block","poldrack-single-stim","239","342910","0.0-5.0-225.0","go-nogo","true","0","","true","<div class = centerbox><div  id = stim1></div></div>","-1","32","750","","test","nogo","225","adv","","",""
"","244","32","1007","0","test_block","poldrack-single-stim","240","344051","0.0-5.0-226.0","go-nogo","true","0","","true","<div class = centerbox><div  id = stim2></div></div>","32","32","750","","test","go","226","adv","","",""
"","264","32","1229","0","test_block","poldrack-single-stim","241","345407","0.0-5.0-227.0","go-nogo","true","0","","true","<div class = centerbox><div  id = stim2></div></div>","32","32","750","","test","go","227","adv","","",""
"","253","32","1293","0","test_block","poldrack-single-stim","242","346754","0.0-5.0-228.0","go-nogo","true","0","","true","<div class = centerbox><div  id = stim2></div></div>","32","32","750","","test","go","228","adv","","",""
"","263","32","1012","0","test_block","poldrack-single-stim","243","347822","0.0-5.0-229.0","go-nogo","true","0","","true","<div class = centerbox><div  id = stim2></div></div>","32","32","750","","test","go","229","adv","","",""
"","290","32","1006","0","test_block","poldrack-single-stim","244","348883","0.0-5.0-230.0","go-nogo","true","0","","true","<div class = centerbox><div  id = stim2></div></div>","32","32","750","","test","go","230","adv","","",""
"","289","32","1309","0","test_block","poldrack-single-stim","245","350254","0.0-5.0-231.0","go-nogo","true","0","","true","<div class = centerbox><div  id = stim2></div></div>","32","32","750","","test","go","231","adv","","",""
"","267","32","1466","0","test_block","poldrack-single-stim","246","351777","0.0-5.0-232.0","go-nogo","true","0","","true","<div class = centerbox><div  id = stim2></div></div>","32","32","750","","test","go","232","adv","","",""
"","316","32","1023","0","test_block","poldrack-single-stim","247","352901","0.0-5.0-233.0","go-nogo","true","0","","true","<div class = centerbox><div  id = stim2></div></div>","32","32","750","","test","go","233","adv","","",""
"","281","32","1127","0","test_block","poldrack-single-stim","248","354088","0.0-5.0-234.0","go-nogo","true","0","","true","<div class = centerbox><div  id = stim2></div></div>","32","32","750","","test","go","234","adv","","",""
"","313","32","1493","0","test_block","poldrack-single-stim","249","355638","0.0-5.0-235.0","go-nogo","true","0","","true","<div class = centerbox><div  id = stim2></div></div>","32","32","750","","test","go","235","adv","","",""
"","-1","-1","1428","0","test_block","poldrack-single-stim","250","357086","0.0-5.0-236.0","go-nogo","true","0","","true","<div class = centerbox><div  id = stim1></div></div>","-1","32","750","","test","nogo","236","adv","","",""
"","257","32","1422","0","test_block","poldrack-single-stim","251","358568","0.0-5.0-237.0","go-nogo","true","0","","true","<div class = centerbox><div  id = stim2></div></div>","32","32","750","","test","go","237","adv","","",""
"","279","32","1038","0","test_block","poldrack-single-stim","252","359715","0.0-5.0-238.0","go-nogo","true","0","","true","<div class = centerbox><div  id = stim2></div></div>","32","32","750","","test","go","238","adv","","",""
"","285","32","1293","0","test_block","poldrack-single-stim","253","361137","0.0-5.0-239.0","go-nogo","true","0","","true","<div class = centerbox><div  id = stim2></div></div>","32","32","750","","test","go","239","adv","","",""
"","287","32","1455","0","test_block","poldrack-single-stim","254","362649","0.0-5.0-240.0","go-nogo","true","0","","true","<div class = centerbox><div  id = stim2></div></div>","32","32","750","","test","go","240","adv","","",""
"","283","32","1000","0","test_block","poldrack-single-stim","255","363711","0.0-5.0-241.0","go-nogo","true","0","","true","<div class = centerbox><div  id = stim2></div></div>","32","32","750","","test","go","241","adv","","",""
"","320","32","1213","0","test_block","poldrack-single-stim","256","364990","0.0-5.0-242.0","go-nogo","true","0","","true","<div class = centerbox><div  id = stim2></div></div>","32","32","750","","test","go","242","adv","","",""
"","291","32","1279","0","test_block","poldrack-single-stim","257","366389","0.0-5.0-243.0","go-nogo","true","0","","true","<div class = centerbox><div  id = stim2></div></div>","32","32","750","","test","go","243","adv","","",""
"","307","32","1072","0","test_block","poldrack-single-stim","258","367568","0.0-5.0-244.0","go-nogo","true","0","","true","<div class = centerbox><div  id = stim2></div></div>","32","32","750","","test","go","244","adv","","",""
"","262","32","1024","0","test_block","poldrack-single-stim","259","368652","0.0-5.0-245.0","go-nogo","true","0","","true","<div class = centerbox><div  id = stim2></div></div>","32","32","750","","test","go","245","adv","","",""
"","261","32","1478","0","test_block","poldrack-single-stim","260","370205","0.0-5.0-246.0","go-nogo","true","0","","true","<div class = centerbox><div  id = stim2></div></div>","32","32","750","","test","go","246","adv","","",""
"","253","32","1050","0","test_block","poldrack-single-stim","261","371311","0.0-5.0-247.0","go-nogo","true","0","","true","<div class = centerbox><div  id = stim2></div></div>","32","32","750","","test","go","247","adv","","",""
"","247","32","1219","0","test_block","poldrack-single-stim","262","372597","0.0-5.0-248.0","go-nogo","true","0","","false","<div class = centerbox><div  id = stim1></div></div>","-1","32","750","","test","nogo","248","adv","","",""
"","228","32","1064","0","test_block","poldrack-single-stim","263","373726","0.0-5.0-249.0","go-nogo","true","0","","true","<div class = centerbox><div  id = stim2></div></div>","32","32","750","","test","go","249","adv","","",""
"","271","32","1474","0","test_block","poldrack-single-stim","264","375251","0.0-5.0-250.0","go-nogo","true","0","","true","<div class = centerbox><div  id = stim2></div></div>","32","32","750","","test","go","250","adv","","",""
"","-1","-1","1349","0","test_block","poldrack-single-stim","265","376813","0.0-5.0-251.0","go-nogo","true","0","","true","<div class = centerbox><div  id = stim1></div></div>","-1","32","750","","test","nogo","251","adv","","",""
"","218","32","1327","0","test_block","poldrack-single-stim","266","378264","0.0-5.0-252.0","go-nogo","true","0","","true","<div class = centerbox><div  id = stim2></div></div>","32","32","750","","test","go","252","adv","","",""
"","279","32","1356","0","test_block","poldrack-single-stim","267","379928","0.0-5.0-253.0","go-nogo","true","0","","true","<div class = centerbox><div  id = stim2></div></div>","32","32","750","","test","go","253","adv","","",""
"","219","32","1062","0","test_block","poldrack-single-stim","268","381016","0.0-5.0-254.0","go-nogo","true","0","","false","<div class = centerbox><div  id = stim1></div></div>","-1","32","750","","test","nogo","254","adv","","",""
"","225","32","1245","0","test_block","poldrack-single-stim","269","382389","0.0-5.0-255.0","go-nogo","true","0","","true","<div class = centerbox><div  id = stim2></div></div>","32","32","750","","test","go","255","adv","","",""
"","291","32","1321","0","test_block","poldrack-single-stim","270","383832","0.0-5.0-256.0","go-nogo","true","0","","true","<div class = centerbox><div  id = stim2></div></div>","32","32","750","","test","go","256","adv","","",""
"","-1","-1","1317","0","test_block","poldrack-single-stim","271","385172","0.0-5.0-257.0","go-nogo","true","0","","true","<div class = centerbox><div  id = stim1></div></div>","-1","32","750","","test","nogo","257","adv","","",""
"","239","32","1234","0","test_block","poldrack-single-stim","272","386429","0.0-5.0-258.0","go-nogo","true","0","","true","<div class = centerbox><div  id = stim2></div></div>","32","32","750","","test","go","258","adv","","",""
"","264","32","1389","0","test_block","poldrack-single-stim","273","387839","0.0-5.0-259.0","go-nogo","true","0","","true","<div class = centerbox><div  id = stim2></div></div>","32","32","750","","test","go","259","adv","","",""
"","285","32","1262","0","test_block","poldrack-single-stim","274","389123","0.0-5.0-260.0","go-nogo","true","0","","false","<div class = centerbox><div  id = stim1></div></div>","-1","32","750","","test","nogo","260","adv","","",""
"","242","32","1375","0","test_block","poldrack-single-stim","275","390519","0.0-5.0-261.0","go-nogo","true","0","","true","<div class = centerbox><div  id = stim2></div></div>","32","32","750","","test","go","261","adv","","",""
"","-1","-1","1483","0","test_block","poldrack-single-stim","276","392128","0.0-5.0-262.0","go-nogo","true","0","","true","<div class = centerbox><div  id = stim1></div></div>","-1","32","750","","test","nogo","262","adv","","",""
"","279","32","1326","0","test_block","poldrack-single-stim","277","393604","0.0-5.0-263.0","go-nogo","true","0","","true","<div class = centerbox><div  id = stim2></div></div>","32","32","750","","test","go","263","adv","","",""
"","322","32","1286","0","test_block","poldrack-single-stim","278","394949","0.0-5.0-264.0","go-nogo","true","0","","true","<div class = centerbox><div  id = stim2></div></div>","32","32","750","","test","go","264","adv","","",""
"","-1","-1","1063","0","test_block","poldrack-single-stim","279","396064","0.0-5.0-265.0","go-nogo","true","0","","true","<div class = centerbox><div  id = stim1></div></div>","-1","32","750","","test","nogo","265","adv","","",""
"","282","32","1400","0","test_block","poldrack-single-stim","280","397528","0.0-5.0-266.0","go-nogo","true","0","","true","<div class = centerbox><div  id = stim2></div></div>","32","32","750","","test","go","266","adv","","",""
"","271","32","1321","0","test_block","poldrack-single-stim","281","398916","0.0-5.0-267.0","go-nogo","true","0","","true","<div class = centerbox><div  id = stim2></div></div>","32","32","750","","test","go","267","adv","","",""
"","368","32","1363","0","test_block","poldrack-single-stim","282","400340","0.0-5.0-268.0","go-nogo","true","0","","true","<div class = centerbox><div  id = stim2></div></div>","32","32","750","","test","go","268","adv","","",""
"","-1","-1","1316","0","test_block","poldrack-single-stim","283","401710","0.0-5.0-269.0","go-nogo","true","0","","true","<div class = centerbox><div  id = stim1></div></div>","-1","32","750","","test","nogo","269","adv","","",""
"","248","32","1115","0","test_block","poldrack-single-stim","284","402893","0.0-5.0-270.0","go-nogo","true","0","","true","<div class = centerbox><div  id = stim2></div></div>","32","32","750","","test","go","270","adv","","",""
"","324","32","1147","0","test_block","poldrack-single-stim","285","404108","0.0-5.0-271.0","go-nogo","true","0","","true","<div class = centerbox><div  id = stim2></div></div>","32","32","750","","test","go","271","adv","","",""
"","329","32","1301","0","test_block","poldrack-single-stim","286","405462","0.0-5.0-272.0","go-nogo","true","0","","true","<div class = centerbox><div  id = stim2></div></div>","32","32","750","","test","go","272","adv","","",""
"","290","32","1022","0","test_block","poldrack-single-stim","287","406549","0.0-5.0-273.0","go-nogo","true","0","","true","<div class = centerbox><div  id = stim2></div></div>","32","32","750","","test","go","273","adv","","",""
"","266","32","1082","0","test_block","poldrack-single-stim","288","407658","0.0-5.0-274.0","go-nogo","true","0","","true","<div class = centerbox><div  id = stim2></div></div>","32","32","750","","test","go","274","adv","","",""
"","276","32","1250","0","test_block","poldrack-single-stim","289","408928","0.0-5.0-275.0","go-nogo","true","0","","true","<div class = centerbox><div  id = stim2></div></div>","32","32","750","","test","go","275","adv","","",""
"","-1","-1","1391","0","test_block","poldrack-single-stim","290","410337","0.0-5.0-276.0","go-nogo","true","0","","true","<div class = centerbox><div  id = stim1></div></div>","-1","32","750","","test","nogo","276","adv","","",""
"","227","32","1054","0","test_block","poldrack-single-stim","291","411413","0.0-5.0-277.0","go-nogo","true","0","","true","<div class = centerbox><div  id = stim2></div></div>","32","32","750","","test","go","277","adv","","",""
"","257","32","1498","0","test_block","poldrack-single-stim","292","413043","0.0-5.0-278.0","go-nogo","true","0","","true","<div class = centerbox><div  id = stim2></div></div>","32","32","750","","test","go","278","adv","","",""
"","269","32","1206","0","test_block","poldrack-single-stim","293","414367","0.0-5.0-279.0","go-nogo","true","0","","true","<div class = centerbox><div  id = stim2></div></div>","32","32","750","","test","go","279","adv","","",""
"","84","32","1427","0","test_block","poldrack-single-stim","294","415904","0.0-5.0-280.0","go-nogo","true","0","","true","<div class = centerbox><div  id = stim2></div></div>","32","32","750","","test","go","280","adv","","",""
"","289","32","1012","0","test_block","poldrack-single-stim","295","416973","0.0-5.0-281.0","go-nogo","true","0","","true","<div class = centerbox><div  id = stim2></div></div>","32","32","750","","test","go","281","adv","","",""
"","329","32","1346","0","test_block","poldrack-single-stim","296","418363","0.0-5.0-282.0","go-nogo","true","0","","true","<div class = centerbox><div  id = stim2></div></div>","32","32","750","","test","go","282","adv","","",""
"","299","32","1199","0","test_block","poldrack-single-stim","297","419629","0.0-5.0-283.0","go-nogo","true","0","","true","<div class = centerbox><div  id = stim2></div></div>","32","32","750","","test","go","283","adv","","",""
"","276","32","1225","0","test_block","poldrack-single-stim","298","420919","0.0-5.0-284.0","go-nogo","true","0","","true","<div class = centerbox><div  id = stim2></div></div>","32","32","750","","test","go","284","adv","","",""
"","272","32","1469","0","test_block","poldrack-single-stim","299","422446","0.0-5.0-285.0","go-nogo","true","0","","true","<div class = centerbox><div  id = stim2></div></div>","32","32","750","","test","go","285","adv","","",""
"","259","32","1175","0","test_block","poldrack-single-stim","300","423686","0.0-5.0-286.0","go-nogo","true","0","","true","<div class = centerbox><div  id = stim2></div></div>","32","32","750","","test","go","286","adv","","",""
"","271","32","1117","0","test_block","poldrack-single-stim","301","424861","0.0-5.0-287.0","go-nogo","true","0","","true","<div class = centerbox><div  id = stim2></div></div>","32","32","750","","test","go","287","adv","","",""
"","273","32","1043","0","test_block","poldrack-single-stim","302","425971","0.0-5.0-288.0","go-nogo","true","0","","true","<div class = centerbox><div  id = stim2></div></div>","32","32","750","","test","go","288","adv","","",""
"","278","32","1252","0","test_block","poldrack-single-stim","303","427280","0.0-5.0-289.0","go-nogo","true","0","","false","<div class = centerbox><div  id = stim1></div></div>","-1","32","750","","test","nogo","289","adv","","",""
"","570","32","1021","0","test_block","poldrack-single-stim","304","428342","0.0-5.0-290.0","go-nogo","true","0","","true","<div class = centerbox><div  id = stim2></div></div>","32","32","750","","test","go","290","adv","","",""
"","299","32","1118","0","test_block","poldrack-single-stim","305","429612","0.0-5.0-291.0","go-nogo","true","0","","true","<div class = centerbox><div  id = stim2></div></div>","32","32","750","","test","go","291","adv","","",""
"","228","32","1143","0","test_block","poldrack-single-stim","306","430821","0.0-5.0-292.0","go-nogo","true","0","","false","<div class = centerbox><div  id = stim1></div></div>","-1","32","750","","test","nogo","292","adv","","",""
"","9","32","1332","0","test_block","poldrack-single-stim","307","432277","0.0-5.0-293.0","go-nogo","true","0","","false","<div class = centerbox><div  id = stim1></div></div>","-1","32","750","","test","nogo","293","adv","","",""
"","-1","-1","1409","0","test_block","poldrack-single-stim","308","433870","0.0-5.0-294.0","go-nogo","true","0","","true","<div class = centerbox><div  id = stim1></div></div>","-1","32","750","","test","nogo","294","adv","","",""
"","365","32","1194","0","test_block","poldrack-single-stim","309","435122","0.0-5.0-295.0","go-nogo","true","0","","true","<div class = centerbox><div  id = stim2></div></div>","32","32","750","","test","go","295","adv","","",""
"","324","32","1104","0","test_block","poldrack-single-stim","310","436270","0.0-5.0-296.0","go-nogo","true","0","","true","<div class = centerbox><div  id = stim2></div></div>","32","32","750","","test","go","296","adv","","",""
"","-1","-1","1352","0","test_block","poldrack-single-stim","311","437680","0.0-5.0-297.0","go-nogo","true","0","","true","<div class = centerbox><div  id = stim1></div></div>","-1","32","750","","test","nogo","297","adv","","",""
"","325","32","1394","0","test_block","poldrack-single-stim","312","439095","0.0-5.0-298.0","go-nogo","true","0","","true","<div class = centerbox><div  id = stim2></div></div>","32","32","750","","test","go","298","adv","","",""
"","316","32","1101","0","test_block","poldrack-single-stim","313","440218","0.0-5.0-299.0","go-nogo","true","0","","true","<div class = centerbox><div  id = stim2></div></div>","32","32","750","","test","go","299","adv","","",""
"","-1","-1","1092","0","test_block","poldrack-single-stim","314","441334","0.0-5.0-300.0","go-nogo","true","0","","true","<div class = centerbox><div  id = stim1></div></div>","-1","32","750","","test","nogo","300","adv","","",""
"","334","32","1239","0","test_block","poldrack-single-stim","315","442595","0.0-5.0-301.0","go-nogo","true","0","","true","<div class = centerbox><div  id = stim2></div></div>","32","32","750","","test","go","301","adv","","",""
"","313","32","1499","0","test_block","poldrack-single-stim","316","444244","0.0-5.0-302.0","go-nogo","true","0","","true","<div class = centerbox><div  id = stim2></div></div>","32","32","750","","test","go","302","adv","","",""
"","342","32","1037","0","test_block","poldrack-single-stim","317","445347","0.0-5.0-303.0","go-nogo","true","0","","true","<div class = centerbox><div  id = stim2></div></div>","32","32","750","","test","go","303","adv","","",""
"","-1","-1","1326","0","test_block","poldrack-single-stim","318","446724","0.0-5.0-304.0","go-nogo","true","0","","true","<div class = centerbox><div  id = stim1></div></div>","-1","32","750","","test","nogo","304","adv","","",""
"","272","32","1263","0","test_block","poldrack-single-stim","319","448041","0.0-5.0-305.0","go-nogo","true","0","","true","<div class = centerbox><div  id = stim2></div></div>","32","32","750","","test","go","305","adv","","",""
"","278","32","1266","0","test_block","poldrack-single-stim","320","449366","0.0-5.0-306.0","go-nogo","true","0","","true","<div class = centerbox><div  id = stim2></div></div>","32","32","750","","test","go","306","adv","","",""
"","502","32","1388","0","test_block","poldrack-single-stim","321","450840","0.0-5.0-307.0","go-nogo","true","0","","true","<div class = centerbox><div  id = stim2></div></div>","32","32","750","","test","go","307","adv","","",""
"","266","32","1418","0","test_block","poldrack-single-stim","322","452330","0.0-5.0-308.0","go-nogo","true","0","","true","<div class = centerbox><div  id = stim2></div></div>","32","32","750","","test","go","308","adv","","",""
"","285","32","1248","0","test_block","poldrack-single-stim","323","453709","0.0-5.0-309.0","go-nogo","true","0","","true","<div class = centerbox><div  id = stim2></div></div>","32","32","750","","test","go","309","adv","","",""
"","293","32","1167","0","test_block","poldrack-single-stim","324","455012","0.0-5.0-310.0","go-nogo","true","0","","true","<div class = centerbox><div  id = stim2></div></div>","32","32","750","","test","go","310","adv","","",""
"","280","32","1157","0","test_block","poldrack-single-stim","325","456235","0.0-5.0-311.0","go-nogo","true","0","","true","<div class = centerbox><div  id = stim2></div></div>","32","32","750","","test","go","311","adv","","",""
"","243","32","1078","0","test_block","poldrack-single-stim","326","457372","0.0-5.0-312.0","go-nogo","true","0","","true","<div class = centerbox><div  id = stim2></div></div>","32","32","750","","test","go","312","adv","","",""
"","318","32","1099","0","test_block","poldrack-single-stim","327","458527","0.0-5.0-313.0","go-nogo","true","0","","true","<div class = centerbox><div  id = stim2></div></div>","32","32","750","","test","go","313","adv","","",""
"","287","32","1092","0","test_block","poldrack-single-stim","328","459703","0.0-5.0-314.0","go-nogo","true","0","","true","<div class = centerbox><div  id = stim2></div></div>","32","32","750","","test","go","314","adv","","",""
"","72","32","1360","0","test_block","poldrack-single-stim","329","461137","0.0-5.0-315.0","go-nogo","true","0","","true","<div class = centerbox><div  id = stim2></div></div>","32","32","750","","test","go","315","adv","","",""
"","288","32","1145","0","test_block","poldrack-single-stim","330","462340","0.0-5.0-316.0","go-nogo","true","0","","true","<div class = centerbox><div  id = stim2></div></div>","32","32","750","","test","go","316","adv","","",""
"","284","32","1344","0","test_block","poldrack-single-stim","331","463740","0.0-5.0-317.0","go-nogo","true","0","","true","<div class = centerbox><div  id = stim2></div></div>","32","32","750","","test","go","317","adv","","",""
"","296","32","1395","0","test_block","poldrack-single-stim","332","465157","0.0-5.0-318.0","go-nogo","true","0","","true","<div class = centerbox><div  id = stim2></div></div>","32","32","750","","test","go","318","adv","","",""
"","267","32","1134","0","test_block","poldrack-single-stim","333","466312","0.0-5.0-319.0","go-nogo","true","0","","true","<div class = centerbox><div  id = stim2></div></div>","32","32","750","","test","go","319","adv","","",""
"","272","32","1438","0","test_block","poldrack-single-stim","334","467815","0.0-5.0-320.0","go-nogo","true","0","","true","<div class = centerbox><div  id = stim2></div></div>","32","32","750","","test","go","320","adv","","",""
"","291","32","1439","0","test_block","poldrack-single-stim","335","469318","0.0-5.0-321.0","go-nogo","true","0","","true","<div class = centerbox><div  id = stim2></div></div>","32","32","750","","test","go","321","adv","","",""
"","521","32","1109","0","test_block","poldrack-single-stim","336","470454","0.0-5.0-322.0","go-nogo","true","0","","true","<div class = centerbox><div  id = stim2></div></div>","32","32","750","","test","go","322","adv","","",""
"","363","32","1435","0","test_block","poldrack-single-stim","337","471946","0.0-5.0-323.0","go-nogo","true","0","","true","<div class = centerbox><div  id = stim2></div></div>","32","32","750","","test","go","323","adv","","",""
"","295","32","1396","0","test_block","poldrack-single-stim","338","473407","0.0-5.0-324.0","go-nogo","true","0","","true","<div class = centerbox><div  id = stim2></div></div>","32","32","750","","test","go","324","adv","","",""
"","259","32","1145","0","test_block","poldrack-single-stim","339","474656","0.0-5.0-325.0","go-nogo","true","0","","false","<div class = centerbox><div  id = stim1></div></div>","-1","32","750","","test","nogo","325","adv","","",""
"","227","32","1485","0","test_block","poldrack-single-stim","340","476196","0.0-5.0-326.0","go-nogo","true","0","","true","<div class = centerbox><div  id = stim2></div></div>","32","32","750","","test","go","326","adv","","",""
"","264","32","1274","0","test_block","poldrack-single-stim","341","477535","0.0-5.0-327.0","go-nogo","true","0","","true","<div class = centerbox><div  id = stim2></div></div>","32","32","750","","test","go","327","adv","","",""
"","-1","-1","1430","0","test_block","poldrack-single-stim","342","479025","0.0-5.0-328.0","go-nogo","true","0","","true","<div class = centerbox><div  id = stim1></div></div>","-1","32","750","","test","nogo","328","adv","","",""
"","217","32","1147","0","test_block","poldrack-single-stim","343","480196","0.0-5.0-329.0","go-nogo","true","0","","true","<div class = centerbox><div  id = stim2></div></div>","32","32","750","","test","go","329","adv","","",""
"","232","32","1386","0","test_block","poldrack-single-stim","344","481604","0.0-5.0-330.0","go-nogo","true","0","","true","<div class = centerbox><div  id = stim2></div></div>","32","32","750","","test","go","330","adv","","",""
"","236","32","1498","0","test_block","poldrack-single-stim","345","483120","0.0-5.0-331.0","go-nogo","true","0","","false","<div class = centerbox><div  id = stim1></div></div>","-1","32","750","","test","nogo","331","adv","","",""
"","262","32","1314","0","test_block","poldrack-single-stim","346","484494","0.0-5.0-332.0","go-nogo","true","0","","true","<div class = centerbox><div  id = stim2></div></div>","32","32","750","","test","go","332","adv","","",""
"","297","32","1151","0","test_block","poldrack-single-stim","347","485712","0.0-5.0-333.0","go-nogo","true","0","","true","<div class = centerbox><div  id = stim2></div></div>","32","32","750","","test","go","333","adv","","",""
"","256","32","1232","0","test_block","poldrack-single-stim","348","487010","0.0-5.0-334.0","go-nogo","true","0","","false","<div class = centerbox><div  id = stim1></div></div>","-1","32","750","","test","nogo","334","adv","","",""
"","247","32","1050","0","test_block","poldrack-single-stim","349","488128","0.0-5.0-335.0","go-nogo","true","0","","true","<div class = centerbox><div  id = stim2></div></div>","32","32","750","","test","go","335","adv","","",""
"","219","32","1216","0","test_block","poldrack-single-stim","350","489366","0.0-5.0-336.0","go-nogo","true","0","","true","<div class = centerbox><div  id = stim2></div></div>","32","32","750","","test","go","336","adv","","",""
"","323","32","1137","0","test_block","poldrack-single-stim","351","490632","0.0-5.0-337.0","go-nogo","true","0","","true","<div class = centerbox><div  id = stim2></div></div>","32","32","750","","test","go","337","adv","","",""
"","321","32","1130","0","test_block","poldrack-single-stim","352","491875","0.0-5.0-338.0","go-nogo","true","0","","true","<div class = centerbox><div  id = stim2></div></div>","32","32","750","","test","go","338","adv","","",""
"","372","32","1441","0","test_block","poldrack-single-stim","353","493369","0.0-5.0-339.0","go-nogo","true","0","","true","<div class = centerbox><div  id = stim2></div></div>","32","32","750","","test","go","339","adv","","",""
"","350","32","1109","0","test_block","poldrack-single-stim","354","494496","0.0-5.0-340.0","go-nogo","true","0","","true","<div class = centerbox><div  id = stim2></div></div>","32","32","750","","test","go","340","adv","","",""
"","263","32","1240","0","test_block","poldrack-single-stim","355","495834","0.0-5.0-341.0","go-nogo","true","0","","true","<div class = centerbox><div  id = stim2></div></div>","32","32","750","","test","go","341","adv","","",""
"","322","32","1292","0","test_block","poldrack-single-stim","356","497220","0.0-5.0-342.0","go-nogo","true","0","","true","<div class = centerbox><div  id = stim2></div></div>","32","32","750","","test","go","342","adv","","",""
"","390","32","1079","0","test_block","poldrack-single-stim","357","498390","0.0-5.0-343.0","go-nogo","true","0","","true","<div class = centerbox><div  id = stim2></div></div>","32","32","750","","test","go","343","adv","","",""
"","379","32","1121","0","test_block","poldrack-single-stim","358","499584","0.0-5.0-344.0","go-nogo","true","0","","true","<div class = centerbox><div  id = stim2></div></div>","32","32","750","","test","go","344","adv","","",""
"","322","32","1316","0","test_block","poldrack-single-stim","359","500945","0.0-5.0-345.0","go-nogo","true","0","","true","<div class = centerbox><div  id = stim2></div></div>","32","32","750","","test","go","345","adv","","",""
"","329","32","1226","0","test_block","poldrack-single-stim","360","502227","0.0-5.0-346.0","go-nogo","true","0","","true","<div class = centerbox><div  id = stim2></div></div>","32","32","750","","test","go","346","adv","","",""
"","269","32","1219","0","test_block","poldrack-single-stim","361","503464","0.0-5.0-347.0","go-nogo","true","0","","true","<div class = centerbox><div  id = stim2></div></div>","32","32","750","","test","go","347","adv","","",""
"","304","32","1378","0","test_block","poldrack-single-stim","362","504956","0.0-5.0-348.0","go-nogo","true","0","","true","<div class = centerbox><div  id = stim2></div></div>","32","32","750","","test","go","348","adv","","",""
"","325","32","1437","0","test_block","poldrack-single-stim","363","506482","0.0-5.0-349.0","go-nogo","true","0","","true","<div class = centerbox><div  id = stim2></div></div>","32","32","750","","test","go","349","adv","","",""
"","14417","","","","post task questions","survey-text","364","520964","0.0-7.0","go-nogo","true","0","","","","","","","","","","","","{""Q0"":""\nI had to click space bar if it was blue but not orange. "",""Q1"":""""}","",""
"<div class = centerbox><p class = center-block-text>Thanks for completing this task!</p><p class = center-block-text>Insert the following code to collect your payment at Amazon Mechanical Turk:</p><p class = center-block-text>869468317</p><p class = center-block-text>Press <strong>enter</strong> to continue.</p></div>","15417","13","15417","0","end","poldrack-text","365","537384","0.0-8.0","go-nogo","true","1","","","","","","","","","","","","","869468317","true"
