"text","rt","key_press","block_duration","timing_post_trial","trial_id","trial_type","trial_index","time_elapsed","internal_node_id","exp_id","full_screen","focus_shifts","view_history","correct","stimulus","correct_response","possible_responses","stim_duration","feedback_duration","exp_stage","condition","trial_num","mode","responses","payment_id","credit_var"
"<div class = centerbox><p class = center-block-text>Welcome to the experiment. This task will take around 10 minutes. Press <strong>enter</strong> to begin.</p></div>","24218","13","24218","0","instruction","poldrack-text","0","24222","0.0-0.0-0.0","go-nogo","true","1","","","","","","","","","","","","","",""
"","17404","","","","instruction","poldrack-instructions","1","41630","0.0-0.0-1.0","go-nogo","false","2","[{""page_index"":0,""viewing_time"":17402}]","","","","","","","","","","","","",""
"","-1","-1","1476","250","practice","poldrack-categorize","2","45171","0.0-1.0-0.0","go-nogo","false","0","","true","<div class = centerbox><div id = stim2></div></div>","-1","32","750","1000","practice","nogo","0","random","","",""
"","338","32","1241","250","practice","poldrack-categorize","3","47789","0.0-1.0-1.0","go-nogo","false","0","","true","<div class = centerbox><div  id = stim1></div></div>","32","32","750","1000","practice","go","1","random","","",""
"","-1","-1","1271","250","practice","poldrack-categorize","4","50383","0.0-1.0-2.0","go-nogo","false","0","","true","<div class = centerbox><div id = stim2></div></div>","-1","32","750","1000","practice","nogo","2","random","","",""
"","407","32","1038","250","practice","poldrack-categorize","5","52704","0.0-1.0-3.0","go-nogo","false","0","","true","<div class = centerbox><div  id = stim1></div></div>","32","32","750","1000","practice","go","3","random","","",""
"","349","32","1217","250","practice","poldrack-categorize","6","55229","0.0-1.0-4.0","go-nogo","false","0","","true","<div class = centerbox><div  id = stim1></div></div>","32","32","750","1000","practice","go","4","random","","",""
"","-1","-1","1401","250","practice","poldrack-categorize","7","57913","0.0-1.0-5.0","go-nogo","false","0","","true","<div class = centerbox><div id = stim2></div></div>","-1","32","750","1000","practice","nogo","5","random","","",""
"","393","32","1060","250","practice","poldrack-categorize","8","60301","0.0-1.0-6.0","go-nogo","false","0","","true","<div class = centerbox><div  id = stim1></div></div>","32","32","750","1000","practice","go","6","random","","",""
"","442","32","1200","250","practice","poldrack-categorize","9","62793","0.0-1.0-7.0","go-nogo","false","0","","true","<div class = centerbox><div  id = stim1></div></div>","32","32","750","1000","practice","go","7","random","","",""
"","-1","-1","1321","250","practice","poldrack-categorize","10","65419","0.0-1.0-8.0","go-nogo","false","0","","true","<div class = centerbox><div id = stim2></div></div>","-1","32","750","1000","practice","nogo","8","random","","",""
"","-1","-1","1240","250","practice","poldrack-categorize","11","68016","0.0-1.0-9.0","go-nogo","false","0","","true","<div class = centerbox><div id = stim2></div></div>","-1","32","750","1000","practice","nogo","9","random","","",""
"","","","","","reset_trial","call-function","12","68292","0.0-3.0","go-nogo","false","0","","","","","","","","","","","","","",""
"<div class = centerbox><p class = block-text>Practice is over, we will now begin the experiment. You will no longer get feedback about your responses.</p><p class = block-text>Remember, if you see the <font color=""orange"">orange</font> square you should <strong> respond by pressing the spacebar as quickly as possible</strong>. If you see the <font color=""blue"">blue</font> square you should <strong> not respond</strong>. Press <strong>enter</strong> to begin.</p></div>","5272","13","5272","1000","test_intro","poldrack-text","13","73566","0.0-4.0","go-nogo","false","0","","","","","","","","","","","","","",""
"","406","32","1381","0","test_block","poldrack-single-stim","14","75996","0.0-5.0-0.0","go-nogo","false","0","","true","<div class = centerbox><div  id = stim1></div></div>","32","32","750","","test","go","0","random","","",""
"","422","32","1212","0","test_block","poldrack-single-stim","15","78484","0.0-5.0-1.0","go-nogo","false","0","","true","<div class = centerbox><div  id = stim1></div></div>","32","32","750","","test","go","1","random","","",""
"","398","32","1498","0","test_block","poldrack-single-stim","16","80797","0.0-5.0-2.0","go-nogo","false","0","","true","<div class = centerbox><div  id = stim1></div></div>","32","32","750","","test","go","2","random","","",""
"","421","32","1179","0","test_block","poldrack-single-stim","17","82331","0.0-5.0-3.0","go-nogo","false","0","","true","<div class = centerbox><div  id = stim1></div></div>","32","32","750","","test","go","3","random","","",""
"","407","32","1290","0","test_block","poldrack-single-stim","18","84041","0.0-5.0-4.0","go-nogo","false","0","","true","<div class = centerbox><div  id = stim1></div></div>","32","32","750","","test","go","4","random","","",""
"","389","32","1145","0","test_block","poldrack-single-stim","19","85513","0.0-5.0-5.0","go-nogo","false","0","","true","<div class = centerbox><div  id = stim1></div></div>","32","32","750","","test","go","5","random","","",""
"","393","32","1005","0","test_block","poldrack-single-stim","20","87112","0.0-5.0-6.0","go-nogo","false","0","","true","<div class = centerbox><div  id = stim1></div></div>","32","32","750","","test","go","6","random","","",""
"","465","32","1490","0","test_block","poldrack-single-stim","21","88921","0.0-5.0-7.0","go-nogo","false","0","","true","<div class = centerbox><div  id = stim1></div></div>","32","32","750","","test","go","7","random","","",""
"","391","32","1195","0","test_block","poldrack-single-stim","22","90414","0.0-5.0-8.0","go-nogo","false","0","","true","<div class = centerbox><div  id = stim1></div></div>","32","32","750","","test","go","8","random","","",""
"","364","32","1312","0","test_block","poldrack-single-stim","23","92736","0.0-5.0-9.0","go-nogo","false","0","","true","<div class = centerbox><div  id = stim1></div></div>","32","32","750","","test","go","9","random","","",""
"","-1","-1","1135","0","test_block","poldrack-single-stim","24","94432","0.0-5.0-10.0","go-nogo","false","0","","true","<div class = centerbox><div  id = stim2></div></div>","-1","32","750","","test","nogo","10","random","","",""
"","445","32","1336","0","test_block","poldrack-single-stim","25","96064","0.0-5.0-11.0","go-nogo","false","0","","true","<div class = centerbox><div  id = stim1></div></div>","32","32","750","","test","go","11","random","","",""
"","350","32","1495","0","test_block","poldrack-single-stim","26","98005","0.0-5.0-12.0","go-nogo","false","0","","true","<div class = centerbox><div  id = stim1></div></div>","32","32","750","","test","go","12","random","","",""
"","295","32","1424","0","test_block","poldrack-single-stim","27","99999","0.0-5.0-13.0","go-nogo","false","0","","true","<div class = centerbox><div  id = stim1></div></div>","32","32","750","","test","go","13","random","","",""
"","-1","-1","1265","0","test_block","poldrack-single-stim","28","101574","0.0-5.0-14.0","go-nogo","false","0","","true","<div class = centerbox><div  id = stim2></div></div>","-1","32","750","","test","nogo","14","random","","",""
"","328","32","1096","0","test_block","poldrack-single-stim","29","103203","0.0-5.0-15.0","go-nogo","false","0","","true","<div class = centerbox><div  id = stim1></div></div>","32","32","750","","test","go","15","random","","",""
"","361","32","1364","0","test_block","poldrack-single-stim","30","104906","0.0-5.0-16.0","go-nogo","false","0","","true","<div class = centerbox><div  id = stim1></div></div>","32","32","750","","test","go","16","random","","",""
"","345","32","1033","0","test_block","poldrack-single-stim","31","106310","0.0-5.0-17.0","go-nogo","false","0","","true","<div class = centerbox><div  id = stim1></div></div>","32","32","750","","test","go","17","random","","",""
"","415","32","1388","0","test_block","poldrack-single-stim","32","108011","0.0-5.0-18.0","go-nogo","false","0","","true","<div class = centerbox><div  id = stim1></div></div>","32","32","750","","test","go","18","random","","",""
"","366","32","1443","0","test_block","poldrack-single-stim","33","109755","0.0-5.0-19.0","go-nogo","false","0","","true","<div class = centerbox><div  id = stim1></div></div>","32","32","750","","test","go","19","random","","",""
"","549","32","1356","0","test_block","poldrack-single-stim","34","111421","0.0-5.0-20.0","go-nogo","false","0","","true","<div class = centerbox><div  id = stim1></div></div>","32","32","750","","test","go","20","random","","",""
"","420","32","1024","0","test_block","poldrack-single-stim","35","112775","0.0-5.0-21.0","go-nogo","false","0","","true","<div class = centerbox><div  id = stim1></div></div>","32","32","750","","test","go","21","random","","",""
"","316","32","1322","0","test_block","poldrack-single-stim","36","114440","0.0-5.0-22.0","go-nogo","false","0","","true","<div class = centerbox><div  id = stim1></div></div>","32","32","750","","test","go","22","random","","",""
"","283","32","1206","0","test_block","poldrack-single-stim","37","115916","0.0-5.0-23.0","go-nogo","false","0","","true","<div class = centerbox><div  id = stim1></div></div>","32","32","750","","test","go","23","random","","",""
"","286","32","1418","0","test_block","poldrack-single-stim","38","117619","0.0-5.0-24.0","go-nogo","false","0","","true","<div class = centerbox><div  id = stim1></div></div>","32","32","750","","test","go","24","random","","",""
"","313","32","1059","0","test_block","poldrack-single-stim","39","119025","0.0-5.0-25.0","go-nogo","false","0","","true","<div class = centerbox><div  id = stim1></div></div>","32","32","750","","test","go","25","random","","",""
"","-1","-1","1241","0","test_block","poldrack-single-stim","40","120667","0.0-5.0-26.0","go-nogo","false","0","","true","<div class = centerbox><div  id = stim2></div></div>","-1","32","750","","test","nogo","26","random","","",""
"","351","32","1212","0","test_block","poldrack-single-stim","41","122064","0.0-5.0-27.0","go-nogo","false","0","","true","<div class = centerbox><div  id = stim1></div></div>","32","32","750","","test","go","27","random","","",""
"","292","32","1218","0","test_block","poldrack-single-stim","42","123747","0.0-5.0-28.0","go-nogo","false","0","","true","<div class = centerbox><div  id = stim1></div></div>","32","32","750","","test","go","28","random","","",""
"","293","32","1404","0","test_block","poldrack-single-stim","43","125519","0.0-5.0-29.0","go-nogo","false","0","","true","<div class = centerbox><div  id = stim1></div></div>","32","32","750","","test","go","29","random","","",""
"","324","32","1216","0","test_block","poldrack-single-stim","44","127212","0.0-5.0-30.0","go-nogo","false","0","","true","<div class = centerbox><div  id = stim1></div></div>","32","32","750","","test","go","30","random","","",""
"","328","32","1238","0","test_block","poldrack-single-stim","45","128646","0.0-5.0-31.0","go-nogo","false","0","","true","<div class = centerbox><div  id = stim1></div></div>","32","32","750","","test","go","31","random","","",""
"","306","32","1199","0","test_block","poldrack-single-stim","46","130205","0.0-5.0-32.0","go-nogo","false","0","","true","<div class = centerbox><div  id = stim1></div></div>","32","32","750","","test","go","32","random","","",""
"","347","32","1386","0","test_block","poldrack-single-stim","47","131918","0.0-5.0-33.0","go-nogo","false","0","","true","<div class = centerbox><div  id = stim1></div></div>","32","32","750","","test","go","33","random","","",""
"","372","32","1461","0","test_block","poldrack-single-stim","48","133806","0.0-5.0-34.0","go-nogo","false","0","","true","<div class = centerbox><div  id = stim1></div></div>","32","32","750","","test","go","34","random","","",""
"","308","32","1085","0","test_block","poldrack-single-stim","49","135380","0.0-5.0-35.0","go-nogo","false","0","","true","<div class = centerbox><div  id = stim1></div></div>","32","32","750","","test","go","35","random","","",""
"","-1","-1","1262","0","test_block","poldrack-single-stim","50","136949","0.0-5.0-36.0","go-nogo","false","0","","true","<div class = centerbox><div  id = stim2></div></div>","-1","32","750","","test","nogo","36","random","","",""
"","-1","-1","1006","0","test_block","poldrack-single-stim","51","138247","0.0-5.0-37.0","go-nogo","false","0","","true","<div class = centerbox><div  id = stim2></div></div>","-1","32","750","","test","nogo","37","random","","",""
"","361","32","1081","0","test_block","poldrack-single-stim","52","139694","0.0-5.0-38.0","go-nogo","false","0","","true","<div class = centerbox><div  id = stim1></div></div>","32","32","750","","test","go","38","random","","",""
"","313","32","1168","0","test_block","poldrack-single-stim","53","141104","0.0-5.0-39.0","go-nogo","false","0","","true","<div class = centerbox><div  id = stim1></div></div>","32","32","750","","test","go","39","random","","",""
"","286","32","1167","0","test_block","poldrack-single-stim","54","142516","0.0-5.0-40.0","go-nogo","false","0","","true","<div class = centerbox><div  id = stim1></div></div>","32","32","750","","test","go","40","random","","",""
"","299","32","1010","0","test_block","poldrack-single-stim","55","143800","0.0-5.0-41.0","go-nogo","false","0","","true","<div class = centerbox><div  id = stim1></div></div>","32","32","750","","test","go","41","random","","",""
"","-1","-1","1124","0","test_block","poldrack-single-stim","56","145245","0.0-5.0-42.0","go-nogo","false","0","","true","<div class = centerbox><div  id = stim2></div></div>","-1","32","750","","test","nogo","42","random","","",""
"","384","32","1195","0","test_block","poldrack-single-stim","57","146753","0.0-5.0-43.0","go-nogo","false","0","","true","<div class = centerbox><div  id = stim1></div></div>","32","32","750","","test","go","43","random","","",""
"","266","32","1205","0","test_block","poldrack-single-stim","58","148223","0.0-5.0-44.0","go-nogo","false","0","","true","<div class = centerbox><div  id = stim1></div></div>","32","32","750","","test","go","44","random","","",""
"","264","32","1407","0","test_block","poldrack-single-stim","59","149950","0.0-5.0-45.0","go-nogo","false","0","","true","<div class = centerbox><div  id = stim1></div></div>","32","32","750","","test","go","45","random","","",""
"","308","32","1006","0","test_block","poldrack-single-stim","60","151209","0.0-5.0-46.0","go-nogo","false","0","","true","<div class = centerbox><div  id = stim1></div></div>","32","32","750","","test","go","46","random","","",""
"","300","32","1368","0","test_block","poldrack-single-stim","61","152986","0.0-5.0-47.0","go-nogo","false","0","","true","<div class = centerbox><div  id = stim1></div></div>","32","32","750","","test","go","47","random","","",""
"","-1","-1","1405","0","test_block","poldrack-single-stim","62","154723","0.0-5.0-48.0","go-nogo","false","0","","true","<div class = centerbox><div  id = stim2></div></div>","-1","32","750","","test","nogo","48","random","","",""
"","-1","-1","1227","0","test_block","poldrack-single-stim","63","156533","0.0-5.0-49.0","go-nogo","false","0","","true","<div class = centerbox><div  id = stim2></div></div>","-1","32","750","","test","nogo","49","random","","",""
"","362","32","1219","0","test_block","poldrack-single-stim","64","158208","0.0-5.0-50.0","go-nogo","false","0","","true","<div class = centerbox><div  id = stim1></div></div>","32","32","750","","test","go","50","random","","",""
"","321","32","1396","0","test_block","poldrack-single-stim","65","159910","0.0-5.0-51.0","go-nogo","false","0","","true","<div class = centerbox><div  id = stim1></div></div>","32","32","750","","test","go","51","random","","",""
"","310","32","1075","0","test_block","poldrack-single-stim","66","161403","0.0-5.0-52.0","go-nogo","false","0","","true","<div class = centerbox><div  id = stim1></div></div>","32","32","750","","test","go","52","random","","",""
"","381","32","1238","0","test_block","poldrack-single-stim","67","162841","0.0-5.0-53.0","go-nogo","false","0","","true","<div class = centerbox><div  id = stim1></div></div>","32","32","750","","test","go","53","random","","",""
"","299","32","1469","0","test_block","poldrack-single-stim","68","164723","0.0-5.0-54.0","go-nogo","false","0","","true","<div class = centerbox><div  id = stim1></div></div>","32","32","750","","test","go","54","random","","",""
"","339","32","1071","0","test_block","poldrack-single-stim","69","166256","0.0-5.0-55.0","go-nogo","false","0","","true","<div class = centerbox><div  id = stim1></div></div>","32","32","750","","test","go","55","random","","",""
"","348","32","1008","0","test_block","poldrack-single-stim","70","167594","0.0-5.0-56.0","go-nogo","false","0","","true","<div class = centerbox><div  id = stim1></div></div>","32","32","750","","test","go","56","random","","",""
"","301","32","1382","0","test_block","poldrack-single-stim","71","169204","0.0-5.0-57.0","go-nogo","false","0","","true","<div class = centerbox><div  id = stim1></div></div>","32","32","750","","test","go","57","random","","",""
"","333","32","1374","0","test_block","poldrack-single-stim","72","170872","0.0-5.0-58.0","go-nogo","false","0","","true","<div class = centerbox><div  id = stim1></div></div>","32","32","750","","test","go","58","random","","",""
"","318","32","1231","0","test_block","poldrack-single-stim","73","172262","0.0-5.0-59.0","go-nogo","false","0","","true","<div class = centerbox><div  id = stim1></div></div>","32","32","750","","test","go","59","random","","",""
"","374","32","1214","0","test_block","poldrack-single-stim","74","173733","0.0-5.0-60.0","go-nogo","false","0","","true","<div class = centerbox><div  id = stim1></div></div>","32","32","750","","test","go","60","random","","",""
"","286","32","1422","0","test_block","poldrack-single-stim","75","175403","0.0-5.0-61.0","go-nogo","false","0","","true","<div class = centerbox><div  id = stim1></div></div>","32","32","750","","test","go","61","random","","",""
"","326","32","1288","0","test_block","poldrack-single-stim","76","176941","0.0-5.0-62.0","go-nogo","false","0","","true","<div class = centerbox><div  id = stim1></div></div>","32","32","750","","test","go","62","random","","",""
"","255","32","1269","0","test_block","poldrack-single-stim","77","178473","0.0-5.0-63.0","go-nogo","false","0","","true","<div class = centerbox><div  id = stim1></div></div>","32","32","750","","test","go","63","random","","",""
"","-1","-1","1482","0","test_block","poldrack-single-stim","78","180127","0.0-5.0-64.0","go-nogo","false","0","","true","<div class = centerbox><div  id = stim2></div></div>","-1","32","750","","test","nogo","64","random","","",""
"","303","32","1190","0","test_block","poldrack-single-stim","79","181516","0.0-5.0-65.0","go-nogo","false","0","","true","<div class = centerbox><div  id = stim1></div></div>","32","32","750","","test","go","65","random","","",""
"","295","32","1312","0","test_block","poldrack-single-stim","80","183062","0.0-5.0-66.0","go-nogo","false","0","","true","<div class = centerbox><div  id = stim1></div></div>","32","32","750","","test","go","66","random","","",""
"","-1","-1","1136","0","test_block","poldrack-single-stim","81","184497","0.0-5.0-67.0","go-nogo","false","0","","true","<div class = centerbox><div  id = stim2></div></div>","-1","32","750","","test","nogo","67","random","","",""
"","386","32","1080","0","test_block","poldrack-single-stim","82","185776","0.0-5.0-68.0","go-nogo","false","0","","true","<div class = centerbox><div  id = stim1></div></div>","32","32","750","","test","go","68","random","","",""
"","333","32","1186","0","test_block","poldrack-single-stim","83","187413","0.0-5.0-69.0","go-nogo","false","0","","true","<div class = centerbox><div  id = stim1></div></div>","32","32","750","","test","go","69","random","","",""
"","301","32","1311","0","test_block","poldrack-single-stim","84","188982","0.0-5.0-70.0","go-nogo","false","0","","true","<div class = centerbox><div  id = stim1></div></div>","32","32","750","","test","go","70","random","","",""
"","279","32","1081","0","test_block","poldrack-single-stim","85","190391","0.0-5.0-71.0","go-nogo","false","0","","true","<div class = centerbox><div  id = stim1></div></div>","32","32","750","","test","go","71","random","","",""
"","344","32","1112","0","test_block","poldrack-single-stim","86","191839","0.0-5.0-72.0","go-nogo","false","0","","true","<div class = centerbox><div  id = stim1></div></div>","32","32","750","","test","go","72","random","","",""
"","330","32","1252","0","test_block","poldrack-single-stim","87","193279","0.0-5.0-73.0","go-nogo","false","0","","true","<div class = centerbox><div  id = stim1></div></div>","32","32","750","","test","go","73","random","","",""
"","-1","-1","1075","0","test_block","poldrack-single-stim","88","194521","0.0-5.0-74.0","go-nogo","false","0","","true","<div class = centerbox><div  id = stim2></div></div>","-1","32","750","","test","nogo","74","random","","",""
"","319","32","1435","0","test_block","poldrack-single-stim","89","196224","0.0-5.0-75.0","go-nogo","false","0","","true","<div class = centerbox><div  id = stim1></div></div>","32","32","750","","test","go","75","random","","",""
"","335","32","1372","0","test_block","poldrack-single-stim","90","197846","0.0-5.0-76.0","go-nogo","false","0","","true","<div class = centerbox><div  id = stim1></div></div>","32","32","750","","test","go","76","random","","",""
"","384","32","1233","0","test_block","poldrack-single-stim","91","199255","0.0-5.0-77.0","go-nogo","false","0","","true","<div class = centerbox><div  id = stim1></div></div>","32","32","750","","test","go","77","random","","",""
"","342","32","1452","0","test_block","poldrack-single-stim","92","201043","0.0-5.0-78.0","go-nogo","false","0","","true","<div class = centerbox><div  id = stim1></div></div>","32","32","750","","test","go","78","random","","",""
"","286","32","1212","0","test_block","poldrack-single-stim","93","202521","0.0-5.0-79.0","go-nogo","false","0","","true","<div class = centerbox><div  id = stim1></div></div>","32","32","750","","test","go","79","random","","",""
"","308","32","1277","0","test_block","poldrack-single-stim","94","203948","0.0-5.0-80.0","go-nogo","false","0","","true","<div class = centerbox><div  id = stim1></div></div>","32","32","750","","test","go","80","random","","",""
"","309","32","1032","0","test_block","poldrack-single-stim","95","205382","0.0-5.0-81.0","go-nogo","false","0","","true","<div class = centerbox><div  id = stim1></div></div>","32","32","750","","test","go","81","random","","",""
"","315","32","1020","0","test_block","poldrack-single-stim","96","206569","0.0-5.0-82.0","go-nogo","false","0","","true","<div class = centerbox><div  id = stim1></div></div>","32","32","750","","test","go","82","random","","",""
"","300","32","1250","0","test_block","poldrack-single-stim","97","208233","0.0-5.0-83.0","go-nogo","false","0","","true","<div class = centerbox><div  id = stim1></div></div>","32","32","750","","test","go","83","random","","",""
"","305","32","1427","0","test_block","poldrack-single-stim","98","209869","0.0-5.0-84.0","go-nogo","false","0","","true","<div class = centerbox><div  id = stim1></div></div>","32","32","750","","test","go","84","random","","",""
"","346","32","1152","0","test_block","poldrack-single-stim","99","211358","0.0-5.0-85.0","go-nogo","false","0","","true","<div class = centerbox><div  id = stim1></div></div>","32","32","750","","test","go","85","random","","",""
"","311","32","1331","0","test_block","poldrack-single-stim","100","212904","0.0-5.0-86.0","go-nogo","false","0","","true","<div class = centerbox><div  id = stim1></div></div>","32","32","750","","test","go","86","random","","",""
"","331","32","1456","0","test_block","poldrack-single-stim","101","214745","0.0-5.0-87.0","go-nogo","false","0","","true","<div class = centerbox><div  id = stim1></div></div>","32","32","750","","test","go","87","random","","",""
"","286","32","1446","0","test_block","poldrack-single-stim","102","216448","0.0-5.0-88.0","go-nogo","false","0","","true","<div class = centerbox><div  id = stim1></div></div>","32","32","750","","test","go","88","random","","",""
"","315","32","1065","0","test_block","poldrack-single-stim","103","217862","0.0-5.0-89.0","go-nogo","false","0","","true","<div class = centerbox><div  id = stim1></div></div>","32","32","750","","test","go","89","random","","",""
"","337","32","1287","0","test_block","poldrack-single-stim","104","219363","0.0-5.0-90.0","go-nogo","false","0","","true","<div class = centerbox><div  id = stim1></div></div>","32","32","750","","test","go","90","random","","",""
"","365","32","1297","0","test_block","poldrack-single-stim","105","221110","0.0-5.0-91.0","go-nogo","false","0","","true","<div class = centerbox><div  id = stim1></div></div>","32","32","750","","test","go","91","random","","",""
"","272","32","1159","0","test_block","poldrack-single-stim","106","222424","0.0-5.0-92.0","go-nogo","false","0","","true","<div class = centerbox><div  id = stim1></div></div>","32","32","750","","test","go","92","random","","",""
"","344","32","1043","0","test_block","poldrack-single-stim","107","223710","0.0-5.0-93.0","go-nogo","false","0","","true","<div class = centerbox><div  id = stim1></div></div>","32","32","750","","test","go","93","random","","",""
"","287","32","1153","0","test_block","poldrack-single-stim","108","225121","0.0-5.0-94.0","go-nogo","false","0","","true","<div class = centerbox><div  id = stim1></div></div>","32","32","750","","test","go","94","random","","",""
"","342","32","1202","0","test_block","poldrack-single-stim","109","226632","0.0-5.0-95.0","go-nogo","false","0","","true","<div class = centerbox><div  id = stim1></div></div>","32","32","750","","test","go","95","random","","",""
"","328","32","1017","0","test_block","poldrack-single-stim","110","227930","0.0-5.0-96.0","go-nogo","false","0","","true","<div class = centerbox><div  id = stim1></div></div>","32","32","750","","test","go","96","random","","",""
"","317","32","1481","0","test_block","poldrack-single-stim","111","229641","0.0-5.0-97.0","go-nogo","false","0","","true","<div class = centerbox><div  id = stim1></div></div>","32","32","750","","test","go","97","random","","",""
"","419","32","1353","0","test_block","poldrack-single-stim","112","231299","0.0-5.0-98.0","go-nogo","false","0","","true","<div class = centerbox><div  id = stim1></div></div>","32","32","750","","test","go","98","random","","",""
"","279","32","1396","0","test_block","poldrack-single-stim","113","233085","0.0-5.0-99.0","go-nogo","false","0","","true","<div class = centerbox><div  id = stim1></div></div>","32","32","750","","test","go","99","random","","",""
"","345","32","1340","0","test_block","poldrack-single-stim","114","234694","0.0-5.0-100.0","go-nogo","false","0","","true","<div class = centerbox><div  id = stim1></div></div>","32","32","750","","test","go","100","random","","",""
"","329","32","1305","0","test_block","poldrack-single-stim","115","236324","0.0-5.0-101.0","go-nogo","false","0","","true","<div class = centerbox><div  id = stim1></div></div>","32","32","750","","test","go","101","random","","",""
"","343","32","1263","0","test_block","poldrack-single-stim","116","237843","0.0-5.0-102.0","go-nogo","false","0","","true","<div class = centerbox><div  id = stim1></div></div>","32","32","750","","test","go","102","random","","",""
"","-1","-1","1106","0","test_block","poldrack-single-stim","117","239343","0.0-5.0-103.0","go-nogo","false","0","","true","<div class = centerbox><div  id = stim2></div></div>","-1","32","750","","test","nogo","103","random","","",""
"","374","32","1446","0","test_block","poldrack-single-stim","118","241014","0.0-5.0-104.0","go-nogo","false","0","","true","<div class = centerbox><div  id = stim1></div></div>","32","32","750","","test","go","104","random","","",""
"","293","32","1282","0","test_block","poldrack-single-stim","119","242669","0.0-5.0-105.0","go-nogo","false","0","","true","<div class = centerbox><div  id = stim1></div></div>","32","32","750","","test","go","105","random","","",""
"","289","32","1211","0","test_block","poldrack-single-stim","120","244062","0.0-5.0-106.0","go-nogo","false","0","","true","<div class = centerbox><div  id = stim1></div></div>","32","32","750","","test","go","106","random","","",""
"","-1","-1","1264","0","test_block","poldrack-single-stim","121","245591","0.0-5.0-107.0","go-nogo","false","0","","true","<div class = centerbox><div  id = stim2></div></div>","-1","32","750","","test","nogo","107","random","","",""
"","306","32","1025","0","test_block","poldrack-single-stim","122","246936","0.0-5.0-108.0","go-nogo","false","0","","true","<div class = centerbox><div  id = stim1></div></div>","32","32","750","","test","go","108","random","","",""
"","337","32","1095","0","test_block","poldrack-single-stim","123","248340","0.0-5.0-109.0","go-nogo","false","0","","true","<div class = centerbox><div  id = stim1></div></div>","32","32","750","","test","go","109","random","","",""
"","321","32","1233","0","test_block","poldrack-single-stim","124","249825","0.0-5.0-110.0","go-nogo","false","0","","true","<div class = centerbox><div  id = stim1></div></div>","32","32","750","","test","go","110","random","","",""
"","335","32","1254","0","test_block","poldrack-single-stim","125","251447","0.0-5.0-111.0","go-nogo","false","0","","true","<div class = centerbox><div  id = stim1></div></div>","32","32","750","","test","go","111","random","","",""
"","283","32","1380","0","test_block","poldrack-single-stim","126","253148","0.0-5.0-112.0","go-nogo","false","0","","true","<div class = centerbox><div  id = stim1></div></div>","32","32","750","","test","go","112","random","","",""
"","283","32","1259","0","test_block","poldrack-single-stim","127","254661","0.0-5.0-113.0","go-nogo","false","0","","true","<div class = centerbox><div  id = stim1></div></div>","32","32","750","","test","go","113","random","","",""
"","294","32","1486","0","test_block","poldrack-single-stim","128","256413","0.0-5.0-114.0","go-nogo","false","0","","true","<div class = centerbox><div  id = stim1></div></div>","32","32","750","","test","go","114","random","","",""
"","312","32","1415","0","test_block","poldrack-single-stim","129","258256","0.0-5.0-115.0","go-nogo","false","0","","true","<div class = centerbox><div  id = stim1></div></div>","32","32","750","","test","go","115","random","","",""
"","292","32","1274","0","test_block","poldrack-single-stim","130","259792","0.0-5.0-116.0","go-nogo","false","0","","true","<div class = centerbox><div  id = stim1></div></div>","32","32","750","","test","go","116","random","","",""
"","276","32","1195","0","test_block","poldrack-single-stim","131","261225","0.0-5.0-117.0","go-nogo","false","0","","false","<div class = centerbox><div  id = stim2></div></div>","-1","32","750","","test","nogo","117","random","","",""
"","372","32","1074","0","test_block","poldrack-single-stim","132","262607","0.0-5.0-118.0","go-nogo","false","0","","true","<div class = centerbox><div  id = stim1></div></div>","32","32","750","","test","go","118","random","","",""
"","318","32","1445","0","test_block","poldrack-single-stim","133","264243","0.0-5.0-119.0","go-nogo","false","0","","true","<div class = centerbox><div  id = stim1></div></div>","32","32","750","","test","go","119","random","","",""
"","561","32","1335","0","test_block","poldrack-single-stim","134","265922","0.0-5.0-120.0","go-nogo","false","0","","true","<div class = centerbox><div  id = stim1></div></div>","32","32","750","","test","go","120","random","","",""
"","296","32","1274","0","test_block","poldrack-single-stim","135","267362","0.0-5.0-121.0","go-nogo","false","0","","true","<div class = centerbox><div  id = stim1></div></div>","32","32","750","","test","go","121","random","","",""
"","534","32","1459","0","test_block","poldrack-single-stim","136","269023","0.0-5.0-122.0","go-nogo","false","0","","true","<div class = centerbox><div  id = stim1></div></div>","32","32","750","","test","go","122","random","","",""
"","291","32","1085","0","test_block","poldrack-single-stim","137","270315","0.0-5.0-123.0","go-nogo","false","0","","true","<div class = centerbox><div  id = stim1></div></div>","32","32","750","","test","go","123","random","","",""
"","-1","-1","1167","0","test_block","poldrack-single-stim","138","271823","0.0-5.0-124.0","go-nogo","false","0","","true","<div class = centerbox><div  id = stim2></div></div>","-1","32","750","","test","nogo","124","random","","",""
"","351","32","1212","0","test_block","poldrack-single-stim","139","273295","0.0-5.0-125.0","go-nogo","false","0","","true","<div class = centerbox><div  id = stim1></div></div>","32","32","750","","test","go","125","random","","",""
"","-1","-1","1440","0","test_block","poldrack-single-stim","140","275273","0.0-5.0-126.0","go-nogo","false","0","","true","<div class = centerbox><div  id = stim2></div></div>","-1","32","750","","test","nogo","126","random","","",""
"","-1","-1","1146","0","test_block","poldrack-single-stim","141","276681","0.0-5.0-127.0","go-nogo","false","0","","true","<div class = centerbox><div  id = stim2></div></div>","-1","32","750","","test","nogo","127","random","","",""
"","388","32","1199","0","test_block","poldrack-single-stim","142","278212","0.0-5.0-128.0","go-nogo","false","0","","true","<div class = centerbox><div  id = stim1></div></div>","32","32","750","","test","go","128","random","","",""
"","329","32","1240","0","test_block","poldrack-single-stim","143","279633","0.0-5.0-129.0","go-nogo","false","0","","true","<div class = centerbox><div  id = stim1></div></div>","32","32","750","","test","go","129","random","","",""
"","356","32","1433","0","test_block","poldrack-single-stim","144","281549","0.0-5.0-130.0","go-nogo","false","0","","true","<div class = centerbox><div  id = stim1></div></div>","32","32","750","","test","go","130","random","","",""
"","288","32","1428","0","test_block","poldrack-single-stim","145","283230","0.0-5.0-131.0","go-nogo","false","0","","true","<div class = centerbox><div  id = stim1></div></div>","32","32","750","","test","go","131","random","","",""
"","296","32","1041","0","test_block","poldrack-single-stim","146","284618","0.0-5.0-132.0","go-nogo","false","0","","true","<div class = centerbox><div  id = stim1></div></div>","32","32","750","","test","go","132","random","","",""
"","299","32","1269","0","test_block","poldrack-single-stim","147","286172","0.0-5.0-133.0","go-nogo","false","0","","true","<div class = centerbox><div  id = stim1></div></div>","32","32","750","","test","go","133","random","","",""
"","341","32","1437","0","test_block","poldrack-single-stim","148","288065","0.0-5.0-134.0","go-nogo","false","0","","true","<div class = centerbox><div  id = stim1></div></div>","32","32","750","","test","go","134","random","","",""
"","314","32","1396","0","test_block","poldrack-single-stim","149","289748","0.0-5.0-135.0","go-nogo","false","0","","true","<div class = centerbox><div  id = stim1></div></div>","32","32","750","","test","go","135","random","","",""
"","323","32","1134","0","test_block","poldrack-single-stim","150","291167","0.0-5.0-136.0","go-nogo","false","0","","true","<div class = centerbox><div  id = stim1></div></div>","32","32","750","","test","go","136","random","","",""
"","365","32","1008","0","test_block","poldrack-single-stim","151","292407","0.0-5.0-137.0","go-nogo","false","0","","true","<div class = centerbox><div  id = stim1></div></div>","32","32","750","","test","go","137","random","","",""
"","347","32","1316","0","test_block","poldrack-single-stim","152","293954","0.0-5.0-138.0","go-nogo","false","0","","true","<div class = centerbox><div  id = stim1></div></div>","32","32","750","","test","go","138","random","","",""
"","408","32","1165","0","test_block","poldrack-single-stim","153","295419","0.0-5.0-139.0","go-nogo","false","0","","true","<div class = centerbox><div  id = stim1></div></div>","32","32","750","","test","go","139","random","","",""
"","342","32","1314","0","test_block","poldrack-single-stim","154","297007","0.0-5.0-140.0","go-nogo","false","0","","true","<div class = centerbox><div  id = stim1></div></div>","32","32","750","","test","go","140","random","","",""
"","344","32","1287","0","test_block","poldrack-single-stim","155","298620","0.0-5.0-141.0","go-nogo","false","0","","true","<div class = centerbox><div  id = stim1></div></div>","32","32","750","","test","go","141","random","","",""
"","-1","-1","1275","0","test_block","poldrack-single-stim","156","300147","0.0-5.0-142.0","go-nogo","false","0","","true","<div class = centerbox><div  id = stim2></div></div>","-1","32","750","","test","nogo","142","random","","",""
"","349","32","1418","0","test_block","poldrack-single-stim","157","301817","0.0-5.0-143.0","go-nogo","false","0","","true","<div class = centerbox><div  id = stim1></div></div>","32","32","750","","test","go","143","random","","",""
"","324","32","1279","0","test_block","poldrack-single-stim","158","303318","0.0-5.0-144.0","go-nogo","false","0","","true","<div class = centerbox><div  id = stim1></div></div>","32","32","750","","test","go","144","random","","",""
"","307","32","1460","0","test_block","poldrack-single-stim","159","305048","0.0-5.0-145.0","go-nogo","false","0","","true","<div class = centerbox><div  id = stim1></div></div>","32","32","750","","test","go","145","random","","",""
"","376","32","1134","0","test_block","poldrack-single-stim","160","306406","0.0-5.0-146.0","go-nogo","false","0","","true","<div class = centerbox><div  id = stim1></div></div>","32","32","750","","test","go","146","random","","",""
"","344","32","1349","0","test_block","poldrack-single-stim","161","308016","0.0-5.0-147.0","go-nogo","false","0","","true","<div class = centerbox><div  id = stim1></div></div>","32","32","750","","test","go","147","random","","",""
"","317","32","1349","0","test_block","poldrack-single-stim","162","309598","0.0-5.0-148.0","go-nogo","false","0","","true","<div class = centerbox><div  id = stim1></div></div>","32","32","750","","test","go","148","random","","",""
"","363","32","1320","0","test_block","poldrack-single-stim","163","311207","0.0-5.0-149.0","go-nogo","false","0","","true","<div class = centerbox><div  id = stim1></div></div>","32","32","750","","test","go","149","random","","",""
"","-1","-1","1217","0","test_block","poldrack-single-stim","164","312668","0.0-5.0-150.0","go-nogo","false","0","","true","<div class = centerbox><div  id = stim2></div></div>","-1","32","750","","test","nogo","150","random","","",""
"","328","32","1363","0","test_block","poldrack-single-stim","165","314272","0.0-5.0-151.0","go-nogo","false","0","","true","<div class = centerbox><div  id = stim1></div></div>","32","32","750","","test","go","151","random","","",""
"","288","32","1226","0","test_block","poldrack-single-stim","166","315731","0.0-5.0-152.0","go-nogo","false","0","","true","<div class = centerbox><div  id = stim1></div></div>","32","32","750","","test","go","152","random","","",""
"","322","32","1247","0","test_block","poldrack-single-stim","167","317223","0.0-5.0-153.0","go-nogo","false","0","","true","<div class = centerbox><div  id = stim1></div></div>","32","32","750","","test","go","153","random","","",""
"","302","32","1071","0","test_block","poldrack-single-stim","168","318542","0.0-5.0-154.0","go-nogo","false","0","","true","<div class = centerbox><div  id = stim1></div></div>","32","32","750","","test","go","154","random","","",""
"","344","32","1378","0","test_block","poldrack-single-stim","169","320120","0.0-5.0-155.0","go-nogo","false","0","","true","<div class = centerbox><div  id = stim1></div></div>","32","32","750","","test","go","155","random","","",""
"","306","32","1449","0","test_block","poldrack-single-stim","170","321871","0.0-5.0-156.0","go-nogo","false","0","","true","<div class = centerbox><div  id = stim1></div></div>","32","32","750","","test","go","156","random","","",""
"","327","32","1246","0","test_block","poldrack-single-stim","171","323335","0.0-5.0-157.0","go-nogo","false","0","","true","<div class = centerbox><div  id = stim1></div></div>","32","32","750","","test","go","157","random","","",""
"","316","32","1041","0","test_block","poldrack-single-stim","172","324571","0.0-5.0-158.0","go-nogo","false","0","","true","<div class = centerbox><div  id = stim1></div></div>","32","32","750","","test","go","158","random","","",""
"","361","32","1272","0","test_block","poldrack-single-stim","173","326011","0.0-5.0-159.0","go-nogo","false","0","","true","<div class = centerbox><div  id = stim1></div></div>","32","32","750","","test","go","159","random","","",""
"","366","32","1072","0","test_block","poldrack-single-stim","174","327388","0.0-5.0-160.0","go-nogo","false","0","","true","<div class = centerbox><div  id = stim1></div></div>","32","32","750","","test","go","160","random","","",""
"","288","32","1196","0","test_block","poldrack-single-stim","175","328987","0.0-5.0-161.0","go-nogo","false","0","","true","<div class = centerbox><div  id = stim1></div></div>","32","32","750","","test","go","161","random","","",""
"","303","32","1199","0","test_block","poldrack-single-stim","176","330563","0.0-5.0-162.0","go-nogo","false","0","","true","<div class = centerbox><div  id = stim1></div></div>","32","32","750","","test","go","162","random","","",""
"","315","32","1066","0","test_block","poldrack-single-stim","177","331868","0.0-5.0-163.0","go-nogo","false","0","","true","<div class = centerbox><div  id = stim1></div></div>","32","32","750","","test","go","163","random","","",""
"","386","32","1312","0","test_block","poldrack-single-stim","178","333452","0.0-5.0-164.0","go-nogo","false","0","","true","<div class = centerbox><div  id = stim1></div></div>","32","32","750","","test","go","164","random","","",""
"","382","32","1287","0","test_block","poldrack-single-stim","179","334990","0.0-5.0-165.0","go-nogo","false","0","","true","<div class = centerbox><div  id = stim1></div></div>","32","32","750","","test","go","165","random","","",""
"","376","32","1244","0","test_block","poldrack-single-stim","180","336442","0.0-5.0-166.0","go-nogo","false","0","","true","<div class = centerbox><div  id = stim1></div></div>","32","32","750","","test","go","166","random","","",""
"","-1","-1","1034","0","test_block","poldrack-single-stim","181","337732","0.0-5.0-167.0","go-nogo","false","0","","true","<div class = centerbox><div  id = stim2></div></div>","-1","32","750","","test","nogo","167","random","","",""
"","383","32","1098","0","test_block","poldrack-single-stim","182","339056","0.0-5.0-168.0","go-nogo","false","0","","true","<div class = centerbox><div  id = stim1></div></div>","32","32","750","","test","go","168","random","","",""
"","285","32","1274","0","test_block","poldrack-single-stim","183","340669","0.0-5.0-169.0","go-nogo","false","0","","true","<div class = centerbox><div  id = stim1></div></div>","32","32","750","","test","go","169","random","","",""
"","263","32","1431","0","test_block","poldrack-single-stim","184","342296","0.0-5.0-170.0","go-nogo","false","0","","true","<div class = centerbox><div  id = stim1></div></div>","32","32","750","","test","go","170","random","","",""
"","269","32","1165","0","test_block","poldrack-single-stim","185","343613","0.0-5.0-171.0","go-nogo","false","0","","true","<div class = centerbox><div  id = stim1></div></div>","32","32","750","","test","go","171","random","","",""
"","285","32","1125","0","test_block","poldrack-single-stim","186","345122","0.0-5.0-172.0","go-nogo","false","0","","true","<div class = centerbox><div  id = stim1></div></div>","32","32","750","","test","go","172","random","","",""
"","293","32","1385","0","test_block","poldrack-single-stim","187","346781","0.0-5.0-173.0","go-nogo","false","0","","true","<div class = centerbox><div  id = stim1></div></div>","32","32","750","","test","go","173","random","","",""
"","219","32","1400","0","test_block","poldrack-single-stim","188","348393","0.0-5.0-174.0","go-nogo","false","0","","false","<div class = centerbox><div  id = stim2></div></div>","-1","32","750","","test","nogo","174","random","","",""
"","319","32","1064","0","test_block","poldrack-single-stim","189","349712","0.0-5.0-175.0","go-nogo","false","0","","true","<div class = centerbox><div  id = stim1></div></div>","32","32","750","","test","go","175","random","","",""
"","257","32","1357","0","test_block","poldrack-single-stim","190","351316","0.0-5.0-176.0","go-nogo","false","0","","true","<div class = centerbox><div  id = stim1></div></div>","32","32","750","","test","go","176","random","","",""
"","341","32","1417","0","test_block","poldrack-single-stim","191","353011","0.0-5.0-177.0","go-nogo","false","0","","true","<div class = centerbox><div  id = stim1></div></div>","32","32","750","","test","go","177","random","","",""
"","282","32","1233","0","test_block","poldrack-single-stim","192","354417","0.0-5.0-178.0","go-nogo","false","0","","true","<div class = centerbox><div  id = stim1></div></div>","32","32","750","","test","go","178","random","","",""
"","341","32","1164","0","test_block","poldrack-single-stim","193","355995","0.0-5.0-179.0","go-nogo","false","0","","true","<div class = centerbox><div  id = stim1></div></div>","32","32","750","","test","go","179","random","","",""
"","326","32","1452","0","test_block","poldrack-single-stim","194","357607","0.0-5.0-180.0","go-nogo","false","0","","false","<div class = centerbox><div  id = stim2></div></div>","-1","32","750","","test","nogo","180","random","","",""
"","844","32","1344","0","test_block","poldrack-single-stim","195","359176","0.0-5.0-181.0","go-nogo","false","0","","true","<div class = centerbox><div  id = stim1></div></div>","32","32","750","","test","go","181","random","","",""
"","323","32","1234","0","test_block","poldrack-single-stim","196","360605","0.0-5.0-182.0","go-nogo","false","0","","true","<div class = centerbox><div  id = stim1></div></div>","32","32","750","","test","go","182","random","","",""
"","491","32","1269","0","test_block","poldrack-single-stim","197","362107","0.0-5.0-183.0","go-nogo","false","0","","true","<div class = centerbox><div  id = stim1></div></div>","32","32","750","","test","go","183","random","","",""
"","394","32","1140","0","test_block","poldrack-single-stim","198","363462","0.0-5.0-184.0","go-nogo","false","0","","true","<div class = centerbox><div  id = stim1></div></div>","32","32","750","","test","go","184","random","","",""
"","-1","-1","1239","0","test_block","poldrack-single-stim","199","365005","0.0-5.0-185.0","go-nogo","false","0","","false","<div class = centerbox><div  id = stim1></div></div>","32","32","750","","test","go","185","random","","",""
"","420","32","1303","0","test_block","poldrack-single-stim","200","366523","0.0-5.0-186.0","go-nogo","false","0","","true","<div class = centerbox><div  id = stim1></div></div>","32","32","750","","test","go","186","random","","",""
"","630","32","1043","0","test_block","poldrack-single-stim","201","367840","0.0-5.0-187.0","go-nogo","false","0","","true","<div class = centerbox><div  id = stim1></div></div>","32","32","750","","test","go","187","random","","",""
"","364","32","1428","0","test_block","poldrack-single-stim","202","369526","0.0-5.0-188.0","go-nogo","false","0","","true","<div class = centerbox><div  id = stim1></div></div>","32","32","750","","test","go","188","random","","",""
"","507","32","1054","0","test_block","poldrack-single-stim","203","370781","0.0-5.0-189.0","go-nogo","false","0","","true","<div class = centerbox><div  id = stim1></div></div>","32","32","750","","test","go","189","random","","",""
"","478","32","1104","0","test_block","poldrack-single-stim","204","372167","0.0-5.0-190.0","go-nogo","false","0","","true","<div class = centerbox><div  id = stim1></div></div>","32","32","750","","test","go","190","random","","",""
"","383","32","1144","0","test_block","poldrack-single-stim","205","373688","0.0-5.0-191.0","go-nogo","false","0","","true","<div class = centerbox><div  id = stim1></div></div>","32","32","750","","test","go","191","random","","",""
"","-1","-1","1255","0","test_block","poldrack-single-stim","206","375181","0.0-5.0-192.0","go-nogo","false","0","","true","<div class = centerbox><div  id = stim2></div></div>","-1","32","750","","test","nogo","192","random","","",""
"","639","32","1443","0","test_block","poldrack-single-stim","207","376840","0.0-5.0-193.0","go-nogo","false","0","","true","<div class = centerbox><div  id = stim1></div></div>","32","32","750","","test","go","193","random","","",""
"","687","32","1468","0","test_block","poldrack-single-stim","208","378712","0.0-5.0-194.0","go-nogo","false","0","","true","<div class = centerbox><div  id = stim1></div></div>","32","32","750","","test","go","194","random","","",""
"","469","32","1361","0","test_block","poldrack-single-stim","209","380295","0.0-5.0-195.0","go-nogo","false","0","","true","<div class = centerbox><div  id = stim1></div></div>","32","32","750","","test","go","195","random","","",""
"","293","32","1125","0","test_block","poldrack-single-stim","210","381640","0.0-5.0-196.0","go-nogo","false","0","","true","<div class = centerbox><div  id = stim1></div></div>","32","32","750","","test","go","196","random","","",""
"","360","32","1452","0","test_block","poldrack-single-stim","211","383322","0.0-5.0-197.0","go-nogo","false","0","","true","<div class = centerbox><div  id = stim1></div></div>","32","32","750","","test","go","197","random","","",""
"","612","32","1245","0","test_block","poldrack-single-stim","212","385076","0.0-5.0-198.0","go-nogo","false","0","","true","<div class = centerbox><div  id = stim1></div></div>","32","32","750","","test","go","198","random","","",""
"","345","32","1150","0","test_block","poldrack-single-stim","213","386543","0.0-5.0-199.0","go-nogo","false","0","","true","<div class = centerbox><div  id = stim1></div></div>","32","32","750","","test","go","199","random","","",""
"","605","32","1150","0","test_block","poldrack-single-stim","214","387967","0.0-5.0-200.0","go-nogo","false","0","","true","<div class = centerbox><div  id = stim1></div></div>","32","32","750","","test","go","200","random","","",""
"","395","32","1025","0","test_block","poldrack-single-stim","215","389214","0.0-5.0-201.0","go-nogo","false","0","","true","<div class = centerbox><div  id = stim1></div></div>","32","32","750","","test","go","201","random","","",""
"","562","32","1208","0","test_block","poldrack-single-stim","216","390636","0.0-5.0-202.0","go-nogo","false","0","","true","<div class = centerbox><div  id = stim1></div></div>","32","32","750","","test","go","202","random","","",""
"","358","32","1007","0","test_block","poldrack-single-stim","217","391867","0.0-5.0-203.0","go-nogo","false","0","","true","<div class = centerbox><div  id = stim1></div></div>","32","32","750","","test","go","203","random","","",""
"","402","32","1449","0","test_block","poldrack-single-stim","218","393514","0.0-5.0-204.0","go-nogo","false","0","","true","<div class = centerbox><div  id = stim1></div></div>","32","32","750","","test","go","204","random","","",""
"","552","32","1474","0","test_block","poldrack-single-stim","219","395209","0.0-5.0-205.0","go-nogo","false","0","","true","<div class = centerbox><div  id = stim1></div></div>","32","32","750","","test","go","205","random","","",""
"","350","32","1215","0","test_block","poldrack-single-stim","220","396648","0.0-5.0-206.0","go-nogo","false","0","","true","<div class = centerbox><div  id = stim1></div></div>","32","32","750","","test","go","206","random","","",""
"","433","32","1113","0","test_block","poldrack-single-stim","221","398053","0.0-5.0-207.0","go-nogo","false","0","","true","<div class = centerbox><div  id = stim1></div></div>","32","32","750","","test","go","207","random","","",""
"","350","32","1304","0","test_block","poldrack-single-stim","222","399657","0.0-5.0-208.0","go-nogo","false","0","","true","<div class = centerbox><div  id = stim1></div></div>","32","32","750","","test","go","208","random","","",""
"","-1","-1","1280","0","test_block","poldrack-single-stim","223","401120","0.0-5.0-209.0","go-nogo","false","0","","true","<div class = centerbox><div  id = stim2></div></div>","-1","32","750","","test","nogo","209","random","","",""
"","439","32","1152","0","test_block","poldrack-single-stim","224","402705","0.0-5.0-210.0","go-nogo","false","0","","true","<div class = centerbox><div  id = stim1></div></div>","32","32","750","","test","go","210","random","","",""
"","385","32","1217","0","test_block","poldrack-single-stim","225","404231","0.0-5.0-211.0","go-nogo","false","0","","true","<div class = centerbox><div  id = stim1></div></div>","32","32","750","","test","go","211","random","","",""
"","339","32","1490","0","test_block","poldrack-single-stim","226","406179","0.0-5.0-212.0","go-nogo","false","0","","true","<div class = centerbox><div  id = stim1></div></div>","32","32","750","","test","go","212","random","","",""
"","302","32","1388","0","test_block","poldrack-single-stim","227","407749","0.0-5.0-213.0","go-nogo","false","0","","true","<div class = centerbox><div  id = stim1></div></div>","32","32","750","","test","go","213","random","","",""
"","368","32","1041","0","test_block","poldrack-single-stim","228","409033","0.0-5.0-214.0","go-nogo","false","0","","true","<div class = centerbox><div  id = stim1></div></div>","32","32","750","","test","go","214","random","","",""
"","387","32","1069","0","test_block","poldrack-single-stim","229","410310","0.0-5.0-215.0","go-nogo","false","0","","true","<div class = centerbox><div  id = stim1></div></div>","32","32","750","","test","go","215","random","","",""
"","315","32","1216","0","test_block","poldrack-single-stim","230","411727","0.0-5.0-216.0","go-nogo","false","0","","true","<div class = centerbox><div  id = stim1></div></div>","32","32","750","","test","go","216","random","","",""
"","495","32","1352","0","test_block","poldrack-single-stim","231","413308","0.0-5.0-217.0","go-nogo","false","0","","true","<div class = centerbox><div  id = stim1></div></div>","32","32","750","","test","go","217","random","","",""
"","305","32","1334","0","test_block","poldrack-single-stim","232","414982","0.0-5.0-218.0","go-nogo","false","0","","true","<div class = centerbox><div  id = stim1></div></div>","32","32","750","","test","go","218","random","","",""
"","282","32","1227","0","test_block","poldrack-single-stim","233","416764","0.0-5.0-219.0","go-nogo","false","0","","true","<div class = centerbox><div  id = stim1></div></div>","32","32","750","","test","go","219","random","","",""
"","339","32","1336","0","test_block","poldrack-single-stim","234","418342","0.0-5.0-220.0","go-nogo","false","0","","true","<div class = centerbox><div  id = stim1></div></div>","32","32","750","","test","go","220","random","","",""
"","404","32","1424","0","test_block","poldrack-single-stim","235","420019","0.0-5.0-221.0","go-nogo","false","0","","true","<div class = centerbox><div  id = stim1></div></div>","32","32","750","","test","go","221","random","","",""
"","337","32","1170","0","test_block","poldrack-single-stim","236","421414","0.0-5.0-222.0","go-nogo","false","0","","true","<div class = centerbox><div  id = stim1></div></div>","32","32","750","","test","go","222","random","","",""
"","285","32","1238","0","test_block","poldrack-single-stim","237","422868","0.0-5.0-223.0","go-nogo","false","0","","true","<div class = centerbox><div  id = stim1></div></div>","32","32","750","","test","go","223","random","","",""
"","325","32","1124","0","test_block","poldrack-single-stim","238","424273","0.0-5.0-224.0","go-nogo","false","0","","true","<div class = centerbox><div  id = stim1></div></div>","32","32","750","","test","go","224","random","","",""
"","322","32","1350","0","test_block","poldrack-single-stim","239","425884","0.0-5.0-225.0","go-nogo","false","0","","true","<div class = centerbox><div  id = stim1></div></div>","32","32","750","","test","go","225","random","","",""
"","303","32","1365","0","test_block","poldrack-single-stim","240","427503","0.0-5.0-226.0","go-nogo","false","0","","true","<div class = centerbox><div  id = stim1></div></div>","32","32","750","","test","go","226","random","","",""
"","341","32","1116","0","test_block","poldrack-single-stim","241","428818","0.0-5.0-227.0","go-nogo","false","0","","true","<div class = centerbox><div  id = stim1></div></div>","32","32","750","","test","go","227","random","","",""
"","308","32","1217","0","test_block","poldrack-single-stim","242","430254","0.0-5.0-228.0","go-nogo","false","0","","true","<div class = centerbox><div  id = stim1></div></div>","32","32","750","","test","go","228","random","","",""
"","-1","-1","1382","0","test_block","poldrack-single-stim","243","432118","0.0-5.0-229.0","go-nogo","false","0","","true","<div class = centerbox><div  id = stim2></div></div>","-1","32","750","","test","nogo","229","random","","",""
"","356","32","1050","0","test_block","poldrack-single-stim","244","433436","0.0-5.0-230.0","go-nogo","false","0","","true","<div class = centerbox><div  id = stim1></div></div>","32","32","750","","test","go","230","random","","",""
"","293","32","1319","0","test_block","poldrack-single-stim","245","434978","0.0-5.0-231.0","go-nogo","false","0","","true","<div class = centerbox><div  id = stim1></div></div>","32","32","750","","test","go","231","random","","",""
"","327","32","1457","0","test_block","poldrack-single-stim","246","436870","0.0-5.0-232.0","go-nogo","false","0","","true","<div class = centerbox><div  id = stim1></div></div>","32","32","750","","test","go","232","random","","",""
"","278","32","1100","0","test_block","poldrack-single-stim","247","438181","0.0-5.0-233.0","go-nogo","false","0","","true","<div class = centerbox><div  id = stim1></div></div>","32","32","750","","test","go","233","random","","",""
"","294","32","1464","0","test_block","poldrack-single-stim","248","439987","0.0-5.0-234.0","go-nogo","false","0","","true","<div class = centerbox><div  id = stim1></div></div>","32","32","750","","test","go","234","random","","",""
"","270","32","1301","0","test_block","poldrack-single-stim","249","441482","0.0-5.0-235.0","go-nogo","false","0","","true","<div class = centerbox><div  id = stim1></div></div>","32","32","750","","test","go","235","random","","",""
"","263","32","1493","0","test_block","poldrack-single-stim","250","443316","0.0-5.0-236.0","go-nogo","false","0","","true","<div class = centerbox><div  id = stim1></div></div>","32","32","750","","test","go","236","random","","",""
"","274","32","1374","0","test_block","poldrack-single-stim","251","444878","0.0-5.0-237.0","go-nogo","false","0","","true","<div class = centerbox><div  id = stim1></div></div>","32","32","750","","test","go","237","random","","",""
"","312","32","1080","0","test_block","poldrack-single-stim","252","446335","0.0-5.0-238.0","go-nogo","false","0","","true","<div class = centerbox><div  id = stim1></div></div>","32","32","750","","test","go","238","random","","",""
"","296","32","1052","0","test_block","poldrack-single-stim","253","447632","0.0-5.0-239.0","go-nogo","false","0","","true","<div class = centerbox><div  id = stim1></div></div>","32","32","750","","test","go","239","random","","",""
"","344","32","1486","0","test_block","poldrack-single-stim","254","449331","0.0-5.0-240.0","go-nogo","false","0","","true","<div class = centerbox><div  id = stim1></div></div>","32","32","750","","test","go","240","random","","",""
"","337","32","1382","0","test_block","poldrack-single-stim","255","451042","0.0-5.0-241.0","go-nogo","false","0","","true","<div class = centerbox><div  id = stim1></div></div>","32","32","750","","test","go","241","random","","",""
"","383","32","1072","0","test_block","poldrack-single-stim","256","452353","0.0-5.0-242.0","go-nogo","false","0","","true","<div class = centerbox><div  id = stim1></div></div>","32","32","750","","test","go","242","random","","",""
"","282","32","1270","0","test_block","poldrack-single-stim","257","453891","0.0-5.0-243.0","go-nogo","false","0","","true","<div class = centerbox><div  id = stim1></div></div>","32","32","750","","test","go","243","random","","",""
"","307","32","1011","0","test_block","poldrack-single-stim","258","455193","0.0-5.0-244.0","go-nogo","false","0","","true","<div class = centerbox><div  id = stim1></div></div>","32","32","750","","test","go","244","random","","",""
"","364","32","1283","0","test_block","poldrack-single-stim","259","456801","0.0-5.0-245.0","go-nogo","false","0","","true","<div class = centerbox><div  id = stim1></div></div>","32","32","750","","test","go","245","random","","",""
"","276","32","1061","0","test_block","poldrack-single-stim","260","458052","0.0-5.0-246.0","go-nogo","false","0","","true","<div class = centerbox><div  id = stim1></div></div>","32","32","750","","test","go","246","random","","",""
"","307","32","1361","0","test_block","poldrack-single-stim","261","459640","0.0-5.0-247.0","go-nogo","false","0","","true","<div class = centerbox><div  id = stim1></div></div>","32","32","750","","test","go","247","random","","",""
"","-1","-1","1067","0","test_block","poldrack-single-stim","262","461103","0.0-5.0-248.0","go-nogo","false","0","","true","<div class = centerbox><div  id = stim2></div></div>","-1","32","750","","test","nogo","248","random","","",""
"","301","32","1321","0","test_block","poldrack-single-stim","263","462662","0.0-5.0-249.0","go-nogo","false","0","","true","<div class = centerbox><div  id = stim1></div></div>","32","32","750","","test","go","249","random","","",""
"","282","32","1063","0","test_block","poldrack-single-stim","264","463942","0.0-5.0-250.0","go-nogo","false","0","","true","<div class = centerbox><div  id = stim1></div></div>","32","32","750","","test","go","250","random","","",""
"","291","32","1177","0","test_block","poldrack-single-stim","265","465473","0.0-5.0-251.0","go-nogo","false","0","","true","<div class = centerbox><div  id = stim1></div></div>","32","32","750","","test","go","251","random","","",""
"","267","32","1291","0","test_block","poldrack-single-stim","266","467025","0.0-5.0-252.0","go-nogo","false","0","","true","<div class = centerbox><div  id = stim1></div></div>","32","32","750","","test","go","252","random","","",""
"","271","32","1136","0","test_block","poldrack-single-stim","267","468491","0.0-5.0-253.0","go-nogo","false","0","","true","<div class = centerbox><div  id = stim1></div></div>","32","32","750","","test","go","253","random","","",""
"","287","32","1404","0","test_block","poldrack-single-stim","268","470154","0.0-5.0-254.0","go-nogo","false","0","","true","<div class = centerbox><div  id = stim1></div></div>","32","32","750","","test","go","254","random","","",""
"","317","32","1113","0","test_block","poldrack-single-stim","269","471519","0.0-5.0-255.0","go-nogo","false","0","","true","<div class = centerbox><div  id = stim1></div></div>","32","32","750","","test","go","255","random","","",""
"","276","32","1097","0","test_block","poldrack-single-stim","270","472943","0.0-5.0-256.0","go-nogo","false","0","","true","<div class = centerbox><div  id = stim1></div></div>","32","32","750","","test","go","256","random","","",""
"","330","32","1211","0","test_block","poldrack-single-stim","271","474403","0.0-5.0-257.0","go-nogo","false","0","","true","<div class = centerbox><div  id = stim1></div></div>","32","32","750","","test","go","257","random","","",""
"","292","32","1483","0","test_block","poldrack-single-stim","272","476073","0.0-5.0-258.0","go-nogo","false","0","","true","<div class = centerbox><div  id = stim1></div></div>","32","32","750","","test","go","258","random","","",""
"","353","32","1254","0","test_block","poldrack-single-stim","273","477514","0.0-5.0-259.0","go-nogo","false","0","","true","<div class = centerbox><div  id = stim1></div></div>","32","32","750","","test","go","259","random","","",""
"","287","32","1059","0","test_block","poldrack-single-stim","274","478861","0.0-5.0-260.0","go-nogo","false","0","","true","<div class = centerbox><div  id = stim1></div></div>","32","32","750","","test","go","260","random","","",""
"","330","32","1434","0","test_block","poldrack-single-stim","275","480742","0.0-5.0-261.0","go-nogo","false","0","","true","<div class = centerbox><div  id = stim1></div></div>","32","32","750","","test","go","261","random","","",""
"","365","32","1336","0","test_block","poldrack-single-stim","276","482318","0.0-5.0-262.0","go-nogo","false","0","","true","<div class = centerbox><div  id = stim1></div></div>","32","32","750","","test","go","262","random","","",""
"","364","32","1182","0","test_block","poldrack-single-stim","277","483862","0.0-5.0-263.0","go-nogo","false","0","","true","<div class = centerbox><div  id = stim1></div></div>","32","32","750","","test","go","263","random","","",""
"","350","32","1260","0","test_block","poldrack-single-stim","278","485434","0.0-5.0-264.0","go-nogo","false","0","","true","<div class = centerbox><div  id = stim1></div></div>","32","32","750","","test","go","264","random","","",""
"","383","32","1377","0","test_block","poldrack-single-stim","279","487153","0.0-5.0-265.0","go-nogo","false","0","","true","<div class = centerbox><div  id = stim1></div></div>","32","32","750","","test","go","265","random","","",""
"","319","32","1295","0","test_block","poldrack-single-stim","280","488718","0.0-5.0-266.0","go-nogo","false","0","","true","<div class = centerbox><div  id = stim1></div></div>","32","32","750","","test","go","266","random","","",""
"","302","32","1278","0","test_block","poldrack-single-stim","281","490326","0.0-5.0-267.0","go-nogo","false","0","","true","<div class = centerbox><div  id = stim1></div></div>","32","32","750","","test","go","267","random","","",""
"","379","32","1346","0","test_block","poldrack-single-stim","282","491941","0.0-5.0-268.0","go-nogo","false","0","","true","<div class = centerbox><div  id = stim1></div></div>","32","32","750","","test","go","268","random","","",""
"","331","32","1265","0","test_block","poldrack-single-stim","283","493368","0.0-5.0-269.0","go-nogo","false","0","","true","<div class = centerbox><div  id = stim1></div></div>","32","32","750","","test","go","269","random","","",""
"","-1","-1","1216","0","test_block","poldrack-single-stim","284","494980","0.0-5.0-270.0","go-nogo","false","0","","true","<div class = centerbox><div  id = stim2></div></div>","-1","32","750","","test","nogo","270","random","","",""
"","310","32","1296","0","test_block","poldrack-single-stim","285","496516","0.0-5.0-271.0","go-nogo","false","0","","true","<div class = centerbox><div  id = stim1></div></div>","32","32","750","","test","go","271","random","","",""
"","320","32","1061","0","test_block","poldrack-single-stim","286","497913","0.0-5.0-272.0","go-nogo","false","0","","true","<div class = centerbox><div  id = stim1></div></div>","32","32","750","","test","go","272","random","","",""
"","312","32","1237","0","test_block","poldrack-single-stim","287","499412","0.0-5.0-273.0","go-nogo","false","0","","true","<div class = centerbox><div  id = stim1></div></div>","32","32","750","","test","go","273","random","","",""
"","317","32","1213","0","test_block","poldrack-single-stim","288","500863","0.0-5.0-274.0","go-nogo","false","0","","true","<div class = centerbox><div  id = stim1></div></div>","32","32","750","","test","go","274","random","","",""
"","305","32","1305","0","test_block","poldrack-single-stim","289","502546","0.0-5.0-275.0","go-nogo","false","0","","true","<div class = centerbox><div  id = stim1></div></div>","32","32","750","","test","go","275","random","","",""
"","307","32","1166","0","test_block","poldrack-single-stim","290","503971","0.0-5.0-276.0","go-nogo","false","0","","true","<div class = centerbox><div  id = stim1></div></div>","32","32","750","","test","go","276","random","","",""
"","300","32","1168","0","test_block","poldrack-single-stim","291","505401","0.0-5.0-277.0","go-nogo","false","0","","true","<div class = centerbox><div  id = stim1></div></div>","32","32","750","","test","go","277","random","","",""
"","288","32","1441","0","test_block","poldrack-single-stim","292","507097","0.0-5.0-278.0","go-nogo","false","0","","true","<div class = centerbox><div  id = stim1></div></div>","32","32","750","","test","go","278","random","","",""
"","332","32","1361","0","test_block","poldrack-single-stim","293","508788","0.0-5.0-279.0","go-nogo","false","0","","true","<div class = centerbox><div  id = stim1></div></div>","32","32","750","","test","go","279","random","","",""
"","302","32","1123","0","test_block","poldrack-single-stim","294","510151","0.0-5.0-280.0","go-nogo","false","0","","true","<div class = centerbox><div  id = stim1></div></div>","32","32","750","","test","go","280","random","","",""
"","282","32","1328","0","test_block","poldrack-single-stim","295","511686","0.0-5.0-281.0","go-nogo","false","0","","true","<div class = centerbox><div  id = stim1></div></div>","32","32","750","","test","go","281","random","","",""
"","-1","-1","1464","0","test_block","poldrack-single-stim","296","513554","0.0-5.0-282.0","go-nogo","false","0","","true","<div class = centerbox><div  id = stim2></div></div>","-1","32","750","","test","nogo","282","random","","",""
"","454","32","1407","0","test_block","poldrack-single-stim","297","515244","0.0-5.0-283.0","go-nogo","false","0","","true","<div class = centerbox><div  id = stim1></div></div>","32","32","750","","test","go","283","random","","",""
"","297","32","1193","0","test_block","poldrack-single-stim","298","516984","0.0-5.0-284.0","go-nogo","false","0","","true","<div class = centerbox><div  id = stim1></div></div>","32","32","750","","test","go","284","random","","",""
"","299","32","1493","0","test_block","poldrack-single-stim","299","518783","0.0-5.0-285.0","go-nogo","false","0","","true","<div class = centerbox><div  id = stim1></div></div>","32","32","750","","test","go","285","random","","",""
"","386","32","1419","0","test_block","poldrack-single-stim","300","520540","0.0-5.0-286.0","go-nogo","false","0","","true","<div class = centerbox><div  id = stim1></div></div>","32","32","750","","test","go","286","random","","",""
"","295","32","1248","0","test_block","poldrack-single-stim","301","522044","0.0-5.0-287.0","go-nogo","false","0","","true","<div class = centerbox><div  id = stim1></div></div>","32","32","750","","test","go","287","random","","",""
"","277","32","1186","0","test_block","poldrack-single-stim","302","523500","0.0-5.0-288.0","go-nogo","false","0","","true","<div class = centerbox><div  id = stim1></div></div>","32","32","750","","test","go","288","random","","",""
"","295","32","1223","0","test_block","poldrack-single-stim","303","524900","0.0-5.0-289.0","go-nogo","false","0","","true","<div class = centerbox><div  id = stim1></div></div>","32","32","750","","test","go","289","random","","",""
"","299","32","1108","0","test_block","poldrack-single-stim","304","526231","0.0-5.0-290.0","go-nogo","false","0","","true","<div class = centerbox><div  id = stim1></div></div>","32","32","750","","test","go","290","random","","",""
"","331","32","1394","0","test_block","poldrack-single-stim","305","527884","0.0-5.0-291.0","go-nogo","false","0","","true","<div class = centerbox><div  id = stim1></div></div>","32","32","750","","test","go","291","random","","",""
"","583","32","1049","0","test_block","poldrack-single-stim","306","529160","0.0-5.0-292.0","go-nogo","false","0","","true","<div class = centerbox><div  id = stim1></div></div>","32","32","750","","test","go","292","random","","",""
"","314","32","1233","0","test_block","poldrack-single-stim","307","530660","0.0-5.0-293.0","go-nogo","false","0","","true","<div class = centerbox><div  id = stim1></div></div>","32","32","750","","test","go","293","random","","",""
"","-1","-1","1394","0","test_block","poldrack-single-stim","308","532224","0.0-5.0-294.0","go-nogo","false","0","","true","<div class = centerbox><div  id = stim2></div></div>","-1","32","750","","test","nogo","294","random","","",""
"","396","32","1047","0","test_block","poldrack-single-stim","309","533541","0.0-5.0-295.0","go-nogo","false","0","","true","<div class = centerbox><div  id = stim1></div></div>","32","32","750","","test","go","295","random","","",""
"","267","32","1395","0","test_block","poldrack-single-stim","310","535313","0.0-5.0-296.0","go-nogo","false","0","","true","<div class = centerbox><div  id = stim1></div></div>","32","32","750","","test","go","296","random","","",""
"","324","32","1269","0","test_block","poldrack-single-stim","311","536825","0.0-5.0-297.0","go-nogo","false","0","","true","<div class = centerbox><div  id = stim1></div></div>","32","32","750","","test","go","297","random","","",""
"","266","32","1181","0","test_block","poldrack-single-stim","312","538446","0.0-5.0-298.0","go-nogo","false","0","","true","<div class = centerbox><div  id = stim1></div></div>","32","32","750","","test","go","298","random","","",""
"","341","32","1340","0","test_block","poldrack-single-stim","313","539965","0.0-5.0-299.0","go-nogo","false","0","","true","<div class = centerbox><div  id = stim1></div></div>","32","32","750","","test","go","299","random","","",""
"","325","32","1045","0","test_block","poldrack-single-stim","314","541302","0.0-5.0-300.0","go-nogo","false","0","","true","<div class = centerbox><div  id = stim1></div></div>","32","32","750","","test","go","300","random","","",""
"","528","32","1458","0","test_block","poldrack-single-stim","315","543024","0.0-5.0-301.0","go-nogo","false","0","","true","<div class = centerbox><div  id = stim1></div></div>","32","32","750","","test","go","301","random","","",""
"","2","32","1104","0","test_block","poldrack-single-stim","316","544551","0.0-5.0-302.0","go-nogo","false","0","","true","<div class = centerbox><div  id = stim1></div></div>","32","32","750","","test","go","302","random","","",""
"","436","32","1020","0","test_block","poldrack-single-stim","317","545771","0.0-5.0-303.0","go-nogo","false","0","","true","<div class = centerbox><div  id = stim1></div></div>","32","32","750","","test","go","303","random","","",""
"","366","32","1399","0","test_block","poldrack-single-stim","318","547624","0.0-5.0-304.0","go-nogo","false","0","","true","<div class = centerbox><div  id = stim1></div></div>","32","32","750","","test","go","304","random","","",""
"","-1","-1","1458","0","test_block","poldrack-single-stim","319","549360","0.0-5.0-305.0","go-nogo","false","0","","true","<div class = centerbox><div  id = stim2></div></div>","-1","32","750","","test","nogo","305","random","","",""
"","427","32","1193","0","test_block","poldrack-single-stim","320","550979","0.0-5.0-306.0","go-nogo","false","0","","true","<div class = centerbox><div  id = stim1></div></div>","32","32","750","","test","go","306","random","","",""
"","295","32","1432","0","test_block","poldrack-single-stim","321","552572","0.0-5.0-307.0","go-nogo","false","0","","true","<div class = centerbox><div  id = stim1></div></div>","32","32","750","","test","go","307","random","","",""
"","305","32","1055","0","test_block","poldrack-single-stim","322","553986","0.0-5.0-308.0","go-nogo","false","0","","true","<div class = centerbox><div  id = stim1></div></div>","32","32","750","","test","go","308","random","","",""
"","323","32","1097","0","test_block","poldrack-single-stim","323","555344","0.0-5.0-309.0","go-nogo","false","0","","true","<div class = centerbox><div  id = stim1></div></div>","32","32","750","","test","go","309","random","","",""
"","298","32","1416","0","test_block","poldrack-single-stim","324","557050","0.0-5.0-310.0","go-nogo","false","0","","true","<div class = centerbox><div  id = stim1></div></div>","32","32","750","","test","go","310","random","","",""
"","284","32","1422","0","test_block","poldrack-single-stim","325","558806","0.0-5.0-311.0","go-nogo","false","0","","true","<div class = centerbox><div  id = stim1></div></div>","32","32","750","","test","go","311","random","","",""
"","325","32","1354","0","test_block","poldrack-single-stim","326","560498","0.0-5.0-312.0","go-nogo","false","0","","true","<div class = centerbox><div  id = stim1></div></div>","32","32","750","","test","go","312","random","","",""
"","152","32","1108","0","test_block","poldrack-single-stim","327","561800","0.0-5.0-313.0","go-nogo","false","0","","true","<div class = centerbox><div  id = stim1></div></div>","32","32","750","","test","go","313","random","","",""
"","312","32","1473","0","test_block","poldrack-single-stim","328","563462","0.0-5.0-314.0","go-nogo","false","0","","true","<div class = centerbox><div  id = stim1></div></div>","32","32","750","","test","go","314","random","","",""
"","410","32","1146","0","test_block","poldrack-single-stim","329","564946","0.0-5.0-315.0","go-nogo","false","0","","true","<div class = centerbox><div  id = stim1></div></div>","32","32","750","","test","go","315","random","","",""
"","729","32","1315","0","test_block","poldrack-single-stim","330","566478","0.0-5.0-316.0","go-nogo","false","0","","true","<div class = centerbox><div  id = stim1></div></div>","32","32","750","","test","go","316","random","","",""
"","389","32","1111","0","test_block","poldrack-single-stim","331","568048","0.0-5.0-317.0","go-nogo","false","0","","true","<div class = centerbox><div  id = stim1></div></div>","32","32","750","","test","go","317","random","","",""
"","327","32","1324","0","test_block","poldrack-single-stim","332","569551","0.0-5.0-318.0","go-nogo","false","0","","true","<div class = centerbox><div  id = stim1></div></div>","32","32","750","","test","go","318","random","","",""
"","-1","-1","1169","0","test_block","poldrack-single-stim","333","570950","0.0-5.0-319.0","go-nogo","false","0","","true","<div class = centerbox><div  id = stim2></div></div>","-1","32","750","","test","nogo","319","random","","",""
"","275","32","1353","0","test_block","poldrack-single-stim","334","572567","0.0-5.0-320.0","go-nogo","false","0","","true","<div class = centerbox><div  id = stim1></div></div>","32","32","750","","test","go","320","random","","",""
"","357","32","1214","0","test_block","poldrack-single-stim","335","574061","0.0-5.0-321.0","go-nogo","false","0","","true","<div class = centerbox><div  id = stim1></div></div>","32","32","750","","test","go","321","random","","",""
"","802","32","1372","0","test_block","poldrack-single-stim","336","576118","0.0-5.0-322.0","go-nogo","false","0","","true","<div class = centerbox><div  id = stim1></div></div>","32","32","750","","test","go","322","random","","",""
"","294","32","1178","0","test_block","poldrack-single-stim","337","577647","0.0-5.0-323.0","go-nogo","false","0","","true","<div class = centerbox><div  id = stim1></div></div>","32","32","750","","test","go","323","random","","",""
"","452","32","1345","0","test_block","poldrack-single-stim","338","579236","0.0-5.0-324.0","go-nogo","false","0","","true","<div class = centerbox><div  id = stim1></div></div>","32","32","750","","test","go","324","random","","",""
"","399","32","1226","0","test_block","poldrack-single-stim","339","580754","0.0-5.0-325.0","go-nogo","false","0","","true","<div class = centerbox><div  id = stim1></div></div>","32","32","750","","test","go","325","random","","",""
"","-1","-1","1029","0","test_block","poldrack-single-stim","340","582026","0.0-5.0-326.0","go-nogo","false","0","","true","<div class = centerbox><div  id = stim2></div></div>","-1","32","750","","test","nogo","326","random","","",""
"","546","32","1463","0","test_block","poldrack-single-stim","341","583736","0.0-5.0-327.0","go-nogo","false","0","","true","<div class = centerbox><div  id = stim1></div></div>","32","32","750","","test","go","327","random","","",""
"","449","32","1362","0","test_block","poldrack-single-stim","342","585483","0.0-5.0-328.0","go-nogo","false","0","","true","<div class = centerbox><div  id = stim1></div></div>","32","32","750","","test","go","328","random","","",""
"","524","32","1060","0","test_block","poldrack-single-stim","343","586735","0.0-5.0-329.0","go-nogo","false","0","","true","<div class = centerbox><div  id = stim1></div></div>","32","32","750","","test","go","329","random","","",""
"","373","32","1365","0","test_block","poldrack-single-stim","344","588461","0.0-5.0-330.0","go-nogo","false","0","","true","<div class = centerbox><div  id = stim1></div></div>","32","32","750","","test","go","330","random","","",""
"","393","32","1136","0","test_block","poldrack-single-stim","345","589937","0.0-5.0-331.0","go-nogo","false","0","","true","<div class = centerbox><div  id = stim1></div></div>","32","32","750","","test","go","331","random","","",""
"","497","32","1292","0","test_block","poldrack-single-stim","346","591557","0.0-5.0-332.0","go-nogo","false","0","","true","<div class = centerbox><div  id = stim1></div></div>","32","32","750","","test","go","332","random","","",""
"","314","32","1205","0","test_block","poldrack-single-stim","347","593022","0.0-5.0-333.0","go-nogo","false","0","","true","<div class = centerbox><div  id = stim1></div></div>","32","32","750","","test","go","333","random","","",""
"","330","32","1393","0","test_block","poldrack-single-stim","348","594690","0.0-5.0-334.0","go-nogo","false","0","","true","<div class = centerbox><div  id = stim1></div></div>","32","32","750","","test","go","334","random","","",""
"","311","32","1412","0","test_block","poldrack-single-stim","349","596320","0.0-5.0-335.0","go-nogo","false","0","","true","<div class = centerbox><div  id = stim1></div></div>","32","32","750","","test","go","335","random","","",""
"","325","32","1095","0","test_block","poldrack-single-stim","350","597658","0.0-5.0-336.0","go-nogo","false","0","","true","<div class = centerbox><div  id = stim1></div></div>","32","32","750","","test","go","336","random","","",""
"","367","32","1371","0","test_block","poldrack-single-stim","351","599312","0.0-5.0-337.0","go-nogo","false","0","","true","<div class = centerbox><div  id = stim1></div></div>","32","32","750","","test","go","337","random","","",""
"","-1","-1","1492","0","test_block","poldrack-single-stim","352","601044","0.0-5.0-338.0","go-nogo","false","0","","true","<div class = centerbox><div  id = stim2></div></div>","-1","32","750","","test","nogo","338","random","","",""
"","323","32","1223","0","test_block","poldrack-single-stim","353","602671","0.0-5.0-339.0","go-nogo","false","0","","true","<div class = centerbox><div  id = stim1></div></div>","32","32","750","","test","go","339","random","","",""
"","343","32","1060","0","test_block","poldrack-single-stim","354","603987","0.0-5.0-340.0","go-nogo","false","0","","true","<div class = centerbox><div  id = stim1></div></div>","32","32","750","","test","go","340","random","","",""
"","381","32","1062","0","test_block","poldrack-single-stim","355","605296","0.0-5.0-341.0","go-nogo","false","0","","true","<div class = centerbox><div  id = stim1></div></div>","32","32","750","","test","go","341","random","","",""
"","445","32","1230","0","test_block","poldrack-single-stim","356","606978","0.0-5.0-342.0","go-nogo","false","0","","true","<div class = centerbox><div  id = stim1></div></div>","32","32","750","","test","go","342","random","","",""
"","447","32","1114","0","test_block","poldrack-single-stim","357","608314","0.0-5.0-343.0","go-nogo","false","0","","true","<div class = centerbox><div  id = stim1></div></div>","32","32","750","","test","go","343","random","","",""
"","657","32","1224","0","test_block","poldrack-single-stim","358","609901","0.0-5.0-344.0","go-nogo","false","0","","true","<div class = centerbox><div  id = stim1></div></div>","32","32","750","","test","go","344","random","","",""
"","1235","32","1408","0","test_block","poldrack-single-stim","359","611459","0.0-5.0-345.0","go-nogo","false","0","","true","<div class = centerbox><div  id = stim1></div></div>","32","32","750","","test","go","345","random","","",""
"","272","32","1126","0","test_block","poldrack-single-stim","360","612872","0.0-5.0-346.0","go-nogo","false","0","","true","<div class = centerbox><div  id = stim1></div></div>","32","32","750","","test","go","346","random","","",""
"","321","32","1174","0","test_block","poldrack-single-stim","361","614280","0.0-5.0-347.0","go-nogo","false","0","","true","<div class = centerbox><div  id = stim1></div></div>","32","32","750","","test","go","347","random","","",""
"","-1","-1","1187","0","test_block","poldrack-single-stim","362","615666","0.0-5.0-348.0","go-nogo","false","0","","true","<div class = centerbox><div  id = stim2></div></div>","-1","32","750","","test","nogo","348","random","","",""
"","-1","-1","1119","0","test_block","poldrack-single-stim","363","617082","0.0-5.0-349.0","go-nogo","false","0","","true","<div class = centerbox><div  id = stim2></div></div>","-1","32","750","","test","nogo","349","random","","",""
"","28646","","","","post task questions","survey-text","364","645914","0.0-7.0","go-nogo","false","0","","","","","","","","","","","","{""Q0"":""I was asked to watch the screen and hit the space bar when a orange box appears."",""Q1"":""That was harder than I thought it would be!""}","",""
"<div class = centerbox><p class = center-block-text>Thanks for completing this task!</p><p class = center-block-text>Insert the following code to collect your payment at Amazon Mechanical Turk:</p><p class = center-block-text>80178317</p><p class = center-block-text>Press <strong>enter</strong> to continue.</p></div>","9821","13","9821","0","end","poldrack-text","365","656741","0.0-8.0","go-nogo","false","1","","","","","","","","","","","","","80178317","true"
