"text","rt","key_press","block_duration","timing_post_trial","trial_id","trial_type","trial_index","time_elapsed","internal_node_id","exp_id","full_screen","focus_shifts","view_history","correct","stimulus","correct_response","possible_responses","stim_duration","feedback_duration","exp_stage","condition","trial_num","mode","responses","payment_id","credit_var"
"<div class = centerbox><p class = center-block-text>Welcome to the experiment. This task will take around 10 minutes. Press <strong>enter</strong> to begin.</p></div>","3665","13","3665","0","instruction","poldrack-text","0","3669","0.0-0.0-0.0","go-nogo","false","0","","","","","","","","","","","","","",""
"","8742","","","","instruction","poldrack-instructions","1","12411","0.0-0.0-1.0","go-nogo","false","0","[{""page_index"":0,""viewing_time"":8741}]","","","","","","","","","","","","",""
"","360","32","1283","250","practice","poldrack-categorize","2","15707","0.0-1.0-0.0","go-nogo","false","0","","true","<div class = centerbox><div  id = stim1></div></div>","32","32","750","1000","practice","go","0","adv","","",""
"","-1","-1","1322","250","practice","poldrack-categorize","3","18285","0.0-1.0-1.0","go-nogo","false","0","","true","<div class = centerbox><div id = stim2></div></div>","-1","32","750","1000","practice","nogo","1","adv","","",""
"","-1","-1","1316","250","practice","poldrack-categorize","4","20864","0.0-1.0-2.0","go-nogo","false","0","","true","<div class = centerbox><div id = stim2></div></div>","-1","32","750","1000","practice","nogo","2","adv","","",""
"","-1","-1","1361","250","practice","poldrack-categorize","5","23481","0.0-1.0-3.0","go-nogo","false","0","","true","<div class = centerbox><div id = stim2></div></div>","-1","32","750","1000","practice","nogo","3","adv","","",""
"","335","32","1229","250","practice","poldrack-categorize","6","25966","0.0-1.0-4.0","go-nogo","false","0","","true","<div class = centerbox><div  id = stim1></div></div>","32","32","750","1000","practice","go","4","adv","","",""
"","338","32","1438","250","practice","poldrack-categorize","7","28665","0.0-1.0-5.0","go-nogo","false","0","","true","<div class = centerbox><div  id = stim1></div></div>","32","32","750","1000","practice","go","5","adv","","",""
"","-1","-1","1344","250","practice","poldrack-categorize","8","31269","0.0-1.0-6.0","go-nogo","false","0","","true","<div class = centerbox><div id = stim2></div></div>","-1","32","750","1000","practice","nogo","6","adv","","",""
"","415","32","1140","250","practice","poldrack-categorize","9","33671","0.0-1.0-7.0","go-nogo","false","0","","true","<div class = centerbox><div  id = stim1></div></div>","32","32","750","1000","practice","go","7","adv","","",""
"","332","32","1483","250","practice","poldrack-categorize","10","36415","0.0-1.0-8.0","go-nogo","false","0","","true","<div class = centerbox><div  id = stim1></div></div>","32","32","750","1000","practice","go","8","adv","","",""
"","-1","-1","1362","250","practice","poldrack-categorize","11","39039","0.0-1.0-9.0","go-nogo","false","0","","true","<div class = centerbox><div id = stim2></div></div>","-1","32","750","1000","practice","nogo","9","adv","","",""
"","","","","","reset_trial","call-function","12","39290","0.0-3.0","go-nogo","false","0","","","","","","","","","","","","","",""
"<div class = centerbox><p class = block-text>Practice is over, we will now begin the experiment. You will no longer get feedback about your responses.</p><p class = block-text>Remember, if you see the <font color=""orange"">orange</font> square you should <strong> respond by pressing the spacebar as quickly as possible</strong>. If you see the <font color=""blue"">blue</font> square you should <strong> not respond</strong>. Press <strong>enter</strong> to begin.</p></div>","5761","13","5761","1000","test_intro","poldrack-text","13","45053","0.0-4.0","go-nogo","false","1","","","","","","","","","","","","","",""
"","326","32","1320","0","test_block","poldrack-single-stim","14","47383","0.0-5.0-0.0","go-nogo","false","0","","true","<div class = centerbox><div  id = stim1></div></div>","32","32","750","","test","go","0","adv","","",""
"","350","32","1176","0","test_block","poldrack-single-stim","15","48594","0.0-5.0-1.0","go-nogo","false","0","","true","<div class = centerbox><div  id = stim1></div></div>","32","32","750","","test","go","1","adv","","",""
"","326","32","1267","0","test_block","poldrack-single-stim","16","49878","0.0-5.0-2.0","go-nogo","false","0","","true","<div class = centerbox><div  id = stim1></div></div>","32","32","750","","test","go","2","adv","","",""
"","315","32","1276","0","test_block","poldrack-single-stim","17","51169","0.0-5.0-3.0","go-nogo","false","0","","true","<div class = centerbox><div  id = stim1></div></div>","32","32","750","","test","go","3","adv","","",""
"","307","32","1383","0","test_block","poldrack-single-stim","18","52566","0.0-5.0-4.0","go-nogo","false","0","","true","<div class = centerbox><div  id = stim1></div></div>","32","32","750","","test","go","4","adv","","",""
"","300","32","1375","0","test_block","poldrack-single-stim","19","53962","0.0-5.0-5.0","go-nogo","false","0","","true","<div class = centerbox><div  id = stim1></div></div>","32","32","750","","test","go","5","adv","","",""
"","287","32","1151","0","test_block","poldrack-single-stim","20","55127","0.0-5.0-6.0","go-nogo","false","0","","true","<div class = centerbox><div  id = stim1></div></div>","32","32","750","","test","go","6","adv","","",""
"","306","32","1011","0","test_block","poldrack-single-stim","21","56155","0.0-5.0-7.0","go-nogo","false","0","","true","<div class = centerbox><div  id = stim1></div></div>","32","32","750","","test","go","7","adv","","",""
"","287","32","1495","0","test_block","poldrack-single-stim","22","57664","0.0-5.0-8.0","go-nogo","false","0","","true","<div class = centerbox><div  id = stim1></div></div>","32","32","750","","test","go","8","adv","","",""
"","347","32","1082","0","test_block","poldrack-single-stim","23","58758","0.0-5.0-9.0","go-nogo","false","0","","true","<div class = centerbox><div  id = stim1></div></div>","32","32","750","","test","go","9","adv","","",""
"","336","32","1458","0","test_block","poldrack-single-stim","24","60228","0.0-5.0-10.0","go-nogo","false","0","","true","<div class = centerbox><div  id = stim1></div></div>","32","32","750","","test","go","10","adv","","",""
"","286","32","1216","0","test_block","poldrack-single-stim","25","61458","0.0-5.0-11.0","go-nogo","false","0","","true","<div class = centerbox><div  id = stim1></div></div>","32","32","750","","test","go","11","adv","","",""
"","264","32","1180","0","test_block","poldrack-single-stim","26","62654","0.0-5.0-12.0","go-nogo","false","0","","true","<div class = centerbox><div  id = stim1></div></div>","32","32","750","","test","go","12","adv","","",""
"","307","32","1362","0","test_block","poldrack-single-stim","27","64026","0.0-5.0-13.0","go-nogo","false","0","","true","<div class = centerbox><div  id = stim1></div></div>","32","32","750","","test","go","13","adv","","",""
"","250","32","1412","0","test_block","poldrack-single-stim","28","65454","0.0-5.0-14.0","go-nogo","false","0","","true","<div class = centerbox><div  id = stim1></div></div>","32","32","750","","test","go","14","adv","","",""
"","239","32","1307","0","test_block","poldrack-single-stim","29","66771","0.0-5.0-15.0","go-nogo","false","0","","true","<div class = centerbox><div  id = stim1></div></div>","32","32","750","","test","go","15","adv","","",""
"","255","32","1088","0","test_block","poldrack-single-stim","30","67869","0.0-5.0-16.0","go-nogo","false","0","","true","<div class = centerbox><div  id = stim1></div></div>","32","32","750","","test","go","16","adv","","",""
"","304","32","1271","0","test_block","poldrack-single-stim","31","69150","0.0-5.0-17.0","go-nogo","false","0","","true","<div class = centerbox><div  id = stim1></div></div>","32","32","750","","test","go","17","adv","","",""
"","245","32","1365","0","test_block","poldrack-single-stim","32","70526","0.0-5.0-18.0","go-nogo","false","0","","true","<div class = centerbox><div  id = stim1></div></div>","32","32","750","","test","go","18","adv","","",""
"","241","32","1282","0","test_block","poldrack-single-stim","33","71818","0.0-5.0-19.0","go-nogo","false","0","","true","<div class = centerbox><div  id = stim1></div></div>","32","32","750","","test","go","19","adv","","",""
"","254","32","1367","0","test_block","poldrack-single-stim","34","73193","0.0-5.0-20.0","go-nogo","false","0","","true","<div class = centerbox><div  id = stim1></div></div>","32","32","750","","test","go","20","adv","","",""
"","249","32","1254","0","test_block","poldrack-single-stim","35","74454","0.0-5.0-21.0","go-nogo","false","0","","true","<div class = centerbox><div  id = stim1></div></div>","32","32","750","","test","go","21","adv","","",""
"","251","32","1421","0","test_block","poldrack-single-stim","36","75884","0.0-5.0-22.0","go-nogo","false","0","","true","<div class = centerbox><div  id = stim1></div></div>","32","32","750","","test","go","22","adv","","",""
"","230","32","1471","0","test_block","poldrack-single-stim","37","77362","0.0-5.0-23.0","go-nogo","false","0","","true","<div class = centerbox><div  id = stim1></div></div>","32","32","750","","test","go","23","adv","","",""
"","276","32","1233","0","test_block","poldrack-single-stim","38","78606","0.0-5.0-24.0","go-nogo","false","0","","true","<div class = centerbox><div  id = stim1></div></div>","32","32","750","","test","go","24","adv","","",""
"","285","32","1093","0","test_block","poldrack-single-stim","39","79708","0.0-5.0-25.0","go-nogo","false","0","","true","<div class = centerbox><div  id = stim1></div></div>","32","32","750","","test","go","25","adv","","",""
"","322","32","1437","0","test_block","poldrack-single-stim","40","81157","0.0-5.0-26.0","go-nogo","false","0","","true","<div class = centerbox><div  id = stim1></div></div>","32","32","750","","test","go","26","adv","","",""
"","45","32","1054","0","test_block","poldrack-single-stim","41","82221","0.0-5.0-27.0","go-nogo","false","0","","true","<div class = centerbox><div  id = stim1></div></div>","32","32","750","","test","go","27","adv","","",""
"","395","32","1381","0","test_block","poldrack-single-stim","42","83614","0.0-5.0-28.0","go-nogo","false","0","","true","<div class = centerbox><div  id = stim1></div></div>","32","32","750","","test","go","28","adv","","",""
"","274","32","1497","0","test_block","poldrack-single-stim","43","85124","0.0-5.0-29.0","go-nogo","false","0","","true","<div class = centerbox><div  id = stim1></div></div>","32","32","750","","test","go","29","adv","","",""
"","631","32","1316","0","test_block","poldrack-single-stim","44","86446","0.0-5.0-30.0","go-nogo","false","0","","true","<div class = centerbox><div  id = stim1></div></div>","32","32","750","","test","go","30","adv","","",""
"","289","32","1086","0","test_block","poldrack-single-stim","45","87546","0.0-5.0-31.0","go-nogo","false","0","","true","<div class = centerbox><div  id = stim1></div></div>","32","32","750","","test","go","31","adv","","",""
"","282","32","1330","0","test_block","poldrack-single-stim","46","88885","0.0-5.0-32.0","go-nogo","false","0","","true","<div class = centerbox><div  id = stim1></div></div>","32","32","750","","test","go","32","adv","","",""
"","246","32","1155","0","test_block","poldrack-single-stim","47","90048","0.0-5.0-33.0","go-nogo","false","0","","true","<div class = centerbox><div  id = stim1></div></div>","32","32","750","","test","go","33","adv","","",""
"","276","32","1451","0","test_block","poldrack-single-stim","48","91510","0.0-5.0-34.0","go-nogo","false","0","","true","<div class = centerbox><div  id = stim1></div></div>","32","32","750","","test","go","34","adv","","",""
"","245","32","1009","0","test_block","poldrack-single-stim","49","92526","0.0-5.0-35.0","go-nogo","false","0","","true","<div class = centerbox><div  id = stim1></div></div>","32","32","750","","test","go","35","adv","","",""
"","275","32","1074","0","test_block","poldrack-single-stim","50","93606","0.0-5.0-36.0","go-nogo","false","0","","true","<div class = centerbox><div  id = stim1></div></div>","32","32","750","","test","go","36","adv","","",""
"","277","32","1465","0","test_block","poldrack-single-stim","51","95081","0.0-5.0-37.0","go-nogo","false","0","","true","<div class = centerbox><div  id = stim1></div></div>","32","32","750","","test","go","37","adv","","",""
"","248","32","1241","0","test_block","poldrack-single-stim","52","96340","0.0-5.0-38.0","go-nogo","false","0","","true","<div class = centerbox><div  id = stim1></div></div>","32","32","750","","test","go","38","adv","","",""
"","258","32","1203","0","test_block","poldrack-single-stim","53","97554","0.0-5.0-39.0","go-nogo","false","0","","true","<div class = centerbox><div  id = stim1></div></div>","32","32","750","","test","go","39","adv","","",""
"","258","32","1314","0","test_block","poldrack-single-stim","54","98878","0.0-5.0-40.0","go-nogo","false","0","","true","<div class = centerbox><div  id = stim1></div></div>","32","32","750","","test","go","40","adv","","",""
"","263","32","1130","0","test_block","poldrack-single-stim","55","100017","0.0-5.0-41.0","go-nogo","false","0","","true","<div class = centerbox><div  id = stim1></div></div>","32","32","750","","test","go","41","adv","","",""
"","300","32","1122","0","test_block","poldrack-single-stim","56","101149","0.0-5.0-42.0","go-nogo","false","0","","true","<div class = centerbox><div  id = stim1></div></div>","32","32","750","","test","go","42","adv","","",""
"","257","32","1442","0","test_block","poldrack-single-stim","57","102601","0.0-5.0-43.0","go-nogo","false","0","","true","<div class = centerbox><div  id = stim1></div></div>","32","32","750","","test","go","43","adv","","",""
"","262","32","1358","0","test_block","poldrack-single-stim","58","103973","0.0-5.0-44.0","go-nogo","false","0","","true","<div class = centerbox><div  id = stim1></div></div>","32","32","750","","test","go","44","adv","","",""
"","193","32","1243","0","test_block","poldrack-single-stim","59","105225","0.0-5.0-45.0","go-nogo","false","0","","true","<div class = centerbox><div  id = stim1></div></div>","32","32","750","","test","go","45","adv","","",""
"","99","32","1178","0","test_block","poldrack-single-stim","60","106414","0.0-5.0-46.0","go-nogo","false","0","","true","<div class = centerbox><div  id = stim1></div></div>","32","32","750","","test","go","46","adv","","",""
"","268","32","1110","0","test_block","poldrack-single-stim","61","107538","0.0-5.0-47.0","go-nogo","false","0","","true","<div class = centerbox><div  id = stim1></div></div>","32","32","750","","test","go","47","adv","","",""
"","276","32","1275","0","test_block","poldrack-single-stim","62","108823","0.0-5.0-48.0","go-nogo","false","0","","true","<div class = centerbox><div  id = stim1></div></div>","32","32","750","","test","go","48","adv","","",""
"","251","32","1389","0","test_block","poldrack-single-stim","63","110222","0.0-5.0-49.0","go-nogo","false","0","","true","<div class = centerbox><div  id = stim1></div></div>","32","32","750","","test","go","49","adv","","",""
"","238","32","1319","0","test_block","poldrack-single-stim","64","111553","0.0-5.0-50.0","go-nogo","false","0","","true","<div class = centerbox><div  id = stim1></div></div>","32","32","750","","test","go","50","adv","","",""
"","264","32","1109","0","test_block","poldrack-single-stim","65","112669","0.0-5.0-51.0","go-nogo","false","0","","true","<div class = centerbox><div  id = stim1></div></div>","32","32","750","","test","go","51","adv","","",""
"","257","32","1313","0","test_block","poldrack-single-stim","66","113993","0.0-5.0-52.0","go-nogo","false","0","","true","<div class = centerbox><div  id = stim1></div></div>","32","32","750","","test","go","52","adv","","",""
"","220","32","1130","0","test_block","poldrack-single-stim","67","115131","0.0-5.0-53.0","go-nogo","false","0","","true","<div class = centerbox><div  id = stim1></div></div>","32","32","750","","test","go","53","adv","","",""
"","237","32","1161","0","test_block","poldrack-single-stim","68","116302","0.0-5.0-54.0","go-nogo","false","0","","true","<div class = centerbox><div  id = stim1></div></div>","32","32","750","","test","go","54","adv","","",""
"","266","32","1090","0","test_block","poldrack-single-stim","69","117401","0.0-5.0-55.0","go-nogo","false","0","","true","<div class = centerbox><div  id = stim1></div></div>","32","32","750","","test","go","55","adv","","",""
"","267","32","1227","0","test_block","poldrack-single-stim","70","118634","0.0-5.0-56.0","go-nogo","false","0","","true","<div class = centerbox><div  id = stim1></div></div>","32","32","750","","test","go","56","adv","","",""
"","218","32","1335","0","test_block","poldrack-single-stim","71","119974","0.0-5.0-57.0","go-nogo","false","0","","true","<div class = centerbox><div  id = stim1></div></div>","32","32","750","","test","go","57","adv","","",""
"","113","32","1271","0","test_block","poldrack-single-stim","72","121253","0.0-5.0-58.0","go-nogo","false","0","","true","<div class = centerbox><div  id = stim1></div></div>","32","32","750","","test","go","58","adv","","",""
"","81","32","1419","0","test_block","poldrack-single-stim","73","122687","0.0-5.0-59.0","go-nogo","false","0","","true","<div class = centerbox><div  id = stim1></div></div>","32","32","750","","test","go","59","adv","","",""
"","42","32","1317","0","test_block","poldrack-single-stim","74","124013","0.0-5.0-60.0","go-nogo","false","0","","true","<div class = centerbox><div  id = stim1></div></div>","32","32","750","","test","go","60","adv","","",""
"","149","32","1062","0","test_block","poldrack-single-stim","75","125085","0.0-5.0-61.0","go-nogo","false","0","","true","<div class = centerbox><div  id = stim1></div></div>","32","32","750","","test","go","61","adv","","",""
"","256","32","1118","0","test_block","poldrack-single-stim","76","126213","0.0-5.0-62.0","go-nogo","false","0","","true","<div class = centerbox><div  id = stim1></div></div>","32","32","750","","test","go","62","adv","","",""
"","287","32","1214","0","test_block","poldrack-single-stim","77","127435","0.0-5.0-63.0","go-nogo","false","0","","true","<div class = centerbox><div  id = stim1></div></div>","32","32","750","","test","go","63","adv","","",""
"","270","32","1117","0","test_block","poldrack-single-stim","78","128561","0.0-5.0-64.0","go-nogo","false","0","","true","<div class = centerbox><div  id = stim1></div></div>","32","32","750","","test","go","64","adv","","",""
"","251","32","1033","0","test_block","poldrack-single-stim","79","129601","0.0-5.0-65.0","go-nogo","false","0","","true","<div class = centerbox><div  id = stim1></div></div>","32","32","750","","test","go","65","adv","","",""
"","252","32","1147","0","test_block","poldrack-single-stim","80","130757","0.0-5.0-66.0","go-nogo","false","0","","true","<div class = centerbox><div  id = stim1></div></div>","32","32","750","","test","go","66","adv","","",""
"","249","32","1400","0","test_block","poldrack-single-stim","81","132166","0.0-5.0-67.0","go-nogo","false","0","","true","<div class = centerbox><div  id = stim1></div></div>","32","32","750","","test","go","67","adv","","",""
"","141","32","1215","0","test_block","poldrack-single-stim","82","133390","0.0-5.0-68.0","go-nogo","false","0","","true","<div class = centerbox><div  id = stim1></div></div>","32","32","750","","test","go","68","adv","","",""
"","228","32","1417","0","test_block","poldrack-single-stim","83","134813","0.0-5.0-69.0","go-nogo","false","0","","true","<div class = centerbox><div  id = stim1></div></div>","32","32","750","","test","go","69","adv","","",""
"","234","32","1130","0","test_block","poldrack-single-stim","84","135949","0.0-5.0-70.0","go-nogo","false","0","","true","<div class = centerbox><div  id = stim1></div></div>","32","32","750","","test","go","70","adv","","",""
"","355","32","1344","0","test_block","poldrack-single-stim","85","137303","0.0-5.0-71.0","go-nogo","false","0","","true","<div class = centerbox><div  id = stim1></div></div>","32","32","750","","test","go","71","adv","","",""
"","281","32","1267","0","test_block","poldrack-single-stim","86","138581","0.0-5.0-72.0","go-nogo","false","0","","true","<div class = centerbox><div  id = stim1></div></div>","32","32","750","","test","go","72","adv","","",""
"","263","32","1407","0","test_block","poldrack-single-stim","87","139993","0.0-5.0-73.0","go-nogo","false","0","","true","<div class = centerbox><div  id = stim1></div></div>","32","32","750","","test","go","73","adv","","",""
"","103","32","1398","0","test_block","poldrack-single-stim","88","141400","0.0-5.0-74.0","go-nogo","false","0","","true","<div class = centerbox><div  id = stim1></div></div>","32","32","750","","test","go","74","adv","","",""
"","26","32","1249","0","test_block","poldrack-single-stim","89","142659","0.0-5.0-75.0","go-nogo","false","0","","true","<div class = centerbox><div  id = stim1></div></div>","32","32","750","","test","go","75","adv","","",""
"","238","32","1147","0","test_block","poldrack-single-stim","90","143813","0.0-5.0-76.0","go-nogo","false","0","","true","<div class = centerbox><div  id = stim1></div></div>","32","32","750","","test","go","76","adv","","",""
"","284","32","1218","0","test_block","poldrack-single-stim","91","145038","0.0-5.0-77.0","go-nogo","false","0","","true","<div class = centerbox><div  id = stim1></div></div>","32","32","750","","test","go","77","adv","","",""
"","241","32","1491","0","test_block","poldrack-single-stim","92","146537","0.0-5.0-78.0","go-nogo","false","0","","true","<div class = centerbox><div  id = stim1></div></div>","32","32","750","","test","go","78","adv","","",""
"","386","32","1099","0","test_block","poldrack-single-stim","93","147646","0.0-5.0-79.0","go-nogo","false","0","","true","<div class = centerbox><div  id = stim1></div></div>","32","32","750","","test","go","79","adv","","",""
"","313","32","1417","0","test_block","poldrack-single-stim","94","149073","0.0-5.0-80.0","go-nogo","false","0","","true","<div class = centerbox><div  id = stim1></div></div>","32","32","750","","test","go","80","adv","","",""
"","253","32","1182","0","test_block","poldrack-single-stim","95","150265","0.0-5.0-81.0","go-nogo","false","0","","true","<div class = centerbox><div  id = stim1></div></div>","32","32","750","","test","go","81","adv","","",""
"","241","32","1348","0","test_block","poldrack-single-stim","96","151620","0.0-5.0-82.0","go-nogo","false","0","","true","<div class = centerbox><div  id = stim1></div></div>","32","32","750","","test","go","82","adv","","",""
"","276","32","1192","0","test_block","poldrack-single-stim","97","152820","0.0-5.0-83.0","go-nogo","false","0","","true","<div class = centerbox><div  id = stim1></div></div>","32","32","750","","test","go","83","adv","","",""
"","236","32","1208","0","test_block","poldrack-single-stim","98","154037","0.0-5.0-84.0","go-nogo","false","0","","true","<div class = centerbox><div  id = stim1></div></div>","32","32","750","","test","go","84","adv","","",""
"","224","32","1276","0","test_block","poldrack-single-stim","99","155321","0.0-5.0-85.0","go-nogo","false","0","","true","<div class = centerbox><div  id = stim1></div></div>","32","32","750","","test","go","85","adv","","",""
"","221","32","1377","0","test_block","poldrack-single-stim","100","156704","0.0-5.0-86.0","go-nogo","false","0","","true","<div class = centerbox><div  id = stim1></div></div>","32","32","750","","test","go","86","adv","","",""
"","256","32","1467","0","test_block","poldrack-single-stim","101","158180","0.0-5.0-87.0","go-nogo","false","0","","true","<div class = centerbox><div  id = stim1></div></div>","32","32","750","","test","go","87","adv","","",""
"","267","32","1006","0","test_block","poldrack-single-stim","102","159194","0.0-5.0-88.0","go-nogo","false","0","","true","<div class = centerbox><div  id = stim1></div></div>","32","32","750","","test","go","88","adv","","",""
"","311","32","1184","0","test_block","poldrack-single-stim","103","160392","0.0-5.0-89.0","go-nogo","false","0","","true","<div class = centerbox><div  id = stim1></div></div>","32","32","750","","test","go","89","adv","","",""
"","225","32","1278","0","test_block","poldrack-single-stim","104","161677","0.0-5.0-90.0","go-nogo","false","0","","true","<div class = centerbox><div  id = stim1></div></div>","32","32","750","","test","go","90","adv","","",""
"","227","32","1208","0","test_block","poldrack-single-stim","105","162896","0.0-5.0-91.0","go-nogo","false","0","","true","<div class = centerbox><div  id = stim1></div></div>","32","32","750","","test","go","91","adv","","",""
"","166","32","1102","0","test_block","poldrack-single-stim","106","164006","0.0-5.0-92.0","go-nogo","false","0","","true","<div class = centerbox><div  id = stim1></div></div>","32","32","750","","test","go","92","adv","","",""
"","161","32","1430","0","test_block","poldrack-single-stim","107","165444","0.0-5.0-93.0","go-nogo","false","0","","true","<div class = centerbox><div  id = stim1></div></div>","32","32","750","","test","go","93","adv","","",""
"","1","32","1345","0","test_block","poldrack-single-stim","108","166796","0.0-5.0-94.0","go-nogo","false","0","","true","<div class = centerbox><div  id = stim1></div></div>","32","32","750","","test","go","94","adv","","",""
"","244","32","1049","0","test_block","poldrack-single-stim","109","167852","0.0-5.0-95.0","go-nogo","false","0","","true","<div class = centerbox><div  id = stim1></div></div>","32","32","750","","test","go","95","adv","","",""
"","278","32","1216","0","test_block","poldrack-single-stim","110","169076","0.0-5.0-96.0","go-nogo","false","0","","true","<div class = centerbox><div  id = stim1></div></div>","32","32","750","","test","go","96","adv","","",""
"","106","32","1197","0","test_block","poldrack-single-stim","111","170284","0.0-5.0-97.0","go-nogo","false","0","","true","<div class = centerbox><div  id = stim1></div></div>","32","32","750","","test","go","97","adv","","",""
"","253","32","1242","0","test_block","poldrack-single-stim","112","171536","0.0-5.0-98.0","go-nogo","false","0","","true","<div class = centerbox><div  id = stim1></div></div>","32","32","750","","test","go","98","adv","","",""
"","230","32","1239","0","test_block","poldrack-single-stim","113","172784","0.0-5.0-99.0","go-nogo","false","0","","true","<div class = centerbox><div  id = stim1></div></div>","32","32","750","","test","go","99","adv","","",""
"","235","32","1452","0","test_block","poldrack-single-stim","114","174244","0.0-5.0-100.0","go-nogo","false","0","","true","<div class = centerbox><div  id = stim1></div></div>","32","32","750","","test","go","100","adv","","",""
"","23","32","1304","0","test_block","poldrack-single-stim","115","175556","0.0-5.0-101.0","go-nogo","false","0","","true","<div class = centerbox><div  id = stim1></div></div>","32","32","750","","test","go","101","adv","","",""
"","331","32","1377","0","test_block","poldrack-single-stim","116","176943","0.0-5.0-102.0","go-nogo","false","0","","true","<div class = centerbox><div  id = stim1></div></div>","32","32","750","","test","go","102","adv","","",""
"","324","32","1194","0","test_block","poldrack-single-stim","117","178147","0.0-5.0-103.0","go-nogo","false","0","","true","<div class = centerbox><div  id = stim1></div></div>","32","32","750","","test","go","103","adv","","",""
"","300","32","1025","0","test_block","poldrack-single-stim","118","179182","0.0-5.0-104.0","go-nogo","false","0","","true","<div class = centerbox><div  id = stim1></div></div>","32","32","750","","test","go","104","adv","","",""
"","321","32","1367","0","test_block","poldrack-single-stim","119","180559","0.0-5.0-105.0","go-nogo","false","0","","true","<div class = centerbox><div  id = stim1></div></div>","32","32","750","","test","go","105","adv","","",""
"","174","32","1189","0","test_block","poldrack-single-stim","120","181754","0.0-5.0-106.0","go-nogo","false","0","","true","<div class = centerbox><div  id = stim1></div></div>","32","32","750","","test","go","106","adv","","",""
"","226","32","1270","0","test_block","poldrack-single-stim","121","183032","0.0-5.0-107.0","go-nogo","false","0","","true","<div class = centerbox><div  id = stim1></div></div>","32","32","750","","test","go","107","adv","","",""
"","257","32","1059","0","test_block","poldrack-single-stim","122","184097","0.0-5.0-108.0","go-nogo","false","0","","true","<div class = centerbox><div  id = stim1></div></div>","32","32","750","","test","go","108","adv","","",""
"","346","32","1250","0","test_block","poldrack-single-stim","123","185356","0.0-5.0-109.0","go-nogo","false","0","","true","<div class = centerbox><div  id = stim1></div></div>","32","32","750","","test","go","109","adv","","",""
"","230","32","1162","0","test_block","poldrack-single-stim","124","186528","0.0-5.0-110.0","go-nogo","false","0","","true","<div class = centerbox><div  id = stim1></div></div>","32","32","750","","test","go","110","adv","","",""
"","264","32","1352","0","test_block","poldrack-single-stim","125","187892","0.0-5.0-111.0","go-nogo","false","0","","true","<div class = centerbox><div  id = stim1></div></div>","32","32","750","","test","go","111","adv","","",""
"","426","32","1053","0","test_block","poldrack-single-stim","126","188957","0.0-5.0-112.0","go-nogo","false","0","","true","<div class = centerbox><div  id = stim1></div></div>","32","32","750","","test","go","112","adv","","",""
"","532","32","1226","0","test_block","poldrack-single-stim","127","190192","0.0-5.0-113.0","go-nogo","false","0","","true","<div class = centerbox><div  id = stim1></div></div>","32","32","750","","test","go","113","adv","","",""
"","258","32","1128","0","test_block","poldrack-single-stim","128","191328","0.0-5.0-114.0","go-nogo","false","0","","true","<div class = centerbox><div  id = stim1></div></div>","32","32","750","","test","go","114","adv","","",""
"","260","32","1287","0","test_block","poldrack-single-stim","129","192623","0.0-5.0-115.0","go-nogo","false","0","","true","<div class = centerbox><div  id = stim1></div></div>","32","32","750","","test","go","115","adv","","",""
"","523","32","1095","0","test_block","poldrack-single-stim","130","193724","0.0-5.0-116.0","go-nogo","false","0","","true","<div class = centerbox><div  id = stim1></div></div>","32","32","750","","test","go","116","adv","","",""
"","329","32","1190","0","test_block","poldrack-single-stim","131","194921","0.0-5.0-117.0","go-nogo","false","0","","true","<div class = centerbox><div  id = stim1></div></div>","32","32","750","","test","go","117","adv","","",""
"","274","32","1208","0","test_block","poldrack-single-stim","132","196144","0.0-5.0-118.0","go-nogo","false","0","","true","<div class = centerbox><div  id = stim1></div></div>","32","32","750","","test","go","118","adv","","",""
"","41","32","1434","0","test_block","poldrack-single-stim","133","197587","0.0-5.0-119.0","go-nogo","false","0","","true","<div class = centerbox><div  id = stim1></div></div>","32","32","750","","test","go","119","adv","","",""
"","229","32","1433","0","test_block","poldrack-single-stim","134","199027","0.0-5.0-120.0","go-nogo","false","0","","true","<div class = centerbox><div  id = stim1></div></div>","32","32","750","","test","go","120","adv","","",""
"","323","32","1187","0","test_block","poldrack-single-stim","135","200220","0.0-5.0-121.0","go-nogo","false","0","","true","<div class = centerbox><div  id = stim1></div></div>","32","32","750","","test","go","121","adv","","",""
"","227","32","1046","0","test_block","poldrack-single-stim","136","201275","0.0-5.0-122.0","go-nogo","false","0","","true","<div class = centerbox><div  id = stim1></div></div>","32","32","750","","test","go","122","adv","","",""
"","226","32","1060","0","test_block","poldrack-single-stim","137","202341","0.0-5.0-123.0","go-nogo","false","0","","true","<div class = centerbox><div  id = stim1></div></div>","32","32","750","","test","go","123","adv","","",""
"","211","32","1149","0","test_block","poldrack-single-stim","138","203499","0.0-5.0-124.0","go-nogo","false","0","","true","<div class = centerbox><div  id = stim1></div></div>","32","32","750","","test","go","124","adv","","",""
"","204","32","1282","0","test_block","poldrack-single-stim","139","204791","0.0-5.0-125.0","go-nogo","false","0","","true","<div class = centerbox><div  id = stim1></div></div>","32","32","750","","test","go","125","adv","","",""
"","187","32","1223","0","test_block","poldrack-single-stim","140","206024","0.0-5.0-126.0","go-nogo","false","0","","true","<div class = centerbox><div  id = stim1></div></div>","32","32","750","","test","go","126","adv","","",""
"","68","32","1324","0","test_block","poldrack-single-stim","141","207354","0.0-5.0-127.0","go-nogo","false","0","","true","<div class = centerbox><div  id = stim1></div></div>","32","32","750","","test","go","127","adv","","",""
"","330","32","1424","0","test_block","poldrack-single-stim","142","208787","0.0-5.0-128.0","go-nogo","false","0","","true","<div class = centerbox><div  id = stim1></div></div>","32","32","750","","test","go","128","adv","","",""
"","79","32","1341","0","test_block","poldrack-single-stim","143","210135","0.0-5.0-129.0","go-nogo","false","0","","true","<div class = centerbox><div  id = stim1></div></div>","32","32","750","","test","go","129","adv","","",""
"","25","32","1003","0","test_block","poldrack-single-stim","144","211147","0.0-5.0-130.0","go-nogo","false","0","","true","<div class = centerbox><div  id = stim1></div></div>","32","32","750","","test","go","130","adv","","",""
"","256","32","1365","0","test_block","poldrack-single-stim","145","212520","0.0-5.0-131.0","go-nogo","false","0","","true","<div class = centerbox><div  id = stim1></div></div>","32","32","750","","test","go","131","adv","","",""
"","35","32","1273","0","test_block","poldrack-single-stim","146","213803","0.0-5.0-132.0","go-nogo","false","0","","true","<div class = centerbox><div  id = stim1></div></div>","32","32","750","","test","go","132","adv","","",""
"","170","32","1290","0","test_block","poldrack-single-stim","147","215103","0.0-5.0-133.0","go-nogo","false","0","","true","<div class = centerbox><div  id = stim1></div></div>","32","32","750","","test","go","133","adv","","",""
"","116","32","1413","0","test_block","poldrack-single-stim","148","216527","0.0-5.0-134.0","go-nogo","false","0","","true","<div class = centerbox><div  id = stim1></div></div>","32","32","750","","test","go","134","adv","","",""
"","124","32","1169","0","test_block","poldrack-single-stim","149","217703","0.0-5.0-135.0","go-nogo","false","0","","true","<div class = centerbox><div  id = stim1></div></div>","32","32","750","","test","go","135","adv","","",""
"","232","32","1091","0","test_block","poldrack-single-stim","150","218804","0.0-5.0-136.0","go-nogo","false","0","","true","<div class = centerbox><div  id = stim1></div></div>","32","32","750","","test","go","136","adv","","",""
"","255","32","1138","0","test_block","poldrack-single-stim","151","219951","0.0-5.0-137.0","go-nogo","false","0","","true","<div class = centerbox><div  id = stim1></div></div>","32","32","750","","test","go","137","adv","","",""
"","230","32","1194","0","test_block","poldrack-single-stim","152","221155","0.0-5.0-138.0","go-nogo","false","0","","true","<div class = centerbox><div  id = stim1></div></div>","32","32","750","","test","go","138","adv","","",""
"","72","32","1139","0","test_block","poldrack-single-stim","153","222303","0.0-5.0-139.0","go-nogo","false","0","","true","<div class = centerbox><div  id = stim1></div></div>","32","32","750","","test","go","139","adv","","",""
"","271","32","1255","0","test_block","poldrack-single-stim","154","223564","0.0-5.0-140.0","go-nogo","false","0","","true","<div class = centerbox><div  id = stim1></div></div>","32","32","750","","test","go","140","adv","","",""
"","343","32","1159","0","test_block","poldrack-single-stim","155","224733","0.0-5.0-141.0","go-nogo","false","0","","true","<div class = centerbox><div  id = stim1></div></div>","32","32","750","","test","go","141","adv","","",""
"","239","32","1006","0","test_block","poldrack-single-stim","156","225750","0.0-5.0-142.0","go-nogo","false","0","","true","<div class = centerbox><div  id = stim1></div></div>","32","32","750","","test","go","142","adv","","",""
"","350","32","1117","0","test_block","poldrack-single-stim","157","226875","0.0-5.0-143.0","go-nogo","false","0","","true","<div class = centerbox><div  id = stim1></div></div>","32","32","750","","test","go","143","adv","","",""
"","265","32","1016","0","test_block","poldrack-single-stim","158","227899","0.0-5.0-144.0","go-nogo","false","0","","true","<div class = centerbox><div  id = stim1></div></div>","32","32","750","","test","go","144","adv","","",""
"","281","32","1119","0","test_block","poldrack-single-stim","159","229027","0.0-5.0-145.0","go-nogo","false","0","","true","<div class = centerbox><div  id = stim1></div></div>","32","32","750","","test","go","145","adv","","",""
"","273","32","1092","0","test_block","poldrack-single-stim","160","230127","0.0-5.0-146.0","go-nogo","false","0","","true","<div class = centerbox><div  id = stim1></div></div>","32","32","750","","test","go","146","adv","","",""
"","401","32","1398","0","test_block","poldrack-single-stim","161","231532","0.0-5.0-147.0","go-nogo","false","0","","true","<div class = centerbox><div  id = stim1></div></div>","32","32","750","","test","go","147","adv","","",""
"","234","32","1276","0","test_block","poldrack-single-stim","162","232814","0.0-5.0-148.0","go-nogo","false","0","","true","<div class = centerbox><div  id = stim1></div></div>","32","32","750","","test","go","148","adv","","",""
"","352","32","1033","0","test_block","poldrack-single-stim","163","233855","0.0-5.0-149.0","go-nogo","false","0","","true","<div class = centerbox><div  id = stim1></div></div>","32","32","750","","test","go","149","adv","","",""
"","345","32","1182","0","test_block","poldrack-single-stim","164","235045","0.0-5.0-150.0","go-nogo","false","0","","true","<div class = centerbox><div  id = stim1></div></div>","32","32","750","","test","go","150","adv","","",""
"","273","32","1383","0","test_block","poldrack-single-stim","165","236439","0.0-5.0-151.0","go-nogo","false","0","","true","<div class = centerbox><div  id = stim1></div></div>","32","32","750","","test","go","151","adv","","",""
"","1","32","1466","0","test_block","poldrack-single-stim","166","237914","0.0-5.0-152.0","go-nogo","false","0","","true","<div class = centerbox><div  id = stim1></div></div>","32","32","750","","test","go","152","adv","","",""
"","138","32","1210","0","test_block","poldrack-single-stim","167","239135","0.0-5.0-153.0","go-nogo","false","0","","true","<div class = centerbox><div  id = stim1></div></div>","32","32","750","","test","go","153","adv","","",""
"","244","32","1335","0","test_block","poldrack-single-stim","168","240479","0.0-5.0-154.0","go-nogo","false","0","","true","<div class = centerbox><div  id = stim1></div></div>","32","32","750","","test","go","154","adv","","",""
"","74","32","1144","0","test_block","poldrack-single-stim","169","241631","0.0-5.0-155.0","go-nogo","false","0","","true","<div class = centerbox><div  id = stim1></div></div>","32","32","750","","test","go","155","adv","","",""
"","282","32","1483","0","test_block","poldrack-single-stim","170","243123","0.0-5.0-156.0","go-nogo","false","0","","true","<div class = centerbox><div  id = stim1></div></div>","32","32","750","","test","go","156","adv","","",""
"","231","32","1186","0","test_block","poldrack-single-stim","171","244319","0.0-5.0-157.0","go-nogo","false","0","","true","<div class = centerbox><div  id = stim1></div></div>","32","32","750","","test","go","157","adv","","",""
"","352","32","1151","0","test_block","poldrack-single-stim","172","245476","0.0-5.0-158.0","go-nogo","false","0","","true","<div class = centerbox><div  id = stim1></div></div>","32","32","750","","test","go","158","adv","","",""
"","247","32","1093","0","test_block","poldrack-single-stim","173","246577","0.0-5.0-159.0","go-nogo","false","0","","true","<div class = centerbox><div  id = stim1></div></div>","32","32","750","","test","go","159","adv","","",""
"","157","32","1241","0","test_block","poldrack-single-stim","174","247826","0.0-5.0-160.0","go-nogo","false","0","","false","<div class = centerbox><div  id = stim2></div></div>","-1","32","750","","test","nogo","160","adv","","",""
"","81","32","1228","0","test_block","poldrack-single-stim","175","249066","0.0-5.0-161.0","go-nogo","false","0","","true","<div class = centerbox><div  id = stim1></div></div>","32","32","750","","test","go","161","adv","","",""
"","174","32","1056","0","test_block","poldrack-single-stim","176","250130","0.0-5.0-162.0","go-nogo","false","0","","true","<div class = centerbox><div  id = stim1></div></div>","32","32","750","","test","go","162","adv","","",""
"","196","32","1022","0","test_block","poldrack-single-stim","177","251161","0.0-5.0-163.0","go-nogo","false","0","","false","<div class = centerbox><div  id = stim2></div></div>","-1","32","750","","test","nogo","163","adv","","",""
"","295","32","1018","0","test_block","poldrack-single-stim","178","252190","0.0-5.0-164.0","go-nogo","false","0","","true","<div class = centerbox><div  id = stim1></div></div>","32","32","750","","test","go","164","adv","","",""
"","330","32","1145","0","test_block","poldrack-single-stim","179","253343","0.0-5.0-165.0","go-nogo","false","0","","true","<div class = centerbox><div  id = stim1></div></div>","32","32","750","","test","go","165","adv","","",""
"","-1","-1","1384","0","test_block","poldrack-single-stim","180","254733","0.0-5.0-166.0","go-nogo","false","0","","true","<div class = centerbox><div  id = stim2></div></div>","-1","32","750","","test","nogo","166","adv","","",""
"","251","32","1385","0","test_block","poldrack-single-stim","181","256127","0.0-5.0-167.0","go-nogo","false","0","","true","<div class = centerbox><div  id = stim1></div></div>","32","32","750","","test","go","167","adv","","",""
"","252","32","1171","0","test_block","poldrack-single-stim","182","257306","0.0-5.0-168.0","go-nogo","false","0","","true","<div class = centerbox><div  id = stim1></div></div>","32","32","750","","test","go","168","adv","","",""
"","-1","-1","1099","0","test_block","poldrack-single-stim","183","258411","0.0-5.0-169.0","go-nogo","false","0","","true","<div class = centerbox><div  id = stim2></div></div>","-1","32","750","","test","nogo","169","adv","","",""
"","246","32","1136","0","test_block","poldrack-single-stim","184","259554","0.0-5.0-170.0","go-nogo","false","0","","true","<div class = centerbox><div  id = stim1></div></div>","32","32","750","","test","go","170","adv","","",""
"","291","32","1204","0","test_block","poldrack-single-stim","185","260771","0.0-5.0-171.0","go-nogo","false","0","","true","<div class = centerbox><div  id = stim1></div></div>","32","32","750","","test","go","171","adv","","",""
"","-1","-1","1311","0","test_block","poldrack-single-stim","186","262090","0.0-5.0-172.0","go-nogo","false","0","","true","<div class = centerbox><div  id = stim2></div></div>","-1","32","750","","test","nogo","172","adv","","",""
"","314","32","1270","0","test_block","poldrack-single-stim","187","263370","0.0-5.0-173.0","go-nogo","false","0","","true","<div class = centerbox><div  id = stim1></div></div>","32","32","750","","test","go","173","adv","","",""
"","377","32","1098","0","test_block","poldrack-single-stim","188","264475","0.0-5.0-174.0","go-nogo","false","0","","true","<div class = centerbox><div  id = stim1></div></div>","32","32","750","","test","go","174","adv","","",""
"","347","32","1077","0","test_block","poldrack-single-stim","189","265559","0.0-5.0-175.0","go-nogo","false","0","","true","<div class = centerbox><div  id = stim1></div></div>","32","32","750","","test","go","175","adv","","",""
"","306","32","1201","0","test_block","poldrack-single-stim","190","266770","0.0-5.0-176.0","go-nogo","false","0","","true","<div class = centerbox><div  id = stim1></div></div>","32","32","750","","test","go","176","adv","","",""
"","324","32","1359","0","test_block","poldrack-single-stim","191","268139","0.0-5.0-177.0","go-nogo","false","0","","true","<div class = centerbox><div  id = stim1></div></div>","32","32","750","","test","go","177","adv","","",""
"","316","32","1262","0","test_block","poldrack-single-stim","192","269411","0.0-5.0-178.0","go-nogo","false","0","","true","<div class = centerbox><div  id = stim1></div></div>","32","32","750","","test","go","178","adv","","",""
"","-1","-1","1126","0","test_block","poldrack-single-stim","193","270543","0.0-5.0-179.0","go-nogo","false","0","","true","<div class = centerbox><div  id = stim2></div></div>","-1","32","750","","test","nogo","179","adv","","",""
"","281","32","1193","0","test_block","poldrack-single-stim","194","271746","0.0-5.0-180.0","go-nogo","false","0","","true","<div class = centerbox><div  id = stim1></div></div>","32","32","750","","test","go","180","adv","","",""
"","344","32","1476","0","test_block","poldrack-single-stim","195","273230","0.0-5.0-181.0","go-nogo","false","0","","true","<div class = centerbox><div  id = stim1></div></div>","32","32","750","","test","go","181","adv","","",""
"","319","32","1083","0","test_block","poldrack-single-stim","196","274319","0.0-5.0-182.0","go-nogo","false","0","","true","<div class = centerbox><div  id = stim1></div></div>","32","32","750","","test","go","182","adv","","",""
"","286","32","1006","0","test_block","poldrack-single-stim","197","275334","0.0-5.0-183.0","go-nogo","false","0","","true","<div class = centerbox><div  id = stim1></div></div>","32","32","750","","test","go","183","adv","","",""
"","342","32","1041","0","test_block","poldrack-single-stim","198","276382","0.0-5.0-184.0","go-nogo","false","0","","true","<div class = centerbox><div  id = stim1></div></div>","32","32","750","","test","go","184","adv","","",""
"","233","32","1368","0","test_block","poldrack-single-stim","199","277758","0.0-5.0-185.0","go-nogo","false","0","","true","<div class = centerbox><div  id = stim1></div></div>","32","32","750","","test","go","185","adv","","",""
"","350","32","1247","0","test_block","poldrack-single-stim","200","279013","0.0-5.0-186.0","go-nogo","false","0","","true","<div class = centerbox><div  id = stim1></div></div>","32","32","750","","test","go","186","adv","","",""
"","661","32","1100","0","test_block","poldrack-single-stim","201","280121","0.0-5.0-187.0","go-nogo","false","0","","true","<div class = centerbox><div  id = stim1></div></div>","32","32","750","","test","go","187","adv","","",""
"","351","32","1042","0","test_block","poldrack-single-stim","202","281170","0.0-5.0-188.0","go-nogo","false","0","","true","<div class = centerbox><div  id = stim1></div></div>","32","32","750","","test","go","188","adv","","",""
"","-1","-1","1489","0","test_block","poldrack-single-stim","203","282666","0.0-5.0-189.0","go-nogo","false","0","","true","<div class = centerbox><div  id = stim2></div></div>","-1","32","750","","test","nogo","189","adv","","",""
"","271","32","1306","0","test_block","poldrack-single-stim","204","283978","0.0-5.0-190.0","go-nogo","false","0","","true","<div class = centerbox><div  id = stim1></div></div>","32","32","750","","test","go","190","adv","","",""
"","276","32","1226","0","test_block","poldrack-single-stim","205","285214","0.0-5.0-191.0","go-nogo","false","0","","true","<div class = centerbox><div  id = stim1></div></div>","32","32","750","","test","go","191","adv","","",""
"","290","32","1484","0","test_block","poldrack-single-stim","206","286708","0.0-5.0-192.0","go-nogo","false","0","","true","<div class = centerbox><div  id = stim1></div></div>","32","32","750","","test","go","192","adv","","",""
"","241","32","1476","0","test_block","poldrack-single-stim","207","288194","0.0-5.0-193.0","go-nogo","false","0","","true","<div class = centerbox><div  id = stim1></div></div>","32","32","750","","test","go","193","adv","","",""
"","326","32","1070","0","test_block","poldrack-single-stim","208","289270","0.0-5.0-194.0","go-nogo","false","0","","true","<div class = centerbox><div  id = stim1></div></div>","32","32","750","","test","go","194","adv","","",""
"","346","32","1462","0","test_block","poldrack-single-stim","209","290740","0.0-5.0-195.0","go-nogo","false","0","","true","<div class = centerbox><div  id = stim1></div></div>","32","32","750","","test","go","195","adv","","",""
"","332","32","1394","0","test_block","poldrack-single-stim","210","292142","0.0-5.0-196.0","go-nogo","false","0","","true","<div class = centerbox><div  id = stim1></div></div>","32","32","750","","test","go","196","adv","","",""
"","303","32","1483","0","test_block","poldrack-single-stim","211","293634","0.0-5.0-197.0","go-nogo","false","0","","true","<div class = centerbox><div  id = stim1></div></div>","32","32","750","","test","go","197","adv","","",""
"","-1","-1","1415","0","test_block","poldrack-single-stim","212","295056","0.0-5.0-198.0","go-nogo","false","0","","true","<div class = centerbox><div  id = stim2></div></div>","-1","32","750","","test","nogo","198","adv","","",""
"","258","32","1027","0","test_block","poldrack-single-stim","213","296090","0.0-5.0-199.0","go-nogo","false","0","","true","<div class = centerbox><div  id = stim1></div></div>","32","32","750","","test","go","199","adv","","",""
"","341","32","1083","0","test_block","poldrack-single-stim","214","297182","0.0-5.0-200.0","go-nogo","false","0","","true","<div class = centerbox><div  id = stim1></div></div>","32","32","750","","test","go","200","adv","","",""
"","231","32","1202","0","test_block","poldrack-single-stim","215","298390","0.0-5.0-201.0","go-nogo","false","0","","true","<div class = centerbox><div  id = stim1></div></div>","32","32","750","","test","go","201","adv","","",""
"","301","32","1458","0","test_block","poldrack-single-stim","216","299855","0.0-5.0-202.0","go-nogo","false","0","","true","<div class = centerbox><div  id = stim1></div></div>","32","32","750","","test","go","202","adv","","",""
"","294","32","1349","0","test_block","poldrack-single-stim","217","301210","0.0-5.0-203.0","go-nogo","false","0","","true","<div class = centerbox><div  id = stim1></div></div>","32","32","750","","test","go","203","adv","","",""
"","279","32","1278","0","test_block","poldrack-single-stim","218","302498","0.0-5.0-204.0","go-nogo","false","0","","true","<div class = centerbox><div  id = stim1></div></div>","32","32","750","","test","go","204","adv","","",""
"","246","32","1242","0","test_block","poldrack-single-stim","219","303745","0.0-5.0-205.0","go-nogo","false","0","","true","<div class = centerbox><div  id = stim1></div></div>","32","32","750","","test","go","205","adv","","",""
"","287","32","1244","0","test_block","poldrack-single-stim","220","304998","0.0-5.0-206.0","go-nogo","false","0","","true","<div class = centerbox><div  id = stim1></div></div>","32","32","750","","test","go","206","adv","","",""
"","342","32","1023","0","test_block","poldrack-single-stim","221","306034","0.0-5.0-207.0","go-nogo","false","0","","true","<div class = centerbox><div  id = stim1></div></div>","32","32","750","","test","go","207","adv","","",""
"","457","32","1239","0","test_block","poldrack-single-stim","222","307282","0.0-5.0-208.0","go-nogo","false","0","","true","<div class = centerbox><div  id = stim1></div></div>","32","32","750","","test","go","208","adv","","",""
"","-1","-1","1474","0","test_block","poldrack-single-stim","223","308764","0.0-5.0-209.0","go-nogo","false","0","","true","<div class = centerbox><div  id = stim2></div></div>","-1","32","750","","test","nogo","209","adv","","",""
"","264","32","1264","0","test_block","poldrack-single-stim","224","310036","0.0-5.0-210.0","go-nogo","false","0","","true","<div class = centerbox><div  id = stim1></div></div>","32","32","750","","test","go","210","adv","","",""
"","263","32","1188","0","test_block","poldrack-single-stim","225","311235","0.0-5.0-211.0","go-nogo","false","0","","true","<div class = centerbox><div  id = stim1></div></div>","32","32","750","","test","go","211","adv","","",""
"","204","32","1482","0","test_block","poldrack-single-stim","226","312723","0.0-5.0-212.0","go-nogo","false","0","","true","<div class = centerbox><div  id = stim1></div></div>","32","32","750","","test","go","212","adv","","",""
"","307","32","1095","0","test_block","poldrack-single-stim","227","313826","0.0-5.0-213.0","go-nogo","false","0","","true","<div class = centerbox><div  id = stim1></div></div>","32","32","750","","test","go","213","adv","","",""
"","300","32","1172","0","test_block","poldrack-single-stim","228","315005","0.0-5.0-214.0","go-nogo","false","0","","true","<div class = centerbox><div  id = stim1></div></div>","32","32","750","","test","go","214","adv","","",""
"","291","32","1093","0","test_block","poldrack-single-stim","229","316105","0.0-5.0-215.0","go-nogo","false","0","","true","<div class = centerbox><div  id = stim1></div></div>","32","32","750","","test","go","215","adv","","",""
"","291","32","1077","0","test_block","poldrack-single-stim","230","317189","0.0-5.0-216.0","go-nogo","false","0","","true","<div class = centerbox><div  id = stim1></div></div>","32","32","750","","test","go","216","adv","","",""
"","287","32","1039","0","test_block","poldrack-single-stim","231","318238","0.0-5.0-217.0","go-nogo","false","0","","true","<div class = centerbox><div  id = stim1></div></div>","32","32","750","","test","go","217","adv","","",""
"","272","32","1079","0","test_block","poldrack-single-stim","232","319325","0.0-5.0-218.0","go-nogo","false","0","","true","<div class = centerbox><div  id = stim1></div></div>","32","32","750","","test","go","218","adv","","",""
"","297","32","1040","0","test_block","poldrack-single-stim","233","320373","0.0-5.0-219.0","go-nogo","false","0","","true","<div class = centerbox><div  id = stim1></div></div>","32","32","750","","test","go","219","adv","","",""
"","311","32","1215","0","test_block","poldrack-single-stim","234","321601","0.0-5.0-220.0","go-nogo","false","0","","true","<div class = centerbox><div  id = stim1></div></div>","32","32","750","","test","go","220","adv","","",""
"","239","32","1164","0","test_block","poldrack-single-stim","235","322774","0.0-5.0-221.0","go-nogo","false","0","","false","<div class = centerbox><div  id = stim2></div></div>","-1","32","750","","test","nogo","221","adv","","",""
"","244","32","1165","0","test_block","poldrack-single-stim","236","323945","0.0-5.0-222.0","go-nogo","false","0","","true","<div class = centerbox><div  id = stim1></div></div>","32","32","750","","test","go","222","adv","","",""
"","299","32","1098","0","test_block","poldrack-single-stim","237","325053","0.0-5.0-223.0","go-nogo","false","0","","true","<div class = centerbox><div  id = stim1></div></div>","32","32","750","","test","go","223","adv","","",""
"","-1","-1","1219","0","test_block","poldrack-single-stim","238","326282","0.0-5.0-224.0","go-nogo","false","0","","true","<div class = centerbox><div  id = stim2></div></div>","-1","32","750","","test","nogo","224","adv","","",""
"","292","32","1367","0","test_block","poldrack-single-stim","239","327657","0.0-5.0-225.0","go-nogo","false","0","","true","<div class = centerbox><div  id = stim1></div></div>","32","32","750","","test","go","225","adv","","",""
"","90","32","1315","0","test_block","poldrack-single-stim","240","328979","0.0-5.0-226.0","go-nogo","false","0","","true","<div class = centerbox><div  id = stim1></div></div>","32","32","750","","test","go","226","adv","","",""
"","-1","-1","1409","0","test_block","poldrack-single-stim","241","330396","0.0-5.0-227.0","go-nogo","false","0","","true","<div class = centerbox><div  id = stim2></div></div>","-1","32","750","","test","nogo","227","adv","","",""
"","275","32","1022","0","test_block","poldrack-single-stim","242","331430","0.0-5.0-228.0","go-nogo","false","0","","true","<div class = centerbox><div  id = stim1></div></div>","32","32","750","","test","go","228","adv","","",""
"","346","32","1089","0","test_block","poldrack-single-stim","243","332529","0.0-5.0-229.0","go-nogo","false","0","","true","<div class = centerbox><div  id = stim1></div></div>","32","32","750","","test","go","229","adv","","",""
"","281","32","1429","0","test_block","poldrack-single-stim","244","333965","0.0-5.0-230.0","go-nogo","false","0","","true","<div class = centerbox><div  id = stim1></div></div>","32","32","750","","test","go","230","adv","","",""
"","272","32","1035","0","test_block","poldrack-single-stim","245","335009","0.0-5.0-231.0","go-nogo","false","0","","true","<div class = centerbox><div  id = stim1></div></div>","32","32","750","","test","go","231","adv","","",""
"","311","32","1097","0","test_block","poldrack-single-stim","246","336116","0.0-5.0-232.0","go-nogo","false","0","","true","<div class = centerbox><div  id = stim1></div></div>","32","32","750","","test","go","232","adv","","",""
"","271","32","1357","0","test_block","poldrack-single-stim","247","337485","0.0-5.0-233.0","go-nogo","false","0","","true","<div class = centerbox><div  id = stim1></div></div>","32","32","750","","test","go","233","adv","","",""
"","111","32","1146","0","test_block","poldrack-single-stim","248","338639","0.0-5.0-234.0","go-nogo","false","0","","false","<div class = centerbox><div  id = stim2></div></div>","-1","32","750","","test","nogo","234","adv","","",""
"","307","32","1340","0","test_block","poldrack-single-stim","249","339989","0.0-5.0-235.0","go-nogo","false","0","","true","<div class = centerbox><div  id = stim1></div></div>","32","32","750","","test","go","235","adv","","",""
"","361","32","1060","0","test_block","poldrack-single-stim","250","341063","0.0-5.0-236.0","go-nogo","false","0","","true","<div class = centerbox><div  id = stim1></div></div>","32","32","750","","test","go","236","adv","","",""
"","-1","-1","1142","0","test_block","poldrack-single-stim","251","342213","0.0-5.0-237.0","go-nogo","false","0","","true","<div class = centerbox><div  id = stim2></div></div>","-1","32","750","","test","nogo","237","adv","","",""
"","66","32","1109","0","test_block","poldrack-single-stim","252","343329","0.0-5.0-238.0","go-nogo","false","0","","true","<div class = centerbox><div  id = stim1></div></div>","32","32","750","","test","go","238","adv","","",""
"","300","32","1433","0","test_block","poldrack-single-stim","253","344771","0.0-5.0-239.0","go-nogo","false","0","","true","<div class = centerbox><div  id = stim1></div></div>","32","32","750","","test","go","239","adv","","",""
"","-1","-1","1366","0","test_block","poldrack-single-stim","254","346145","0.0-5.0-240.0","go-nogo","false","0","","true","<div class = centerbox><div  id = stim2></div></div>","-1","32","750","","test","nogo","240","adv","","",""
"","228","32","1270","0","test_block","poldrack-single-stim","255","347424","0.0-5.0-241.0","go-nogo","false","0","","true","<div class = centerbox><div  id = stim1></div></div>","32","32","750","","test","go","241","adv","","",""
"","450","32","1281","0","test_block","poldrack-single-stim","256","348713","0.0-5.0-242.0","go-nogo","false","0","","true","<div class = centerbox><div  id = stim1></div></div>","32","32","750","","test","go","242","adv","","",""
"","269","32","1230","0","test_block","poldrack-single-stim","257","349953","0.0-5.0-243.0","go-nogo","false","0","","true","<div class = centerbox><div  id = stim1></div></div>","32","32","750","","test","go","243","adv","","",""
"","331","32","1480","0","test_block","poldrack-single-stim","258","351440","0.0-5.0-244.0","go-nogo","false","0","","true","<div class = centerbox><div  id = stim1></div></div>","32","32","750","","test","go","244","adv","","",""
"","318","32","1009","0","test_block","poldrack-single-stim","259","352459","0.0-5.0-245.0","go-nogo","false","0","","true","<div class = centerbox><div  id = stim1></div></div>","32","32","750","","test","go","245","adv","","",""
"","424","32","1384","0","test_block","poldrack-single-stim","260","353848","0.0-5.0-246.0","go-nogo","false","0","","true","<div class = centerbox><div  id = stim1></div></div>","32","32","750","","test","go","246","adv","","",""
"","-1","-1","1371","0","test_block","poldrack-single-stim","261","355229","0.0-5.0-247.0","go-nogo","false","0","","true","<div class = centerbox><div  id = stim2></div></div>","-1","32","750","","test","nogo","247","adv","","",""
"","293","32","1280","0","test_block","poldrack-single-stim","262","356517","0.0-5.0-248.0","go-nogo","false","0","","true","<div class = centerbox><div  id = stim1></div></div>","32","32","750","","test","go","248","adv","","",""
"","300","32","1119","0","test_block","poldrack-single-stim","263","357644","0.0-5.0-249.0","go-nogo","false","0","","true","<div class = centerbox><div  id = stim1></div></div>","32","32","750","","test","go","249","adv","","",""
"","322","32","1177","0","test_block","poldrack-single-stim","264","358828","0.0-5.0-250.0","go-nogo","false","0","","true","<div class = centerbox><div  id = stim1></div></div>","32","32","750","","test","go","250","adv","","",""
"","288","32","1075","0","test_block","poldrack-single-stim","265","359912","0.0-5.0-251.0","go-nogo","false","0","","true","<div class = centerbox><div  id = stim1></div></div>","32","32","750","","test","go","251","adv","","",""
"","367","32","1123","0","test_block","poldrack-single-stim","266","361045","0.0-5.0-252.0","go-nogo","false","0","","true","<div class = centerbox><div  id = stim1></div></div>","32","32","750","","test","go","252","adv","","",""
"","315","32","1080","0","test_block","poldrack-single-stim","267","362132","0.0-5.0-253.0","go-nogo","false","0","","true","<div class = centerbox><div  id = stim1></div></div>","32","32","750","","test","go","253","adv","","",""
"","308","32","1249","0","test_block","poldrack-single-stim","268","363392","0.0-5.0-254.0","go-nogo","false","0","","true","<div class = centerbox><div  id = stim1></div></div>","32","32","750","","test","go","254","adv","","",""
"","291","32","1471","0","test_block","poldrack-single-stim","269","364875","0.0-5.0-255.0","go-nogo","false","0","","true","<div class = centerbox><div  id = stim1></div></div>","32","32","750","","test","go","255","adv","","",""
"","297","32","1208","0","test_block","poldrack-single-stim","270","366093","0.0-5.0-256.0","go-nogo","false","0","","true","<div class = centerbox><div  id = stim1></div></div>","32","32","750","","test","go","256","adv","","",""
"","509","32","1197","0","test_block","poldrack-single-stim","271","367299","0.0-5.0-257.0","go-nogo","false","0","","true","<div class = centerbox><div  id = stim1></div></div>","32","32","750","","test","go","257","adv","","",""
"","357","32","1111","0","test_block","poldrack-single-stim","272","368416","0.0-5.0-258.0","go-nogo","false","0","","true","<div class = centerbox><div  id = stim1></div></div>","32","32","750","","test","go","258","adv","","",""
"","253","32","1431","0","test_block","poldrack-single-stim","273","369853","0.0-5.0-259.0","go-nogo","false","0","","true","<div class = centerbox><div  id = stim1></div></div>","32","32","750","","test","go","259","adv","","",""
"","384","32","1035","0","test_block","poldrack-single-stim","274","370897","0.0-5.0-260.0","go-nogo","false","0","","true","<div class = centerbox><div  id = stim1></div></div>","32","32","750","","test","go","260","adv","","",""
"","313","32","1071","0","test_block","poldrack-single-stim","275","371973","0.0-5.0-261.0","go-nogo","false","0","","true","<div class = centerbox><div  id = stim1></div></div>","32","32","750","","test","go","261","adv","","",""
"","-1","-1","1470","0","test_block","poldrack-single-stim","276","373453","0.0-5.0-262.0","go-nogo","false","0","","true","<div class = centerbox><div  id = stim2></div></div>","-1","32","750","","test","nogo","262","adv","","",""
"","281","32","1430","0","test_block","poldrack-single-stim","277","374888","0.0-5.0-263.0","go-nogo","false","0","","true","<div class = centerbox><div  id = stim1></div></div>","32","32","750","","test","go","263","adv","","",""
"","267","32","1448","0","test_block","poldrack-single-stim","278","376345","0.0-5.0-264.0","go-nogo","false","0","","true","<div class = centerbox><div  id = stim1></div></div>","32","32","750","","test","go","264","adv","","",""
"","286","32","1061","0","test_block","poldrack-single-stim","279","377412","0.0-5.0-265.0","go-nogo","false","0","","true","<div class = centerbox><div  id = stim1></div></div>","32","32","750","","test","go","265","adv","","",""
"","296","32","1443","0","test_block","poldrack-single-stim","280","378865","0.0-5.0-266.0","go-nogo","false","0","","true","<div class = centerbox><div  id = stim1></div></div>","32","32","750","","test","go","266","adv","","",""
"","270","32","1400","0","test_block","poldrack-single-stim","281","380272","0.0-5.0-267.0","go-nogo","false","0","","true","<div class = centerbox><div  id = stim1></div></div>","32","32","750","","test","go","267","adv","","",""
"","701","32","1471","0","test_block","poldrack-single-stim","282","381752","0.0-5.0-268.0","go-nogo","false","0","","true","<div class = centerbox><div  id = stim1></div></div>","32","32","750","","test","go","268","adv","","",""
"","279","32","1076","0","test_block","poldrack-single-stim","283","382836","0.0-5.0-269.0","go-nogo","false","0","","true","<div class = centerbox><div  id = stim1></div></div>","32","32","750","","test","go","269","adv","","",""
"","301","32","1429","0","test_block","poldrack-single-stim","284","384273","0.0-5.0-270.0","go-nogo","false","0","","true","<div class = centerbox><div  id = stim1></div></div>","32","32","750","","test","go","270","adv","","",""
"","180","32","1444","0","test_block","poldrack-single-stim","285","385722","0.0-5.0-271.0","go-nogo","false","0","","true","<div class = centerbox><div  id = stim1></div></div>","32","32","750","","test","go","271","adv","","",""
"","116","32","1375","0","test_block","poldrack-single-stim","286","387104","0.0-5.0-272.0","go-nogo","false","0","","true","<div class = centerbox><div  id = stim1></div></div>","32","32","750","","test","go","272","adv","","",""
"","270","32","1274","0","test_block","poldrack-single-stim","287","388384","0.0-5.0-273.0","go-nogo","false","0","","true","<div class = centerbox><div  id = stim1></div></div>","32","32","750","","test","go","273","adv","","",""
"","270","32","1296","0","test_block","poldrack-single-stim","288","389688","0.0-5.0-274.0","go-nogo","false","0","","true","<div class = centerbox><div  id = stim1></div></div>","32","32","750","","test","go","274","adv","","",""
"","58","32","1496","0","test_block","poldrack-single-stim","289","391192","0.0-5.0-275.0","go-nogo","false","0","","true","<div class = centerbox><div  id = stim1></div></div>","32","32","750","","test","go","275","adv","","",""
"","323","32","1412","0","test_block","poldrack-single-stim","290","392611","0.0-5.0-276.0","go-nogo","false","0","","true","<div class = centerbox><div  id = stim1></div></div>","32","32","750","","test","go","276","adv","","",""
"","373","32","1388","0","test_block","poldrack-single-stim","291","394004","0.0-5.0-277.0","go-nogo","false","0","","true","<div class = centerbox><div  id = stim1></div></div>","32","32","750","","test","go","277","adv","","",""
"","290","32","1045","0","test_block","poldrack-single-stim","292","395056","0.0-5.0-278.0","go-nogo","false","0","","false","<div class = centerbox><div  id = stim2></div></div>","-1","32","750","","test","nogo","278","adv","","",""
"","396","32","1320","0","test_block","poldrack-single-stim","293","396388","0.0-5.0-279.0","go-nogo","false","0","","true","<div class = centerbox><div  id = stim1></div></div>","32","32","750","","test","go","279","adv","","",""
"","312","32","1023","0","test_block","poldrack-single-stim","294","397420","0.0-5.0-280.0","go-nogo","false","0","","true","<div class = centerbox><div  id = stim1></div></div>","32","32","750","","test","go","280","adv","","",""
"","261","32","1322","0","test_block","poldrack-single-stim","295","398748","0.0-5.0-281.0","go-nogo","false","0","","false","<div class = centerbox><div  id = stim2></div></div>","-1","32","750","","test","nogo","281","adv","","",""
"","252","32","1489","0","test_block","poldrack-single-stim","296","400243","0.0-5.0-282.0","go-nogo","false","0","","true","<div class = centerbox><div  id = stim1></div></div>","32","32","750","","test","go","282","adv","","",""
"","-1","-1","1068","0","test_block","poldrack-single-stim","297","401320","0.0-5.0-283.0","go-nogo","false","0","","true","<div class = centerbox><div  id = stim2></div></div>","-1","32","750","","test","nogo","283","adv","","",""
"","333","32","1041","0","test_block","poldrack-single-stim","298","402368","0.0-5.0-284.0","go-nogo","false","0","","true","<div class = centerbox><div  id = stim1></div></div>","32","32","750","","test","go","284","adv","","",""
"","286","32","1363","0","test_block","poldrack-single-stim","299","403736","0.0-5.0-285.0","go-nogo","false","0","","true","<div class = centerbox><div  id = stim1></div></div>","32","32","750","","test","go","285","adv","","",""
"","239","32","1461","0","test_block","poldrack-single-stim","300","405203","0.0-5.0-286.0","go-nogo","false","0","","false","<div class = centerbox><div  id = stim2></div></div>","-1","32","750","","test","nogo","286","adv","","",""
"","302","32","1284","0","test_block","poldrack-single-stim","301","406496","0.0-5.0-287.0","go-nogo","false","0","","true","<div class = centerbox><div  id = stim1></div></div>","32","32","750","","test","go","287","adv","","",""
"","254","32","1223","0","test_block","poldrack-single-stim","302","407732","0.0-5.0-288.0","go-nogo","false","0","","false","<div class = centerbox><div  id = stim2></div></div>","-1","32","750","","test","nogo","288","adv","","",""
"","-1","-1","1397","0","test_block","poldrack-single-stim","303","409138","0.0-5.0-289.0","go-nogo","false","0","","true","<div class = centerbox><div  id = stim2></div></div>","-1","32","750","","test","nogo","289","adv","","",""
"","341","32","1055","0","test_block","poldrack-single-stim","304","410199","0.0-5.0-290.0","go-nogo","false","0","","true","<div class = centerbox><div  id = stim1></div></div>","32","32","750","","test","go","290","adv","","",""
"","-1","-1","1429","0","test_block","poldrack-single-stim","305","411639","0.0-5.0-291.0","go-nogo","false","0","","true","<div class = centerbox><div  id = stim2></div></div>","-1","32","750","","test","nogo","291","adv","","",""
"","281","32","1102","0","test_block","poldrack-single-stim","306","412747","0.0-5.0-292.0","go-nogo","false","0","","true","<div class = centerbox><div  id = stim1></div></div>","32","32","750","","test","go","292","adv","","",""
"","307","32","1307","0","test_block","poldrack-single-stim","307","414064","0.0-5.0-293.0","go-nogo","false","0","","true","<div class = centerbox><div  id = stim1></div></div>","32","32","750","","test","go","293","adv","","",""
"","-1","-1","1242","0","test_block","poldrack-single-stim","308","415312","0.0-5.0-294.0","go-nogo","false","0","","true","<div class = centerbox><div  id = stim2></div></div>","-1","32","750","","test","nogo","294","adv","","",""
"","252","32","1076","0","test_block","poldrack-single-stim","309","416395","0.0-5.0-295.0","go-nogo","false","0","","true","<div class = centerbox><div  id = stim1></div></div>","32","32","750","","test","go","295","adv","","",""
"","264","32","1059","0","test_block","poldrack-single-stim","310","417462","0.0-5.0-296.0","go-nogo","false","0","","true","<div class = centerbox><div  id = stim1></div></div>","32","32","750","","test","go","296","adv","","",""
"","-1","-1","1272","0","test_block","poldrack-single-stim","311","418744","0.0-5.0-297.0","go-nogo","false","0","","true","<div class = centerbox><div  id = stim2></div></div>","-1","32","750","","test","nogo","297","adv","","",""
"","302","32","1185","0","test_block","poldrack-single-stim","312","419936","0.0-5.0-298.0","go-nogo","false","0","","true","<div class = centerbox><div  id = stim1></div></div>","32","32","750","","test","go","298","adv","","",""
"","268","32","1347","0","test_block","poldrack-single-stim","313","421288","0.0-5.0-299.0","go-nogo","false","0","","true","<div class = centerbox><div  id = stim1></div></div>","32","32","750","","test","go","299","adv","","",""
"","260","32","1368","0","test_block","poldrack-single-stim","314","422664","0.0-5.0-300.0","go-nogo","false","0","","true","<div class = centerbox><div  id = stim1></div></div>","32","32","750","","test","go","300","adv","","",""
"","-1","-1","1003","0","test_block","poldrack-single-stim","315","423675","0.0-5.0-301.0","go-nogo","false","0","","true","<div class = centerbox><div  id = stim2></div></div>","-1","32","750","","test","nogo","301","adv","","",""
"","449","32","1324","0","test_block","poldrack-single-stim","316","425008","0.0-5.0-302.0","go-nogo","false","0","","true","<div class = centerbox><div  id = stim1></div></div>","32","32","750","","test","go","302","adv","","",""
"","254","32","1113","0","test_block","poldrack-single-stim","317","426127","0.0-5.0-303.0","go-nogo","false","0","","true","<div class = centerbox><div  id = stim1></div></div>","32","32","750","","test","go","303","adv","","",""
"","260","32","1416","0","test_block","poldrack-single-stim","318","427551","0.0-5.0-304.0","go-nogo","false","0","","true","<div class = centerbox><div  id = stim1></div></div>","32","32","750","","test","go","304","adv","","",""
"","152","32","1233","0","test_block","poldrack-single-stim","319","428791","0.0-5.0-305.0","go-nogo","false","0","","true","<div class = centerbox><div  id = stim1></div></div>","32","32","750","","test","go","305","adv","","",""
"","298","32","1224","0","test_block","poldrack-single-stim","320","430023","0.0-5.0-306.0","go-nogo","false","0","","true","<div class = centerbox><div  id = stim1></div></div>","32","32","750","","test","go","306","adv","","",""
"","286","32","1018","0","test_block","poldrack-single-stim","321","431048","0.0-5.0-307.0","go-nogo","false","0","","true","<div class = centerbox><div  id = stim1></div></div>","32","32","750","","test","go","307","adv","","",""
"","361","32","1009","0","test_block","poldrack-single-stim","322","432063","0.0-5.0-308.0","go-nogo","false","0","","true","<div class = centerbox><div  id = stim1></div></div>","32","32","750","","test","go","308","adv","","",""
"","351","32","1484","0","test_block","poldrack-single-stim","323","433555","0.0-5.0-309.0","go-nogo","false","0","","true","<div class = centerbox><div  id = stim1></div></div>","32","32","750","","test","go","309","adv","","",""
"","208","32","1374","0","test_block","poldrack-single-stim","324","434937","0.0-5.0-310.0","go-nogo","false","0","","false","<div class = centerbox><div  id = stim2></div></div>","-1","32","750","","test","nogo","310","adv","","",""
"","405","32","1161","0","test_block","poldrack-single-stim","325","436107","0.0-5.0-311.0","go-nogo","false","0","","true","<div class = centerbox><div  id = stim1></div></div>","32","32","750","","test","go","311","adv","","",""
"","275","32","1069","0","test_block","poldrack-single-stim","326","437183","0.0-5.0-312.0","go-nogo","false","0","","true","<div class = centerbox><div  id = stim1></div></div>","32","32","750","","test","go","312","adv","","",""
"","-1","-1","1101","0","test_block","poldrack-single-stim","327","438291","0.0-5.0-313.0","go-nogo","false","0","","true","<div class = centerbox><div  id = stim2></div></div>","-1","32","750","","test","nogo","313","adv","","",""
"","273","32","1043","0","test_block","poldrack-single-stim","328","439343","0.0-5.0-314.0","go-nogo","false","0","","true","<div class = centerbox><div  id = stim1></div></div>","32","32","750","","test","go","314","adv","","",""
"","274","32","1381","0","test_block","poldrack-single-stim","329","440731","0.0-5.0-315.0","go-nogo","false","0","","true","<div class = centerbox><div  id = stim1></div></div>","32","32","750","","test","go","315","adv","","",""
"","195","32","1281","0","test_block","poldrack-single-stim","330","442021","0.0-5.0-316.0","go-nogo","false","0","","false","<div class = centerbox><div  id = stim2></div></div>","-1","32","750","","test","nogo","316","adv","","",""
"","278","32","1398","0","test_block","poldrack-single-stim","331","443427","0.0-5.0-317.0","go-nogo","false","0","","false","<div class = centerbox><div  id = stim2></div></div>","-1","32","750","","test","nogo","317","adv","","",""
"","105","32","1252","0","test_block","poldrack-single-stim","332","444687","0.0-5.0-318.0","go-nogo","false","0","","false","<div class = centerbox><div  id = stim2></div></div>","-1","32","750","","test","nogo","318","adv","","",""
"","-1","-1","1335","0","test_block","poldrack-single-stim","333","446026","0.0-5.0-319.0","go-nogo","false","0","","true","<div class = centerbox><div  id = stim2></div></div>","-1","32","750","","test","nogo","319","adv","","",""
"","349","32","1236","0","test_block","poldrack-single-stim","334","447269","0.0-5.0-320.0","go-nogo","false","0","","true","<div class = centerbox><div  id = stim1></div></div>","32","32","750","","test","go","320","adv","","",""
"","256","32","1499","0","test_block","poldrack-single-stim","335","448775","0.0-5.0-321.0","go-nogo","false","0","","true","<div class = centerbox><div  id = stim1></div></div>","32","32","750","","test","go","321","adv","","",""
"","263","32","1384","0","test_block","poldrack-single-stim","336","450167","0.0-5.0-322.0","go-nogo","false","0","","true","<div class = centerbox><div  id = stim1></div></div>","32","32","750","","test","go","322","adv","","",""
"","-1","-1","1234","0","test_block","poldrack-single-stim","337","451407","0.0-5.0-323.0","go-nogo","false","0","","true","<div class = centerbox><div  id = stim2></div></div>","-1","32","750","","test","nogo","323","adv","","",""
"","193","32","1465","0","test_block","poldrack-single-stim","338","452879","0.0-5.0-324.0","go-nogo","false","0","","true","<div class = centerbox><div  id = stim1></div></div>","32","32","750","","test","go","324","adv","","",""
"","229","32","1332","0","test_block","poldrack-single-stim","339","454220","0.0-5.0-325.0","go-nogo","false","0","","true","<div class = centerbox><div  id = stim1></div></div>","32","32","750","","test","go","325","adv","","",""
"","252","32","1224","0","test_block","poldrack-single-stim","340","455451","0.0-5.0-326.0","go-nogo","false","0","","true","<div class = centerbox><div  id = stim1></div></div>","32","32","750","","test","go","326","adv","","",""
"","255","32","1171","0","test_block","poldrack-single-stim","341","456630","0.0-5.0-327.0","go-nogo","false","0","","true","<div class = centerbox><div  id = stim1></div></div>","32","32","750","","test","go","327","adv","","",""
"","260","32","1457","0","test_block","poldrack-single-stim","342","458095","0.0-5.0-328.0","go-nogo","false","0","","true","<div class = centerbox><div  id = stim1></div></div>","32","32","750","","test","go","328","adv","","",""
"","241","32","1224","0","test_block","poldrack-single-stim","343","459331","0.0-5.0-329.0","go-nogo","false","0","","true","<div class = centerbox><div  id = stim1></div></div>","32","32","750","","test","go","329","adv","","",""
"","229","32","1309","0","test_block","poldrack-single-stim","344","460646","0.0-5.0-330.0","go-nogo","false","0","","true","<div class = centerbox><div  id = stim1></div></div>","32","32","750","","test","go","330","adv","","",""
"","305","32","1364","0","test_block","poldrack-single-stim","345","462017","0.0-5.0-331.0","go-nogo","false","0","","true","<div class = centerbox><div  id = stim1></div></div>","32","32","750","","test","go","331","adv","","",""
"","318","32","1232","0","test_block","poldrack-single-stim","346","463261","0.0-5.0-332.0","go-nogo","false","0","","true","<div class = centerbox><div  id = stim1></div></div>","32","32","750","","test","go","332","adv","","",""
"","308","32","1486","0","test_block","poldrack-single-stim","347","464756","0.0-5.0-333.0","go-nogo","false","0","","true","<div class = centerbox><div  id = stim1></div></div>","32","32","750","","test","go","333","adv","","",""
"","264","32","1418","0","test_block","poldrack-single-stim","348","466179","0.0-5.0-334.0","go-nogo","false","0","","true","<div class = centerbox><div  id = stim1></div></div>","32","32","750","","test","go","334","adv","","",""
"","154","32","1006","0","test_block","poldrack-single-stim","349","467194","0.0-5.0-335.0","go-nogo","false","0","","true","<div class = centerbox><div  id = stim1></div></div>","32","32","750","","test","go","335","adv","","",""
"","421","32","1416","0","test_block","poldrack-single-stim","350","468618","0.0-5.0-336.0","go-nogo","false","0","","true","<div class = centerbox><div  id = stim1></div></div>","32","32","750","","test","go","336","adv","","",""
"","653","32","1284","0","test_block","poldrack-single-stim","351","469910","0.0-5.0-337.0","go-nogo","false","0","","true","<div class = centerbox><div  id = stim1></div></div>","32","32","750","","test","go","337","adv","","",""
"","316","32","1046","0","test_block","poldrack-single-stim","352","470967","0.0-5.0-338.0","go-nogo","false","0","","true","<div class = centerbox><div  id = stim1></div></div>","32","32","750","","test","go","338","adv","","",""
"","262","32","1441","0","test_block","poldrack-single-stim","353","472418","0.0-5.0-339.0","go-nogo","false","0","","true","<div class = centerbox><div  id = stim1></div></div>","32","32","750","","test","go","339","adv","","",""
"","247","32","1132","0","test_block","poldrack-single-stim","354","473559","0.0-5.0-340.0","go-nogo","false","0","","true","<div class = centerbox><div  id = stim1></div></div>","32","32","750","","test","go","340","adv","","",""
"","318","32","1157","0","test_block","poldrack-single-stim","355","474722","0.0-5.0-341.0","go-nogo","false","0","","true","<div class = centerbox><div  id = stim1></div></div>","32","32","750","","test","go","341","adv","","",""
"","295","32","1499","0","test_block","poldrack-single-stim","356","476230","0.0-5.0-342.0","go-nogo","false","0","","true","<div class = centerbox><div  id = stim1></div></div>","32","32","750","","test","go","342","adv","","",""
"","265","32","1469","0","test_block","poldrack-single-stim","357","477713","0.0-5.0-343.0","go-nogo","false","0","","true","<div class = centerbox><div  id = stim1></div></div>","32","32","750","","test","go","343","adv","","",""
"","28","32","1117","0","test_block","poldrack-single-stim","358","478836","0.0-5.0-344.0","go-nogo","false","0","","true","<div class = centerbox><div  id = stim1></div></div>","32","32","750","","test","go","344","adv","","",""
"","214","32","1212","0","test_block","poldrack-single-stim","359","480054","0.0-5.0-345.0","go-nogo","false","0","","true","<div class = centerbox><div  id = stim1></div></div>","32","32","750","","test","go","345","adv","","",""
"","462","32","1439","0","test_block","poldrack-single-stim","360","481502","0.0-5.0-346.0","go-nogo","false","0","","true","<div class = centerbox><div  id = stim1></div></div>","32","32","750","","test","go","346","adv","","",""
"","215","32","1176","0","test_block","poldrack-single-stim","361","482687","0.0-5.0-347.0","go-nogo","false","0","","false","<div class = centerbox><div  id = stim2></div></div>","-1","32","750","","test","nogo","347","adv","","",""
"","336","32","1417","0","test_block","poldrack-single-stim","362","484112","0.0-5.0-348.0","go-nogo","false","0","","true","<div class = centerbox><div  id = stim1></div></div>","32","32","750","","test","go","348","adv","","",""
"","246","32","1148","0","test_block","poldrack-single-stim","363","485266","0.0-5.0-349.0","go-nogo","false","0","","true","<div class = centerbox><div  id = stim1></div></div>","32","32","750","","test","go","349","adv","","",""
"","22930","","","","post task questions","survey-text","364","508206","0.0-7.0","go-nogo","false","0","","","","","","","","","","","","{""Q0"":""Respond as fast as possible for the orange, and not the blue."",""Q1"":""It was extremely long and as such very underpaid.""}","",""
"<div class = centerbox><p class = center-block-text>Thanks for completing this task!</p><p class = center-block-text>Insert the following code to collect your payment at Amazon Mechanical Turk:</p><p class = center-block-text>440902317</p><p class = center-block-text>Press <strong>enter</strong> to continue.</p></div>","2393","13","2393","0","end","poldrack-text","365","511603","0.0-8.0","go-nogo","false","0","","","","","","","","","","","","","440902317","true"
