"text","rt","key_press","block_duration","timing_post_trial","trial_id","trial_type","trial_index","time_elapsed","internal_node_id","exp_id","full_screen","focus_shifts","view_history","correct","stimulus","correct_response","possible_responses","stim_duration","feedback_duration","exp_stage","condition","trial_num","mode","responses","payment_id","credit_var"
"<div class = centerbox><p class = center-block-text>Welcome to the experiment. This task will take around 10 minutes. Press <strong>enter</strong> to begin.</p></div>","5891","13","5891","0","instruction","poldrack-text","0","5896","0.0-0.0-0.0","go-nogo","true","0","","","","","","","","","","","","","",""
"","13943","","","","instruction","poldrack-instructions","1","19853","0.0-0.0-1.0","go-nogo","true","0","[{""page_index"":0,""viewing_time"":13941}]","","","","","","","","","","","","",""
"","-1","-1","1466","250","practice","poldrack-categorize","2","23340","0.0-1.0-0.0","go-nogo","true","0","","true","<div class = centerbox><div id = stim1></div></div>","-1","32","750","1000","practice","nogo","0","adv","","",""
"","-1","-1","1406","250","practice","poldrack-categorize","3","26011","0.0-1.0-1.0","go-nogo","true","0","","true","<div class = centerbox><div id = stim1></div></div>","-1","32","750","1000","practice","nogo","1","adv","","",""
"","-1","-1","1061","250","practice","poldrack-categorize","4","28332","0.0-1.0-2.0","go-nogo","true","0","","true","<div class = centerbox><div id = stim1></div></div>","-1","32","750","1000","practice","nogo","2","adv","","",""
"","494","32","1130","250","practice","poldrack-categorize","5","30724","0.0-1.0-3.0","go-nogo","true","0","","true","<div class = centerbox><div  id = stim2></div></div>","32","32","750","1000","practice","go","3","adv","","",""
"","594","32","1351","250","practice","poldrack-categorize","6","33343","0.0-1.0-4.0","go-nogo","true","0","","true","<div class = centerbox><div  id = stim2></div></div>","32","32","750","1000","practice","go","4","adv","","",""
"","-1","-1","1198","250","practice","poldrack-categorize","7","35810","0.0-1.0-5.0","go-nogo","true","0","","true","<div class = centerbox><div id = stim1></div></div>","-1","32","750","1000","practice","nogo","5","adv","","",""
"","388","32","1274","250","practice","poldrack-categorize","8","38345","0.0-1.0-6.0","go-nogo","true","0","","true","<div class = centerbox><div  id = stim2></div></div>","32","32","750","1000","practice","go","6","adv","","",""
"","-1","-1","1234","250","practice","poldrack-categorize","9","40837","0.0-1.0-7.0","go-nogo","true","0","","true","<div class = centerbox><div id = stim1></div></div>","-1","32","750","1000","practice","nogo","7","adv","","",""
"","429","32","1311","250","practice","poldrack-categorize","10","43408","0.0-1.0-8.0","go-nogo","true","0","","true","<div class = centerbox><div  id = stim2></div></div>","32","32","750","1000","practice","go","8","adv","","",""
"","695","32","1305","250","practice","poldrack-categorize","11","45969","0.0-1.0-9.0","go-nogo","true","0","","true","<div class = centerbox><div  id = stim2></div></div>","32","32","750","1000","practice","go","9","adv","","",""
"","","","","","reset_trial","call-function","12","46222","0.0-3.0","go-nogo","true","0","","","","","","","","","","","","","",""
"<div class = centerbox><p class = block-text>Practice is over, we will now begin the experiment. You will no longer get feedback about your responses.</p><p class = block-text>Remember, if you see the <font color=""blue"">blue</font> square you should <strong> respond by pressing the spacebar as quickly as possible</strong>. If you see the <font color=""orange"">orange</font> square you should <strong> not respond</strong>. Press <strong>enter</strong> to begin.</p></div>","28689","13","28689","1000","test_intro","poldrack-text","13","74916","0.0-4.0","go-nogo","false","1","","","","","","","","","","","","","",""
"","-1","-1","1345","0","test_block","poldrack-single-stim","14","77266","0.0-5.0-0.0","go-nogo","false","0","","false","<div class = centerbox><div  id = stim2></div></div>","32","32","750","","test","go","0","adv","","",""
"","368","32","1184","0","test_block","poldrack-single-stim","15","78794","0.0-5.0-1.0","go-nogo","false","0","","true","<div class = centerbox><div  id = stim2></div></div>","32","32","750","","test","go","1","adv","","",""
"","396","32","1359","0","test_block","poldrack-single-stim","16","80385","0.0-5.0-2.0","go-nogo","false","0","","false","<div class = centerbox><div  id = stim1></div></div>","-1","32","750","","test","nogo","2","adv","","",""
"","-1","-1","1375","0","test_block","poldrack-single-stim","17","81961","0.0-5.0-3.0","go-nogo","false","0","","true","<div class = centerbox><div  id = stim1></div></div>","-1","32","750","","test","nogo","3","adv","","",""
"","352","32","1471","0","test_block","poldrack-single-stim","18","83685","0.0-5.0-4.0","go-nogo","false","0","","true","<div class = centerbox><div  id = stim2></div></div>","32","32","750","","test","go","4","adv","","",""
"","413","32","1482","0","test_block","poldrack-single-stim","19","85394","0.0-5.0-5.0","go-nogo","false","0","","true","<div class = centerbox><div  id = stim2></div></div>","32","32","750","","test","go","5","adv","","",""
"","363","32","1335","0","test_block","poldrack-single-stim","20","86953","0.0-5.0-6.0","go-nogo","false","0","","true","<div class = centerbox><div  id = stim2></div></div>","32","32","750","","test","go","6","adv","","",""
"","395","32","1126","0","test_block","poldrack-single-stim","21","88297","0.0-5.0-7.0","go-nogo","false","0","","true","<div class = centerbox><div  id = stim2></div></div>","32","32","750","","test","go","7","adv","","",""
"","349","32","1123","0","test_block","poldrack-single-stim","22","89589","0.0-5.0-8.0","go-nogo","false","0","","true","<div class = centerbox><div  id = stim2></div></div>","32","32","750","","test","go","8","adv","","",""
"","306","32","1061","0","test_block","poldrack-single-stim","23","90770","0.0-5.0-9.0","go-nogo","false","0","","true","<div class = centerbox><div  id = stim2></div></div>","32","32","750","","test","go","9","adv","","",""
"","291","32","1208","0","test_block","poldrack-single-stim","24","92153","0.0-5.0-10.0","go-nogo","false","0","","true","<div class = centerbox><div  id = stim2></div></div>","32","32","750","","test","go","10","adv","","",""
"","294","32","1025","0","test_block","poldrack-single-stim","25","93300","0.0-5.0-11.0","go-nogo","false","0","","true","<div class = centerbox><div  id = stim2></div></div>","32","32","750","","test","go","11","adv","","",""
"","301","32","1147","0","test_block","poldrack-single-stim","26","94629","0.0-5.0-12.0","go-nogo","false","0","","true","<div class = centerbox><div  id = stim2></div></div>","32","32","750","","test","go","12","adv","","",""
"","291","32","1069","0","test_block","poldrack-single-stim","27","95827","0.0-5.0-13.0","go-nogo","false","0","","true","<div class = centerbox><div  id = stim2></div></div>","32","32","750","","test","go","13","adv","","",""
"","351","32","1372","0","test_block","poldrack-single-stim","28","97344","0.0-5.0-14.0","go-nogo","false","0","","true","<div class = centerbox><div  id = stim2></div></div>","32","32","750","","test","go","14","adv","","",""
"","284","32","1203","0","test_block","poldrack-single-stim","29","98726","0.0-5.0-15.0","go-nogo","false","0","","true","<div class = centerbox><div  id = stim2></div></div>","32","32","750","","test","go","15","adv","","",""
"","341","32","1366","0","test_block","poldrack-single-stim","30","100216","0.0-5.0-16.0","go-nogo","false","0","","true","<div class = centerbox><div  id = stim2></div></div>","32","32","750","","test","go","16","adv","","",""
"","303","32","1137","0","test_block","poldrack-single-stim","31","101512","0.0-5.0-17.0","go-nogo","false","0","","true","<div class = centerbox><div  id = stim2></div></div>","32","32","750","","test","go","17","adv","","",""
"","432","32","1359","0","test_block","poldrack-single-stim","32","102997","0.0-5.0-18.0","go-nogo","false","0","","true","<div class = centerbox><div  id = stim2></div></div>","32","32","750","","test","go","18","adv","","",""
"","373","32","1192","0","test_block","poldrack-single-stim","33","104326","0.0-5.0-19.0","go-nogo","false","0","","true","<div class = centerbox><div  id = stim2></div></div>","32","32","750","","test","go","19","adv","","",""
"","247","32","1316","0","test_block","poldrack-single-stim","34","105796","0.0-5.0-20.0","go-nogo","false","0","","true","<div class = centerbox><div  id = stim2></div></div>","32","32","750","","test","go","20","adv","","",""
"","332","32","1406","0","test_block","poldrack-single-stim","35","107343","0.0-5.0-21.0","go-nogo","false","0","","true","<div class = centerbox><div  id = stim2></div></div>","32","32","750","","test","go","21","adv","","",""
"","93","32","1276","0","test_block","poldrack-single-stim","36","108778","0.0-5.0-22.0","go-nogo","false","0","","true","<div class = centerbox><div  id = stim2></div></div>","32","32","750","","test","go","22","adv","","",""
"","109","32","1407","0","test_block","poldrack-single-stim","37","110330","0.0-5.0-23.0","go-nogo","false","0","","true","<div class = centerbox><div  id = stim2></div></div>","32","32","750","","test","go","23","adv","","",""
"","180","32","1470","0","test_block","poldrack-single-stim","38","111938","0.0-5.0-24.0","go-nogo","false","0","","true","<div class = centerbox><div  id = stim2></div></div>","32","32","750","","test","go","24","adv","","",""
"","372","32","1399","0","test_block","poldrack-single-stim","39","113488","0.0-5.0-25.0","go-nogo","false","0","","true","<div class = centerbox><div  id = stim2></div></div>","32","32","750","","test","go","25","adv","","",""
"","313","32","1255","0","test_block","poldrack-single-stim","40","114852","0.0-5.0-26.0","go-nogo","false","0","","true","<div class = centerbox><div  id = stim2></div></div>","32","32","750","","test","go","26","adv","","",""
"","280","32","1135","0","test_block","poldrack-single-stim","41","116132","0.0-5.0-27.0","go-nogo","false","0","","true","<div class = centerbox><div  id = stim2></div></div>","32","32","750","","test","go","27","adv","","",""
"","303","32","1116","0","test_block","poldrack-single-stim","42","117366","0.0-5.0-28.0","go-nogo","false","0","","true","<div class = centerbox><div  id = stim2></div></div>","32","32","750","","test","go","28","adv","","",""
"","313","32","1165","0","test_block","poldrack-single-stim","43","118657","0.0-5.0-29.0","go-nogo","false","0","","true","<div class = centerbox><div  id = stim2></div></div>","32","32","750","","test","go","29","adv","","",""
"","305","32","1140","0","test_block","poldrack-single-stim","44","119907","0.0-5.0-30.0","go-nogo","false","0","","true","<div class = centerbox><div  id = stim2></div></div>","32","32","750","","test","go","30","adv","","",""
"","806","32","1499","0","test_block","poldrack-single-stim","45","121548","0.0-5.0-31.0","go-nogo","false","0","","true","<div class = centerbox><div  id = stim2></div></div>","32","32","750","","test","go","31","adv","","",""
"","381","32","1253","0","test_block","poldrack-single-stim","46","122964","0.0-5.0-32.0","go-nogo","false","0","","true","<div class = centerbox><div  id = stim2></div></div>","32","32","750","","test","go","32","adv","","",""
"","500","32","1221","0","test_block","poldrack-single-stim","47","124300","0.0-5.0-33.0","go-nogo","false","0","","true","<div class = centerbox><div  id = stim2></div></div>","32","32","750","","test","go","33","adv","","",""
"","-1","-1","1027","0","test_block","poldrack-single-stim","48","125462","0.0-5.0-34.0","go-nogo","false","0","","false","<div class = centerbox><div  id = stim2></div></div>","32","32","750","","test","go","34","adv","","",""
"","-1","-1","1144","0","test_block","poldrack-single-stim","49","126756","0.0-5.0-35.0","go-nogo","false","0","","false","<div class = centerbox><div  id = stim2></div></div>","32","32","750","","test","go","35","adv","","",""
"","-1","-1","1421","0","test_block","poldrack-single-stim","50","128297","0.0-5.0-36.0","go-nogo","false","0","","false","<div class = centerbox><div  id = stim2></div></div>","32","32","750","","test","go","36","adv","","",""
"","5","32","1492","0","test_block","poldrack-single-stim","51","129943","0.0-5.0-37.0","go-nogo","false","0","","true","<div class = centerbox><div  id = stim2></div></div>","32","32","750","","test","go","37","adv","","",""
"","-1","-1","1022","0","test_block","poldrack-single-stim","52","131097","0.0-5.0-38.0","go-nogo","false","0","","true","<div class = centerbox><div  id = stim1></div></div>","-1","32","750","","test","nogo","38","adv","","",""
"","586","32","1143","0","test_block","poldrack-single-stim","53","132366","0.0-5.0-39.0","go-nogo","false","0","","true","<div class = centerbox><div  id = stim2></div></div>","32","32","750","","test","go","39","adv","","",""
"","369","32","1389","0","test_block","poldrack-single-stim","54","133911","0.0-5.0-40.0","go-nogo","false","0","","false","<div class = centerbox><div  id = stim1></div></div>","-1","32","750","","test","nogo","40","adv","","",""
"","287","32","1395","0","test_block","poldrack-single-stim","55","135455","0.0-5.0-41.0","go-nogo","false","0","","false","<div class = centerbox><div  id = stim1></div></div>","-1","32","750","","test","nogo","41","adv","","",""
"","-1","-1","1169","0","test_block","poldrack-single-stim","56","136770","0.0-5.0-42.0","go-nogo","false","0","","true","<div class = centerbox><div  id = stim1></div></div>","-1","32","750","","test","nogo","42","adv","","",""
"","562","32","1425","0","test_block","poldrack-single-stim","57","138341","0.0-5.0-43.0","go-nogo","false","0","","true","<div class = centerbox><div  id = stim2></div></div>","32","32","750","","test","go","43","adv","","",""
"","282","32","1375","0","test_block","poldrack-single-stim","58","139835","0.0-5.0-44.0","go-nogo","false","0","","true","<div class = centerbox><div  id = stim2></div></div>","32","32","750","","test","go","44","adv","","",""
"","323","32","1424","0","test_block","poldrack-single-stim","59","141394","0.0-5.0-45.0","go-nogo","false","0","","true","<div class = centerbox><div  id = stim2></div></div>","32","32","750","","test","go","45","adv","","",""
"","313","32","1005","0","test_block","poldrack-single-stim","60","142551","0.0-5.0-46.0","go-nogo","false","0","","true","<div class = centerbox><div  id = stim2></div></div>","32","32","750","","test","go","46","adv","","",""
"","407","32","1446","0","test_block","poldrack-single-stim","61","144130","0.0-5.0-47.0","go-nogo","false","0","","true","<div class = centerbox><div  id = stim2></div></div>","32","32","750","","test","go","47","adv","","",""
"","347","32","1471","0","test_block","poldrack-single-stim","62","145741","0.0-5.0-48.0","go-nogo","false","0","","true","<div class = centerbox><div  id = stim2></div></div>","32","32","750","","test","go","48","adv","","",""
"","383","32","1326","0","test_block","poldrack-single-stim","63","147199","0.0-5.0-49.0","go-nogo","false","0","","true","<div class = centerbox><div  id = stim2></div></div>","32","32","750","","test","go","49","adv","","",""
"","384","32","1196","0","test_block","poldrack-single-stim","64","148530","0.0-5.0-50.0","go-nogo","false","0","","true","<div class = centerbox><div  id = stim2></div></div>","32","32","750","","test","go","50","adv","","",""
"","345","32","1268","0","test_block","poldrack-single-stim","65","149945","0.0-5.0-51.0","go-nogo","false","0","","true","<div class = centerbox><div  id = stim2></div></div>","32","32","750","","test","go","51","adv","","",""
"","343","32","1249","0","test_block","poldrack-single-stim","66","151331","0.0-5.0-52.0","go-nogo","false","0","","true","<div class = centerbox><div  id = stim2></div></div>","32","32","750","","test","go","52","adv","","",""
"","436","32","1274","0","test_block","poldrack-single-stim","67","152847","0.0-5.0-53.0","go-nogo","false","0","","true","<div class = centerbox><div  id = stim2></div></div>","32","32","750","","test","go","53","adv","","",""
"","270","32","1495","0","test_block","poldrack-single-stim","68","154461","0.0-5.0-54.0","go-nogo","false","0","","true","<div class = centerbox><div  id = stim2></div></div>","32","32","750","","test","go","54","adv","","",""
"","389","32","1404","0","test_block","poldrack-single-stim","69","156015","0.0-5.0-55.0","go-nogo","false","0","","true","<div class = centerbox><div  id = stim2></div></div>","32","32","750","","test","go","55","adv","","",""
"","189","32","1246","0","test_block","poldrack-single-stim","70","157408","0.0-5.0-56.0","go-nogo","false","0","","true","<div class = centerbox><div  id = stim2></div></div>","32","32","750","","test","go","56","adv","","",""
"","419","32","1467","0","test_block","poldrack-single-stim","71","159040","0.0-5.0-57.0","go-nogo","false","0","","true","<div class = centerbox><div  id = stim2></div></div>","32","32","750","","test","go","57","adv","","",""
"","0","32","1000","0","test_block","poldrack-single-stim","72","160179","0.0-5.0-58.0","go-nogo","false","0","","true","<div class = centerbox><div  id = stim2></div></div>","32","32","750","","test","go","58","adv","","",""
"","449","32","1318","0","test_block","poldrack-single-stim","73","161610","0.0-5.0-59.0","go-nogo","false","0","","true","<div class = centerbox><div  id = stim2></div></div>","32","32","750","","test","go","59","adv","","",""
"","605","32","1084","0","test_block","poldrack-single-stim","74","162840","0.0-5.0-60.0","go-nogo","false","0","","true","<div class = centerbox><div  id = stim2></div></div>","32","32","750","","test","go","60","adv","","",""
"","752","32","1307","0","test_block","poldrack-single-stim","75","164289","0.0-5.0-61.0","go-nogo","false","0","","true","<div class = centerbox><div  id = stim2></div></div>","32","32","750","","test","go","61","adv","","",""
"","474","32","1332","0","test_block","poldrack-single-stim","76","165734","0.0-5.0-62.0","go-nogo","false","0","","true","<div class = centerbox><div  id = stim2></div></div>","32","32","750","","test","go","62","adv","","",""
"","279","32","1005","0","test_block","poldrack-single-stim","77","166908","0.0-5.0-63.0","go-nogo","false","0","","true","<div class = centerbox><div  id = stim2></div></div>","32","32","750","","test","go","63","adv","","",""
"","398","32","1409","0","test_block","poldrack-single-stim","78","168444","0.0-5.0-64.0","go-nogo","false","0","","true","<div class = centerbox><div  id = stim2></div></div>","32","32","750","","test","go","64","adv","","",""
"","327","32","1449","0","test_block","poldrack-single-stim","79","170045","0.0-5.0-65.0","go-nogo","false","0","","true","<div class = centerbox><div  id = stim2></div></div>","32","32","750","","test","go","65","adv","","",""
"","271","32","1241","0","test_block","poldrack-single-stim","80","171404","0.0-5.0-66.0","go-nogo","false","0","","true","<div class = centerbox><div  id = stim2></div></div>","32","32","750","","test","go","66","adv","","",""
"","417","32","1259","0","test_block","poldrack-single-stim","81","172809","0.0-5.0-67.0","go-nogo","false","0","","true","<div class = centerbox><div  id = stim2></div></div>","32","32","750","","test","go","67","adv","","",""
"","-1","-1","1131","0","test_block","poldrack-single-stim","82","174049","0.0-5.0-68.0","go-nogo","false","0","","false","<div class = centerbox><div  id = stim2></div></div>","32","32","750","","test","go","68","adv","","",""
"","0","32","1479","0","test_block","poldrack-single-stim","83","175644","0.0-5.0-69.0","go-nogo","false","0","","true","<div class = centerbox><div  id = stim2></div></div>","32","32","750","","test","go","69","adv","","",""
"","-1","-1","1287","0","test_block","poldrack-single-stim","84","177040","0.0-5.0-70.0","go-nogo","false","0","","true","<div class = centerbox><div  id = stim1></div></div>","-1","32","750","","test","nogo","70","adv","","",""
"","326","32","1421","0","test_block","poldrack-single-stim","85","178612","0.0-5.0-71.0","go-nogo","false","0","","true","<div class = centerbox><div  id = stim2></div></div>","32","32","750","","test","go","71","adv","","",""
"","-1","-1","1205","0","test_block","poldrack-single-stim","86","179941","0.0-5.0-72.0","go-nogo","false","0","","true","<div class = centerbox><div  id = stim1></div></div>","-1","32","750","","test","nogo","72","adv","","",""
"","1069","32","1243","0","test_block","poldrack-single-stim","87","181298","0.0-5.0-73.0","go-nogo","false","0","","true","<div class = centerbox><div  id = stim2></div></div>","32","32","750","","test","go","73","adv","","",""
"","-1","-1","1375","0","test_block","poldrack-single-stim","88","182798","0.0-5.0-74.0","go-nogo","false","0","","false","<div class = centerbox><div  id = stim2></div></div>","32","32","750","","test","go","74","adv","","",""
"","-1","-1","1435","0","test_block","poldrack-single-stim","89","184367","0.0-5.0-75.0","go-nogo","false","0","","false","<div class = centerbox><div  id = stim2></div></div>","32","32","750","","test","go","75","adv","","",""
"","938","32","1406","0","test_block","poldrack-single-stim","90","185865","0.0-5.0-76.0","go-nogo","false","0","","true","<div class = centerbox><div  id = stim2></div></div>","32","32","750","","test","go","76","adv","","",""
"","-1","-1","1300","0","test_block","poldrack-single-stim","91","187309","0.0-5.0-77.0","go-nogo","false","0","","true","<div class = centerbox><div  id = stim1></div></div>","-1","32","750","","test","nogo","77","adv","","",""
"","276","32","1188","0","test_block","poldrack-single-stim","92","188634","0.0-5.0-78.0","go-nogo","false","0","","true","<div class = centerbox><div  id = stim2></div></div>","32","32","750","","test","go","78","adv","","",""
"","-1","-1","1261","0","test_block","poldrack-single-stim","93","190026","0.0-5.0-79.0","go-nogo","false","0","","true","<div class = centerbox><div  id = stim1></div></div>","-1","32","750","","test","nogo","79","adv","","",""
"","338","32","1416","0","test_block","poldrack-single-stim","94","191545","0.0-5.0-80.0","go-nogo","false","0","","true","<div class = centerbox><div  id = stim2></div></div>","32","32","750","","test","go","80","adv","","",""
"","-1","-1","1463","0","test_block","poldrack-single-stim","95","193148","0.0-5.0-81.0","go-nogo","false","0","","false","<div class = centerbox><div  id = stim2></div></div>","32","32","750","","test","go","81","adv","","",""
"","-1","-1","1352","0","test_block","poldrack-single-stim","96","194630","0.0-5.0-82.0","go-nogo","false","0","","false","<div class = centerbox><div  id = stim2></div></div>","32","32","750","","test","go","82","adv","","",""
"","446","32","1410","0","test_block","poldrack-single-stim","97","196193","0.0-5.0-83.0","go-nogo","false","0","","true","<div class = centerbox><div  id = stim2></div></div>","32","32","750","","test","go","83","adv","","",""
"","-1","-1","1331","0","test_block","poldrack-single-stim","98","197638","0.0-5.0-84.0","go-nogo","false","0","","true","<div class = centerbox><div  id = stim1></div></div>","-1","32","750","","test","nogo","84","adv","","",""
"","-1","-1","1479","0","test_block","poldrack-single-stim","99","199267","0.0-5.0-85.0","go-nogo","false","0","","false","<div class = centerbox><div  id = stim2></div></div>","32","32","750","","test","go","85","adv","","",""
"","-1","-1","1113","0","test_block","poldrack-single-stim","100","200549","0.0-5.0-86.0","go-nogo","false","0","","false","<div class = centerbox><div  id = stim2></div></div>","32","32","750","","test","go","86","adv","","",""
"","400","32","1337","0","test_block","poldrack-single-stim","101","202024","0.0-5.0-87.0","go-nogo","false","0","","true","<div class = centerbox><div  id = stim2></div></div>","32","32","750","","test","go","87","adv","","",""
"","-1","-1","1102","0","test_block","poldrack-single-stim","102","203261","0.0-5.0-88.0","go-nogo","false","0","","true","<div class = centerbox><div  id = stim1></div></div>","-1","32","750","","test","nogo","88","adv","","",""
"","483","32","1084","0","test_block","poldrack-single-stim","103","204489","0.0-5.0-89.0","go-nogo","false","0","","true","<div class = centerbox><div  id = stim2></div></div>","32","32","750","","test","go","89","adv","","",""
"","-1","-1","1411","0","test_block","poldrack-single-stim","104","206035","0.0-5.0-90.0","go-nogo","false","0","","true","<div class = centerbox><div  id = stim1></div></div>","-1","32","750","","test","nogo","90","adv","","",""
"","390","32","1072","0","test_block","poldrack-single-stim","105","207249","0.0-5.0-91.0","go-nogo","false","0","","true","<div class = centerbox><div  id = stim2></div></div>","32","32","750","","test","go","91","adv","","",""
"","540","32","1100","0","test_block","poldrack-single-stim","106","208469","0.0-5.0-92.0","go-nogo","false","0","","true","<div class = centerbox><div  id = stim2></div></div>","32","32","750","","test","go","92","adv","","",""
"","559","32","1356","0","test_block","poldrack-single-stim","107","209965","0.0-5.0-93.0","go-nogo","false","0","","true","<div class = centerbox><div  id = stim2></div></div>","32","32","750","","test","go","93","adv","","",""
"","951","32","1093","0","test_block","poldrack-single-stim","108","211191","0.0-5.0-94.0","go-nogo","false","0","","true","<div class = centerbox><div  id = stim2></div></div>","32","32","750","","test","go","94","adv","","",""
"","328","32","1298","0","test_block","poldrack-single-stim","109","212594","0.0-5.0-95.0","go-nogo","false","0","","true","<div class = centerbox><div  id = stim2></div></div>","32","32","750","","test","go","95","adv","","",""
"","308","32","1221","0","test_block","poldrack-single-stim","110","213954","0.0-5.0-96.0","go-nogo","false","0","","true","<div class = centerbox><div  id = stim2></div></div>","32","32","750","","test","go","96","adv","","",""
"","274","32","1023","0","test_block","poldrack-single-stim","111","215106","0.0-5.0-97.0","go-nogo","false","0","","true","<div class = centerbox><div  id = stim2></div></div>","32","32","750","","test","go","97","adv","","",""
"","354","32","1406","0","test_block","poldrack-single-stim","112","216646","0.0-5.0-98.0","go-nogo","false","0","","true","<div class = centerbox><div  id = stim2></div></div>","32","32","750","","test","go","98","adv","","",""
"","293","32","1252","0","test_block","poldrack-single-stim","113","217998","0.0-5.0-99.0","go-nogo","false","0","","true","<div class = centerbox><div  id = stim2></div></div>","32","32","750","","test","go","99","adv","","",""
"","419","32","1057","0","test_block","poldrack-single-stim","114","219198","0.0-5.0-100.0","go-nogo","false","0","","true","<div class = centerbox><div  id = stim2></div></div>","32","32","750","","test","go","100","adv","","",""
"","595","32","1157","0","test_block","poldrack-single-stim","115","220493","0.0-5.0-101.0","go-nogo","false","0","","true","<div class = centerbox><div  id = stim2></div></div>","32","32","750","","test","go","101","adv","","",""
"","258","32","1134","0","test_block","poldrack-single-stim","116","221765","0.0-5.0-102.0","go-nogo","false","0","","true","<div class = centerbox><div  id = stim2></div></div>","32","32","750","","test","go","102","adv","","",""
"","284","32","1271","0","test_block","poldrack-single-stim","117","223169","0.0-5.0-103.0","go-nogo","false","0","","true","<div class = centerbox><div  id = stim2></div></div>","32","32","750","","test","go","103","adv","","",""
"","1183","32","1203","0","test_block","poldrack-single-stim","118","224497","0.0-5.0-104.0","go-nogo","false","0","","true","<div class = centerbox><div  id = stim2></div></div>","32","32","750","","test","go","104","adv","","",""
"","-1","-1","1059","0","test_block","poldrack-single-stim","119","225698","0.0-5.0-105.0","go-nogo","false","0","","false","<div class = centerbox><div  id = stim2></div></div>","32","32","750","","test","go","105","adv","","",""
"","84","32","1009","0","test_block","poldrack-single-stim","120","226822","0.0-5.0-106.0","go-nogo","false","0","","true","<div class = centerbox><div  id = stim2></div></div>","32","32","750","","test","go","106","adv","","",""
"","377","32","1261","0","test_block","poldrack-single-stim","121","228214","0.0-5.0-107.0","go-nogo","false","0","","true","<div class = centerbox><div  id = stim2></div></div>","32","32","750","","test","go","107","adv","","",""
"","259","32","1102","0","test_block","poldrack-single-stim","122","229424","0.0-5.0-108.0","go-nogo","false","0","","true","<div class = centerbox><div  id = stim2></div></div>","32","32","750","","test","go","108","adv","","",""
"","305","32","1490","0","test_block","poldrack-single-stim","123","231055","0.0-5.0-109.0","go-nogo","false","0","","true","<div class = centerbox><div  id = stim2></div></div>","32","32","750","","test","go","109","adv","","",""
"","0","32","1103","0","test_block","poldrack-single-stim","124","232303","0.0-5.0-110.0","go-nogo","false","0","","true","<div class = centerbox><div  id = stim2></div></div>","32","32","750","","test","go","110","adv","","",""
"","632","32","1425","0","test_block","poldrack-single-stim","125","233860","0.0-5.0-111.0","go-nogo","false","0","","true","<div class = centerbox><div  id = stim2></div></div>","32","32","750","","test","go","111","adv","","",""
"","2","32","1323","0","test_block","poldrack-single-stim","126","235320","0.0-5.0-112.0","go-nogo","false","0","","true","<div class = centerbox><div  id = stim2></div></div>","32","32","750","","test","go","112","adv","","",""
"","930","32","1386","0","test_block","poldrack-single-stim","127","236868","0.0-5.0-113.0","go-nogo","false","0","","true","<div class = centerbox><div  id = stim2></div></div>","32","32","750","","test","go","113","adv","","",""
"","585","32","1325","0","test_block","poldrack-single-stim","128","238330","0.0-5.0-114.0","go-nogo","false","0","","true","<div class = centerbox><div  id = stim2></div></div>","32","32","750","","test","go","114","adv","","",""
"","-1","-1","1127","0","test_block","poldrack-single-stim","129","239592","0.0-5.0-115.0","go-nogo","false","0","","false","<div class = centerbox><div  id = stim2></div></div>","32","32","750","","test","go","115","adv","","",""
"","-1","-1","1373","0","test_block","poldrack-single-stim","130","241136","0.0-5.0-116.0","go-nogo","false","0","","false","<div class = centerbox><div  id = stim2></div></div>","32","32","750","","test","go","116","adv","","",""
"","427","32","1255","0","test_block","poldrack-single-stim","131","242523","0.0-5.0-117.0","go-nogo","false","0","","true","<div class = centerbox><div  id = stim2></div></div>","32","32","750","","test","go","117","adv","","",""
"","-1","-1","1006","0","test_block","poldrack-single-stim","132","243624","0.0-5.0-118.0","go-nogo","false","0","","true","<div class = centerbox><div  id = stim1></div></div>","-1","32","750","","test","nogo","118","adv","","",""
"","576","32","1097","0","test_block","poldrack-single-stim","133","244855","0.0-5.0-119.0","go-nogo","false","0","","true","<div class = centerbox><div  id = stim2></div></div>","32","32","750","","test","go","119","adv","","",""
"","-1","-1","1190","0","test_block","poldrack-single-stim","134","246173","0.0-5.0-120.0","go-nogo","false","0","","false","<div class = centerbox><div  id = stim2></div></div>","32","32","750","","test","go","120","adv","","",""
"","-1","-1","1397","0","test_block","poldrack-single-stim","135","247662","0.0-5.0-121.0","go-nogo","false","0","","false","<div class = centerbox><div  id = stim2></div></div>","32","32","750","","test","go","121","adv","","",""
"","345","32","1162","0","test_block","poldrack-single-stim","136","248951","0.0-5.0-122.0","go-nogo","false","0","","true","<div class = centerbox><div  id = stim2></div></div>","32","32","750","","test","go","122","adv","","",""
"","-1","-1","1295","0","test_block","poldrack-single-stim","137","250380","0.0-5.0-123.0","go-nogo","false","0","","true","<div class = centerbox><div  id = stim1></div></div>","-1","32","750","","test","nogo","123","adv","","",""
"","-1","-1","1059","0","test_block","poldrack-single-stim","138","251575","0.0-5.0-124.0","go-nogo","false","0","","false","<div class = centerbox><div  id = stim2></div></div>","32","32","750","","test","go","124","adv","","",""
"","103","32","1433","0","test_block","poldrack-single-stim","139","253141","0.0-5.0-125.0","go-nogo","false","0","","true","<div class = centerbox><div  id = stim2></div></div>","32","32","750","","test","go","125","adv","","",""
"","1","32","1302","0","test_block","poldrack-single-stim","140","254544","0.0-5.0-126.0","go-nogo","false","0","","false","<div class = centerbox><div  id = stim1></div></div>","-1","32","750","","test","nogo","126","adv","","",""
"","-1","-1","1104","0","test_block","poldrack-single-stim","141","255782","0.0-5.0-127.0","go-nogo","false","0","","true","<div class = centerbox><div  id = stim1></div></div>","-1","32","750","","test","nogo","127","adv","","",""
"","497","32","1048","0","test_block","poldrack-single-stim","142","256962","0.0-5.0-128.0","go-nogo","false","0","","true","<div class = centerbox><div  id = stim2></div></div>","32","32","750","","test","go","128","adv","","",""
"","-1","-1","1078","0","test_block","poldrack-single-stim","143","258174","0.0-5.0-129.0","go-nogo","false","0","","false","<div class = centerbox><div  id = stim2></div></div>","32","32","750","","test","go","129","adv","","",""
"","-1","-1","1232","0","test_block","poldrack-single-stim","144","259542","0.0-5.0-130.0","go-nogo","false","0","","false","<div class = centerbox><div  id = stim2></div></div>","32","32","750","","test","go","130","adv","","",""
"","-1","-1","1068","0","test_block","poldrack-single-stim","145","260721","0.0-5.0-131.0","go-nogo","false","0","","false","<div class = centerbox><div  id = stim2></div></div>","32","32","750","","test","go","131","adv","","",""
"","429","32","1113","0","test_block","poldrack-single-stim","146","261972","0.0-5.0-132.0","go-nogo","false","0","","true","<div class = centerbox><div  id = stim2></div></div>","32","32","750","","test","go","132","adv","","",""
"","-1","-1","1321","0","test_block","poldrack-single-stim","147","263432","0.0-5.0-133.0","go-nogo","false","0","","true","<div class = centerbox><div  id = stim1></div></div>","-1","32","750","","test","nogo","133","adv","","",""
"","-1","-1","1093","0","test_block","poldrack-single-stim","148","264637","0.0-5.0-134.0","go-nogo","false","0","","false","<div class = centerbox><div  id = stim2></div></div>","32","32","750","","test","go","134","adv","","",""
"","387","32","1016","0","test_block","poldrack-single-stim","149","265785","0.0-5.0-135.0","go-nogo","false","0","","true","<div class = centerbox><div  id = stim2></div></div>","32","32","750","","test","go","135","adv","","",""
"","-1","-1","1443","0","test_block","poldrack-single-stim","150","267362","0.0-5.0-136.0","go-nogo","false","0","","true","<div class = centerbox><div  id = stim1></div></div>","-1","32","750","","test","nogo","136","adv","","",""
"","328","32","1196","0","test_block","poldrack-single-stim","151","268686","0.0-5.0-137.0","go-nogo","false","0","","true","<div class = centerbox><div  id = stim2></div></div>","32","32","750","","test","go","137","adv","","",""
"","-1","-1","1045","0","test_block","poldrack-single-stim","152","269838","0.0-5.0-138.0","go-nogo","false","0","","true","<div class = centerbox><div  id = stim1></div></div>","-1","32","750","","test","nogo","138","adv","","",""
"","467","32","1132","0","test_block","poldrack-single-stim","153","271107","0.0-5.0-139.0","go-nogo","false","0","","true","<div class = centerbox><div  id = stim2></div></div>","32","32","750","","test","go","139","adv","","",""
"","-1","-1","1096","0","test_block","poldrack-single-stim","154","272338","0.0-5.0-140.0","go-nogo","false","0","","false","<div class = centerbox><div  id = stim2></div></div>","32","32","750","","test","go","140","adv","","",""
"","-1","-1","1207","0","test_block","poldrack-single-stim","155","273685","0.0-5.0-141.0","go-nogo","false","0","","false","<div class = centerbox><div  id = stim2></div></div>","32","32","750","","test","go","141","adv","","",""
"","-1","-1","1240","0","test_block","poldrack-single-stim","156","275024","0.0-5.0-142.0","go-nogo","false","0","","false","<div class = centerbox><div  id = stim2></div></div>","32","32","750","","test","go","142","adv","","",""
"","1","32","1298","0","test_block","poldrack-single-stim","157","276425","0.0-5.0-143.0","go-nogo","false","0","","true","<div class = centerbox><div  id = stim2></div></div>","32","32","750","","test","go","143","adv","","",""
"","292","32","1224","0","test_block","poldrack-single-stim","158","277788","0.0-5.0-144.0","go-nogo","false","0","","false","<div class = centerbox><div  id = stim1></div></div>","-1","32","750","","test","nogo","144","adv","","",""
"","-1","-1","1059","0","test_block","poldrack-single-stim","159","278975","0.0-5.0-145.0","go-nogo","false","0","","true","<div class = centerbox><div  id = stim1></div></div>","-1","32","750","","test","nogo","145","adv","","",""
"","-1","-1","1051","0","test_block","poldrack-single-stim","160","280158","0.0-5.0-146.0","go-nogo","false","0","","false","<div class = centerbox><div  id = stim2></div></div>","32","32","750","","test","go","146","adv","","",""
"","-1","-1","1374","0","test_block","poldrack-single-stim","161","281641","0.0-5.0-147.0","go-nogo","false","0","","false","<div class = centerbox><div  id = stim2></div></div>","32","32","750","","test","go","147","adv","","",""
"","583","32","1076","0","test_block","poldrack-single-stim","162","282840","0.0-5.0-148.0","go-nogo","false","0","","true","<div class = centerbox><div  id = stim2></div></div>","32","32","750","","test","go","148","adv","","",""
"","-1","-1","1424","0","test_block","poldrack-single-stim","163","284382","0.0-5.0-149.0","go-nogo","false","0","","true","<div class = centerbox><div  id = stim1></div></div>","-1","32","750","","test","nogo","149","adv","","",""
"","-1","-1","1064","0","test_block","poldrack-single-stim","164","285559","0.0-5.0-150.0","go-nogo","false","0","","false","<div class = centerbox><div  id = stim2></div></div>","32","32","750","","test","go","150","adv","","",""
"","-1","-1","1135","0","test_block","poldrack-single-stim","165","286810","0.0-5.0-151.0","go-nogo","false","0","","false","<div class = centerbox><div  id = stim2></div></div>","32","32","750","","test","go","151","adv","","",""
"","-1","-1","1425","0","test_block","poldrack-single-stim","166","288363","0.0-5.0-152.0","go-nogo","false","0","","false","<div class = centerbox><div  id = stim2></div></div>","32","32","750","","test","go","152","adv","","",""
"","336","32","1143","0","test_block","poldrack-single-stim","167","289633","0.0-5.0-153.0","go-nogo","false","0","","true","<div class = centerbox><div  id = stim2></div></div>","32","32","750","","test","go","153","adv","","",""
"","-1","-1","1345","0","test_block","poldrack-single-stim","168","291082","0.0-5.0-154.0","go-nogo","false","0","","true","<div class = centerbox><div  id = stim1></div></div>","-1","32","750","","test","nogo","154","adv","","",""
"","293","32","1465","0","test_block","poldrack-single-stim","169","292649","0.0-5.0-155.0","go-nogo","false","0","","true","<div class = centerbox><div  id = stim2></div></div>","32","32","750","","test","go","155","adv","","",""
"","-1","-1","1414","0","test_block","poldrack-single-stim","170","294193","0.0-5.0-156.0","go-nogo","false","0","","true","<div class = centerbox><div  id = stim1></div></div>","-1","32","750","","test","nogo","156","adv","","",""
"","477","32","1487","0","test_block","poldrack-single-stim","171","295788","0.0-5.0-157.0","go-nogo","false","0","","true","<div class = centerbox><div  id = stim2></div></div>","32","32","750","","test","go","157","adv","","",""
"","-1","-1","1249","0","test_block","poldrack-single-stim","172","297168","0.0-5.0-158.0","go-nogo","false","0","","true","<div class = centerbox><div  id = stim1></div></div>","-1","32","750","","test","nogo","158","adv","","",""
"","696","32","1454","0","test_block","poldrack-single-stim","173","298739","0.0-5.0-159.0","go-nogo","false","0","","true","<div class = centerbox><div  id = stim2></div></div>","32","32","750","","test","go","159","adv","","",""
"","-1","-1","1365","0","test_block","poldrack-single-stim","174","300239","0.0-5.0-160.0","go-nogo","false","0","","false","<div class = centerbox><div  id = stim2></div></div>","32","32","750","","test","go","160","adv","","",""
"","417","32","1369","0","test_block","poldrack-single-stim","175","301746","0.0-5.0-161.0","go-nogo","false","0","","true","<div class = centerbox><div  id = stim2></div></div>","32","32","750","","test","go","161","adv","","",""
"","757","32","1294","0","test_block","poldrack-single-stim","176","303160","0.0-5.0-162.0","go-nogo","false","0","","true","<div class = centerbox><div  id = stim2></div></div>","32","32","750","","test","go","162","adv","","",""
"","352","32","1011","0","test_block","poldrack-single-stim","177","304310","0.0-5.0-163.0","go-nogo","false","0","","true","<div class = centerbox><div  id = stim2></div></div>","32","32","750","","test","go","163","adv","","",""
"","514","32","1235","0","test_block","poldrack-single-stim","178","305686","0.0-5.0-164.0","go-nogo","false","0","","true","<div class = centerbox><div  id = stim2></div></div>","32","32","750","","test","go","164","adv","","",""
"","1040","32","1232","0","test_block","poldrack-single-stim","179","307042","0.0-5.0-165.0","go-nogo","false","0","","true","<div class = centerbox><div  id = stim2></div></div>","32","32","750","","test","go","165","adv","","",""
"","-1","-1","1408","0","test_block","poldrack-single-stim","180","308566","0.0-5.0-166.0","go-nogo","false","0","","false","<div class = centerbox><div  id = stim2></div></div>","32","32","750","","test","go","166","adv","","",""
"","386","32","1441","0","test_block","poldrack-single-stim","181","310126","0.0-5.0-167.0","go-nogo","false","0","","true","<div class = centerbox><div  id = stim2></div></div>","32","32","750","","test","go","167","adv","","",""
"","415","32","1229","0","test_block","poldrack-single-stim","182","311473","0.0-5.0-168.0","go-nogo","false","0","","true","<div class = centerbox><div  id = stim2></div></div>","32","32","750","","test","go","168","adv","","",""
"","-1","-1","1343","0","test_block","poldrack-single-stim","183","312949","0.0-5.0-169.0","go-nogo","false","0","","false","<div class = centerbox><div  id = stim2></div></div>","32","32","750","","test","go","169","adv","","",""
"","-1","-1","1420","0","test_block","poldrack-single-stim","184","314496","0.0-5.0-170.0","go-nogo","false","0","","false","<div class = centerbox><div  id = stim2></div></div>","32","32","750","","test","go","170","adv","","",""
"","388","32","1235","0","test_block","poldrack-single-stim","185","315854","0.0-5.0-171.0","go-nogo","false","0","","true","<div class = centerbox><div  id = stim2></div></div>","32","32","750","","test","go","171","adv","","",""
"","339","32","1131","0","test_block","poldrack-single-stim","186","317115","0.0-5.0-172.0","go-nogo","false","0","","false","<div class = centerbox><div  id = stim1></div></div>","-1","32","750","","test","nogo","172","adv","","",""
"","415","32","1011","0","test_block","poldrack-single-stim","187","318260","0.0-5.0-173.0","go-nogo","false","0","","false","<div class = centerbox><div  id = stim1></div></div>","-1","32","750","","test","nogo","173","adv","","",""
"","440","32","1225","0","test_block","poldrack-single-stim","188","319649","0.0-5.0-174.0","go-nogo","false","0","","false","<div class = centerbox><div  id = stim1></div></div>","-1","32","750","","test","nogo","174","adv","","",""
"","-1","-1","1328","0","test_block","poldrack-single-stim","189","321107","0.0-5.0-175.0","go-nogo","false","0","","true","<div class = centerbox><div  id = stim1></div></div>","-1","32","750","","test","nogo","175","adv","","",""
"","-1","-1","1369","0","test_block","poldrack-single-stim","190","322614","0.0-5.0-176.0","go-nogo","false","0","","false","<div class = centerbox><div  id = stim2></div></div>","32","32","750","","test","go","176","adv","","",""
"","272","32","1155","0","test_block","poldrack-single-stim","191","323897","0.0-5.0-177.0","go-nogo","false","0","","true","<div class = centerbox><div  id = stim2></div></div>","32","32","750","","test","go","177","adv","","",""
"","-1","-1","1066","0","test_block","poldrack-single-stim","192","325109","0.0-5.0-178.0","go-nogo","false","0","","true","<div class = centerbox><div  id = stim1></div></div>","-1","32","750","","test","nogo","178","adv","","",""
"","-1","-1","1484","0","test_block","poldrack-single-stim","193","326746","0.0-5.0-179.0","go-nogo","false","0","","false","<div class = centerbox><div  id = stim2></div></div>","32","32","750","","test","go","179","adv","","",""
"","-1","-1","1272","0","test_block","poldrack-single-stim","194","328140","0.0-5.0-180.0","go-nogo","false","0","","false","<div class = centerbox><div  id = stim2></div></div>","32","32","750","","test","go","180","adv","","",""
"","-1","-1","1362","0","test_block","poldrack-single-stim","195","329621","0.0-5.0-181.0","go-nogo","false","0","","false","<div class = centerbox><div  id = stim2></div></div>","32","32","750","","test","go","181","adv","","",""
"","-1","-1","1211","0","test_block","poldrack-single-stim","196","330921","0.0-5.0-182.0","go-nogo","false","0","","false","<div class = centerbox><div  id = stim2></div></div>","32","32","750","","test","go","182","adv","","",""
"","1","32","1299","0","test_block","poldrack-single-stim","197","332349","0.0-5.0-183.0","go-nogo","false","0","","true","<div class = centerbox><div  id = stim2></div></div>","32","32","750","","test","go","183","adv","","",""
"","0","32","1214","0","test_block","poldrack-single-stim","198","333722","0.0-5.0-184.0","go-nogo","false","0","","false","<div class = centerbox><div  id = stim1></div></div>","-1","32","750","","test","nogo","184","adv","","",""
"","-1","-1","1307","0","test_block","poldrack-single-stim","199","335166","0.0-5.0-185.0","go-nogo","false","0","","true","<div class = centerbox><div  id = stim1></div></div>","-1","32","750","","test","nogo","185","adv","","",""
"","454","32","1287","0","test_block","poldrack-single-stim","200","336597","0.0-5.0-186.0","go-nogo","false","0","","true","<div class = centerbox><div  id = stim2></div></div>","32","32","750","","test","go","186","adv","","",""
"","493","32","1030","0","test_block","poldrack-single-stim","201","337736","0.0-5.0-187.0","go-nogo","false","0","","true","<div class = centerbox><div  id = stim2></div></div>","32","32","750","","test","go","187","adv","","",""
"","448","32","1043","0","test_block","poldrack-single-stim","202","338907","0.0-5.0-188.0","go-nogo","false","0","","true","<div class = centerbox><div  id = stim2></div></div>","32","32","750","","test","go","188","adv","","",""
"","299","32","1215","0","test_block","poldrack-single-stim","203","340255","0.0-5.0-189.0","go-nogo","false","0","","true","<div class = centerbox><div  id = stim2></div></div>","32","32","750","","test","go","189","adv","","",""
"","240","32","1025","0","test_block","poldrack-single-stim","204","341408","0.0-5.0-190.0","go-nogo","false","0","","true","<div class = centerbox><div  id = stim2></div></div>","32","32","750","","test","go","190","adv","","",""
"","281","32","1015","0","test_block","poldrack-single-stim","205","342562","0.0-5.0-191.0","go-nogo","false","0","","true","<div class = centerbox><div  id = stim2></div></div>","32","32","750","","test","go","191","adv","","",""
"","542","32","1216","0","test_block","poldrack-single-stim","206","343911","0.0-5.0-192.0","go-nogo","false","0","","true","<div class = centerbox><div  id = stim2></div></div>","32","32","750","","test","go","192","adv","","",""
"","335","32","1401","0","test_block","poldrack-single-stim","207","345430","0.0-5.0-193.0","go-nogo","false","0","","true","<div class = centerbox><div  id = stim2></div></div>","32","32","750","","test","go","193","adv","","",""
"","254","32","1115","0","test_block","poldrack-single-stim","208","346667","0.0-5.0-194.0","go-nogo","false","0","","true","<div class = centerbox><div  id = stim2></div></div>","32","32","750","","test","go","194","adv","","",""
"","352","32","1245","0","test_block","poldrack-single-stim","209","348025","0.0-5.0-195.0","go-nogo","false","0","","true","<div class = centerbox><div  id = stim2></div></div>","32","32","750","","test","go","195","adv","","",""
"","272","32","1114","0","test_block","poldrack-single-stim","210","349285","0.0-5.0-196.0","go-nogo","false","0","","true","<div class = centerbox><div  id = stim2></div></div>","32","32","750","","test","go","196","adv","","",""
"","619","32","1083","0","test_block","poldrack-single-stim","211","350513","0.0-5.0-197.0","go-nogo","false","0","","true","<div class = centerbox><div  id = stim2></div></div>","32","32","750","","test","go","197","adv","","",""
"","564","32","1462","0","test_block","poldrack-single-stim","212","352097","0.0-5.0-198.0","go-nogo","false","0","","true","<div class = centerbox><div  id = stim2></div></div>","32","32","750","","test","go","198","adv","","",""
"","295","32","1455","0","test_block","poldrack-single-stim","213","353688","0.0-5.0-199.0","go-nogo","false","0","","true","<div class = centerbox><div  id = stim2></div></div>","32","32","750","","test","go","199","adv","","",""
"","225","32","1055","0","test_block","poldrack-single-stim","214","354892","0.0-5.0-200.0","go-nogo","false","0","","true","<div class = centerbox><div  id = stim2></div></div>","32","32","750","","test","go","200","adv","","",""
"","278","32","1398","0","test_block","poldrack-single-stim","215","356422","0.0-5.0-201.0","go-nogo","false","0","","true","<div class = centerbox><div  id = stim2></div></div>","32","32","750","","test","go","201","adv","","",""
"","69","32","1291","0","test_block","poldrack-single-stim","216","357853","0.0-5.0-202.0","go-nogo","false","0","","true","<div class = centerbox><div  id = stim2></div></div>","32","32","750","","test","go","202","adv","","",""
"","705","32","1424","0","test_block","poldrack-single-stim","217","359405","0.0-5.0-203.0","go-nogo","false","0","","true","<div class = centerbox><div  id = stim2></div></div>","32","32","750","","test","go","203","adv","","",""
"","-1","-1","1451","0","test_block","poldrack-single-stim","218","360992","0.0-5.0-204.0","go-nogo","false","0","","false","<div class = centerbox><div  id = stim2></div></div>","32","32","750","","test","go","204","adv","","",""
"","473","32","1335","0","test_block","poldrack-single-stim","219","362453","0.0-5.0-205.0","go-nogo","false","0","","true","<div class = centerbox><div  id = stim2></div></div>","32","32","750","","test","go","205","adv","","",""
"","-1","-1","1422","0","test_block","poldrack-single-stim","220","364019","0.0-5.0-206.0","go-nogo","false","0","","true","<div class = centerbox><div  id = stim1></div></div>","-1","32","750","","test","nogo","206","adv","","",""
"","307","32","1270","0","test_block","poldrack-single-stim","221","365427","0.0-5.0-207.0","go-nogo","false","0","","true","<div class = centerbox><div  id = stim2></div></div>","32","32","750","","test","go","207","adv","","",""
"","-1","-1","1011","0","test_block","poldrack-single-stim","222","366567","0.0-5.0-208.0","go-nogo","false","0","","false","<div class = centerbox><div  id = stim2></div></div>","32","32","750","","test","go","208","adv","","",""
"","560","32","1182","0","test_block","poldrack-single-stim","223","367859","0.0-5.0-209.0","go-nogo","false","0","","true","<div class = centerbox><div  id = stim2></div></div>","32","32","750","","test","go","209","adv","","",""
"","-1","-1","1256","0","test_block","poldrack-single-stim","224","369240","0.0-5.0-210.0","go-nogo","false","0","","false","<div class = centerbox><div  id = stim2></div></div>","32","32","750","","test","go","210","adv","","",""
"","-1","-1","1101","0","test_block","poldrack-single-stim","225","370448","0.0-5.0-211.0","go-nogo","false","0","","false","<div class = centerbox><div  id = stim2></div></div>","32","32","750","","test","go","211","adv","","",""
"","448","32","1108","0","test_block","poldrack-single-stim","226","371695","0.0-5.0-212.0","go-nogo","false","0","","true","<div class = centerbox><div  id = stim2></div></div>","32","32","750","","test","go","212","adv","","",""
"","-1","-1","1310","0","test_block","poldrack-single-stim","227","373136","0.0-5.0-213.0","go-nogo","false","0","","true","<div class = centerbox><div  id = stim1></div></div>","-1","32","750","","test","nogo","213","adv","","",""
"","281","32","1048","0","test_block","poldrack-single-stim","228","374312","0.0-5.0-214.0","go-nogo","false","0","","true","<div class = centerbox><div  id = stim2></div></div>","32","32","750","","test","go","214","adv","","",""
"","665","32","1242","0","test_block","poldrack-single-stim","229","375683","0.0-5.0-215.0","go-nogo","false","0","","true","<div class = centerbox><div  id = stim2></div></div>","32","32","750","","test","go","215","adv","","",""
"","374","32","1238","0","test_block","poldrack-single-stim","230","377033","0.0-5.0-216.0","go-nogo","false","0","","true","<div class = centerbox><div  id = stim2></div></div>","32","32","750","","test","go","216","adv","","",""
"","-1","-1","1348","0","test_block","poldrack-single-stim","231","378511","0.0-5.0-217.0","go-nogo","false","0","","false","<div class = centerbox><div  id = stim2></div></div>","32","32","750","","test","go","217","adv","","",""
"","835","32","1266","0","test_block","poldrack-single-stim","232","379884","0.0-5.0-218.0","go-nogo","false","0","","true","<div class = centerbox><div  id = stim2></div></div>","32","32","750","","test","go","218","adv","","",""
"","291","32","1460","0","test_block","poldrack-single-stim","233","381472","0.0-5.0-219.0","go-nogo","false","0","","true","<div class = centerbox><div  id = stim2></div></div>","32","32","750","","test","go","219","adv","","",""
"","299","32","1083","0","test_block","poldrack-single-stim","234","382660","0.0-5.0-220.0","go-nogo","false","0","","true","<div class = centerbox><div  id = stim2></div></div>","32","32","750","","test","go","220","adv","","",""
"","-1","-1","1228","0","test_block","poldrack-single-stim","235","384019","0.0-5.0-221.0","go-nogo","false","0","","false","<div class = centerbox><div  id = stim2></div></div>","32","32","750","","test","go","221","adv","","",""
"","290","32","1229","0","test_block","poldrack-single-stim","236","385387","0.0-5.0-222.0","go-nogo","false","0","","true","<div class = centerbox><div  id = stim2></div></div>","32","32","750","","test","go","222","adv","","",""
"","-1","-1","1235","0","test_block","poldrack-single-stim","237","386756","0.0-5.0-223.0","go-nogo","false","0","","false","<div class = centerbox><div  id = stim2></div></div>","32","32","750","","test","go","223","adv","","",""
"","130","32","1405","0","test_block","poldrack-single-stim","238","388288","0.0-5.0-224.0","go-nogo","false","0","","true","<div class = centerbox><div  id = stim2></div></div>","32","32","750","","test","go","224","adv","","",""
"","929","32","1418","0","test_block","poldrack-single-stim","239","389836","0.0-5.0-225.0","go-nogo","false","0","","true","<div class = centerbox><div  id = stim2></div></div>","32","32","750","","test","go","225","adv","","",""
"","488","32","1326","0","test_block","poldrack-single-stim","240","391292","0.0-5.0-226.0","go-nogo","false","0","","true","<div class = centerbox><div  id = stim2></div></div>","32","32","750","","test","go","226","adv","","",""
"","-1","-1","1135","0","test_block","poldrack-single-stim","241","392568","0.0-5.0-227.0","go-nogo","false","0","","false","<div class = centerbox><div  id = stim2></div></div>","32","32","750","","test","go","227","adv","","",""
"","33","32","1271","0","test_block","poldrack-single-stim","242","393962","0.0-5.0-228.0","go-nogo","false","0","","true","<div class = centerbox><div  id = stim2></div></div>","32","32","750","","test","go","228","adv","","",""
"","-1","-1","1016","0","test_block","poldrack-single-stim","243","395097","0.0-5.0-229.0","go-nogo","false","0","","false","<div class = centerbox><div  id = stim2></div></div>","32","32","750","","test","go","229","adv","","",""
"","422","32","1120","0","test_block","poldrack-single-stim","244","396348","0.0-5.0-230.0","go-nogo","false","0","","true","<div class = centerbox><div  id = stim2></div></div>","32","32","750","","test","go","230","adv","","",""
"","-1","-1","1347","0","test_block","poldrack-single-stim","245","397829","0.0-5.0-231.0","go-nogo","false","0","","false","<div class = centerbox><div  id = stim2></div></div>","32","32","750","","test","go","231","adv","","",""
"","584","32","1322","0","test_block","poldrack-single-stim","246","399275","0.0-5.0-232.0","go-nogo","false","0","","true","<div class = centerbox><div  id = stim2></div></div>","32","32","750","","test","go","232","adv","","",""
"","-1","-1","1090","0","test_block","poldrack-single-stim","247","400496","0.0-5.0-233.0","go-nogo","false","0","","false","<div class = centerbox><div  id = stim2></div></div>","32","32","750","","test","go","233","adv","","",""
"","502","32","1402","0","test_block","poldrack-single-stim","248","402028","0.0-5.0-234.0","go-nogo","false","0","","true","<div class = centerbox><div  id = stim2></div></div>","32","32","750","","test","go","234","adv","","",""
"","317","32","1050","0","test_block","poldrack-single-stim","249","403227","0.0-5.0-235.0","go-nogo","false","0","","true","<div class = centerbox><div  id = stim2></div></div>","32","32","750","","test","go","235","adv","","",""
"","692","32","1182","0","test_block","poldrack-single-stim","250","404513","0.0-5.0-236.0","go-nogo","false","0","","true","<div class = centerbox><div  id = stim2></div></div>","32","32","750","","test","go","236","adv","","",""
"","1121","32","1128","0","test_block","poldrack-single-stim","251","405753","0.0-5.0-237.0","go-nogo","false","0","","true","<div class = centerbox><div  id = stim2></div></div>","32","32","750","","test","go","237","adv","","",""
"","654","32","1072","0","test_block","poldrack-single-stim","252","406967","0.0-5.0-238.0","go-nogo","false","0","","true","<div class = centerbox><div  id = stim2></div></div>","32","32","750","","test","go","238","adv","","",""
"","634","32","1441","0","test_block","poldrack-single-stim","253","408553","0.0-5.0-239.0","go-nogo","false","0","","true","<div class = centerbox><div  id = stim2></div></div>","32","32","750","","test","go","239","adv","","",""
"","458","32","1072","0","test_block","poldrack-single-stim","254","409733","0.0-5.0-240.0","go-nogo","false","0","","true","<div class = centerbox><div  id = stim2></div></div>","32","32","750","","test","go","240","adv","","",""
"","479","32","1223","0","test_block","poldrack-single-stim","255","411093","0.0-5.0-241.0","go-nogo","false","0","","true","<div class = centerbox><div  id = stim2></div></div>","32","32","750","","test","go","241","adv","","",""
"","283","32","1237","0","test_block","poldrack-single-stim","256","412460","0.0-5.0-242.0","go-nogo","false","0","","true","<div class = centerbox><div  id = stim2></div></div>","32","32","750","","test","go","242","adv","","",""
"","355","32","1448","0","test_block","poldrack-single-stim","257","414037","0.0-5.0-243.0","go-nogo","false","0","","true","<div class = centerbox><div  id = stim2></div></div>","32","32","750","","test","go","243","adv","","",""
"","439","32","1184","0","test_block","poldrack-single-stim","258","415330","0.0-5.0-244.0","go-nogo","false","0","","true","<div class = centerbox><div  id = stim2></div></div>","32","32","750","","test","go","244","adv","","",""
"","471","32","1322","0","test_block","poldrack-single-stim","259","416781","0.0-5.0-245.0","go-nogo","false","0","","true","<div class = centerbox><div  id = stim2></div></div>","32","32","750","","test","go","245","adv","","",""
"","691","32","1338","0","test_block","poldrack-single-stim","260","418219","0.0-5.0-246.0","go-nogo","false","0","","true","<div class = centerbox><div  id = stim2></div></div>","32","32","750","","test","go","246","adv","","",""
"","1147","32","1475","0","test_block","poldrack-single-stim","261","419835","0.0-5.0-247.0","go-nogo","false","0","","true","<div class = centerbox><div  id = stim2></div></div>","32","32","750","","test","go","247","adv","","",""
"","250","32","1457","0","test_block","poldrack-single-stim","262","421419","0.0-5.0-248.0","go-nogo","false","0","","true","<div class = centerbox><div  id = stim2></div></div>","32","32","750","","test","go","248","adv","","",""
"","170","32","1048","0","test_block","poldrack-single-stim","263","422592","0.0-5.0-249.0","go-nogo","false","0","","true","<div class = centerbox><div  id = stim2></div></div>","32","32","750","","test","go","249","adv","","",""
"","312","32","1482","0","test_block","poldrack-single-stim","264","424203","0.0-5.0-250.0","go-nogo","false","0","","true","<div class = centerbox><div  id = stim2></div></div>","32","32","750","","test","go","250","adv","","",""
"","11","32","1339","0","test_block","poldrack-single-stim","265","425657","0.0-5.0-251.0","go-nogo","false","0","","true","<div class = centerbox><div  id = stim2></div></div>","32","32","750","","test","go","251","adv","","",""
"","-1","-1","1133","0","test_block","poldrack-single-stim","266","426913","0.0-5.0-252.0","go-nogo","false","0","","false","<div class = centerbox><div  id = stim2></div></div>","32","32","750","","test","go","252","adv","","",""
"","1134","32","1414","0","test_block","poldrack-single-stim","267","428459","0.0-5.0-253.0","go-nogo","false","0","","true","<div class = centerbox><div  id = stim2></div></div>","32","32","750","","test","go","253","adv","","",""
"","45","32","1200","0","test_block","poldrack-single-stim","268","429776","0.0-5.0-254.0","go-nogo","false","0","","true","<div class = centerbox><div  id = stim2></div></div>","32","32","750","","test","go","254","adv","","",""
"","638","32","1443","0","test_block","poldrack-single-stim","269","431335","0.0-5.0-255.0","go-nogo","false","0","","true","<div class = centerbox><div  id = stim2></div></div>","32","32","750","","test","go","255","adv","","",""
"","294","32","1362","0","test_block","poldrack-single-stim","270","432855","0.0-5.0-256.0","go-nogo","false","0","","true","<div class = centerbox><div  id = stim2></div></div>","32","32","750","","test","go","256","adv","","",""
"","-1","-1","1459","0","test_block","poldrack-single-stim","271","434423","0.0-5.0-257.0","go-nogo","false","0","","false","<div class = centerbox><div  id = stim2></div></div>","32","32","750","","test","go","257","adv","","",""
"","-1","-1","1424","0","test_block","poldrack-single-stim","272","435959","0.0-5.0-258.0","go-nogo","false","0","","false","<div class = centerbox><div  id = stim2></div></div>","32","32","750","","test","go","258","adv","","",""
"","-1","-1","1081","0","test_block","poldrack-single-stim","273","437145","0.0-5.0-259.0","go-nogo","false","0","","false","<div class = centerbox><div  id = stim2></div></div>","32","32","750","","test","go","259","adv","","",""
"","-1","-1","1343","0","test_block","poldrack-single-stim","274","438597","0.0-5.0-260.0","go-nogo","false","0","","false","<div class = centerbox><div  id = stim2></div></div>","32","32","750","","test","go","260","adv","","",""
"","-1","-1","1293","0","test_block","poldrack-single-stim","275","439982","0.0-5.0-261.0","go-nogo","false","0","","false","<div class = centerbox><div  id = stim2></div></div>","32","32","750","","test","go","261","adv","","",""
"","-1","-1","1054","0","test_block","poldrack-single-stim","276","441141","0.0-5.0-262.0","go-nogo","false","0","","false","<div class = centerbox><div  id = stim2></div></div>","32","32","750","","test","go","262","adv","","",""
"","428","32","1455","0","test_block","poldrack-single-stim","277","442701","0.0-5.0-263.0","go-nogo","false","0","","true","<div class = centerbox><div  id = stim2></div></div>","32","32","750","","test","go","263","adv","","",""
"","287","32","1408","0","test_block","poldrack-single-stim","278","444227","0.0-5.0-264.0","go-nogo","false","0","","true","<div class = centerbox><div  id = stim2></div></div>","32","32","750","","test","go","264","adv","","",""
"","309","32","1114","0","test_block","poldrack-single-stim","279","445490","0.0-5.0-265.0","go-nogo","false","0","","true","<div class = centerbox><div  id = stim2></div></div>","32","32","750","","test","go","265","adv","","",""
"","677","32","1066","0","test_block","poldrack-single-stim","280","446653","0.0-5.0-266.0","go-nogo","false","0","","true","<div class = centerbox><div  id = stim2></div></div>","32","32","750","","test","go","266","adv","","",""
"","748","32","1001","0","test_block","poldrack-single-stim","281","447764","0.0-5.0-267.0","go-nogo","false","0","","true","<div class = centerbox><div  id = stim2></div></div>","32","32","750","","test","go","267","adv","","",""
"","626","32","1218","0","test_block","poldrack-single-stim","282","449125","0.0-5.0-268.0","go-nogo","false","0","","true","<div class = centerbox><div  id = stim2></div></div>","32","32","750","","test","go","268","adv","","",""
"","348","32","1392","0","test_block","poldrack-single-stim","283","450662","0.0-5.0-269.0","go-nogo","false","0","","true","<div class = centerbox><div  id = stim2></div></div>","32","32","750","","test","go","269","adv","","",""
"","289","32","1285","0","test_block","poldrack-single-stim","284","452066","0.0-5.0-270.0","go-nogo","false","0","","true","<div class = centerbox><div  id = stim2></div></div>","32","32","750","","test","go","270","adv","","",""
"","401","32","1197","0","test_block","poldrack-single-stim","285","453353","0.0-5.0-271.0","go-nogo","false","0","","true","<div class = centerbox><div  id = stim2></div></div>","32","32","750","","test","go","271","adv","","",""
"","953","32","1462","0","test_block","poldrack-single-stim","286","454947","0.0-5.0-272.0","go-nogo","false","0","","true","<div class = centerbox><div  id = stim2></div></div>","32","32","750","","test","go","272","adv","","",""
"","217","32","1033","0","test_block","poldrack-single-stim","287","456095","0.0-5.0-273.0","go-nogo","false","0","","true","<div class = centerbox><div  id = stim2></div></div>","32","32","750","","test","go","273","adv","","",""
"","317","32","1213","0","test_block","poldrack-single-stim","288","457455","0.0-5.0-274.0","go-nogo","false","0","","true","<div class = centerbox><div  id = stim2></div></div>","32","32","750","","test","go","274","adv","","",""
"","313","32","1029","0","test_block","poldrack-single-stim","289","458608","0.0-5.0-275.0","go-nogo","false","0","","true","<div class = centerbox><div  id = stim2></div></div>","32","32","750","","test","go","275","adv","","",""
"","406","32","1239","0","test_block","poldrack-single-stim","290","459972","0.0-5.0-276.0","go-nogo","false","0","","true","<div class = centerbox><div  id = stim2></div></div>","32","32","750","","test","go","276","adv","","",""
"","451","32","1370","0","test_block","poldrack-single-stim","291","461450","0.0-5.0-277.0","go-nogo","false","0","","true","<div class = centerbox><div  id = stim2></div></div>","32","32","750","","test","go","277","adv","","",""
"","228","32","1201","0","test_block","poldrack-single-stim","292","462759","0.0-5.0-278.0","go-nogo","false","0","","true","<div class = centerbox><div  id = stim2></div></div>","32","32","750","","test","go","278","adv","","",""
"","357","32","1043","0","test_block","poldrack-single-stim","293","463929","0.0-5.0-279.0","go-nogo","false","0","","true","<div class = centerbox><div  id = stim2></div></div>","32","32","750","","test","go","279","adv","","",""
"","587","32","1379","0","test_block","poldrack-single-stim","294","465424","0.0-5.0-280.0","go-nogo","false","0","","true","<div class = centerbox><div  id = stim2></div></div>","32","32","750","","test","go","280","adv","","",""
"","392","32","1069","0","test_block","poldrack-single-stim","295","466619","0.0-5.0-281.0","go-nogo","false","0","","true","<div class = centerbox><div  id = stim2></div></div>","32","32","750","","test","go","281","adv","","",""
"","457","32","1336","0","test_block","poldrack-single-stim","296","468104","0.0-5.0-282.0","go-nogo","false","0","","true","<div class = centerbox><div  id = stim2></div></div>","32","32","750","","test","go","282","adv","","",""
"","222","32","1046","0","test_block","poldrack-single-stim","297","469270","0.0-5.0-283.0","go-nogo","false","0","","true","<div class = centerbox><div  id = stim2></div></div>","32","32","750","","test","go","283","adv","","",""
"","179","32","1440","0","test_block","poldrack-single-stim","298","470830","0.0-5.0-284.0","go-nogo","false","0","","true","<div class = centerbox><div  id = stim2></div></div>","32","32","750","","test","go","284","adv","","",""
"","713","32","1302","0","test_block","poldrack-single-stim","299","472239","0.0-5.0-285.0","go-nogo","false","0","","true","<div class = centerbox><div  id = stim2></div></div>","32","32","750","","test","go","285","adv","","",""
"","701","32","1011","0","test_block","poldrack-single-stim","300","473409","0.0-5.0-286.0","go-nogo","false","0","","true","<div class = centerbox><div  id = stim2></div></div>","32","32","750","","test","go","286","adv","","",""
"","871","32","1055","0","test_block","poldrack-single-stim","301","474617","0.0-5.0-287.0","go-nogo","false","0","","true","<div class = centerbox><div  id = stim2></div></div>","32","32","750","","test","go","287","adv","","",""
"","-1","-1","1003","0","test_block","poldrack-single-stim","302","475726","0.0-5.0-288.0","go-nogo","false","0","","false","<div class = centerbox><div  id = stim2></div></div>","32","32","750","","test","go","288","adv","","",""
"","-1","-1","1137","0","test_block","poldrack-single-stim","303","476961","0.0-5.0-289.0","go-nogo","false","0","","false","<div class = centerbox><div  id = stim2></div></div>","32","32","750","","test","go","289","adv","","",""
"","119","32","1179","0","test_block","poldrack-single-stim","304","478269","0.0-5.0-290.0","go-nogo","false","0","","true","<div class = centerbox><div  id = stim2></div></div>","32","32","750","","test","go","290","adv","","",""
"","-1","-1","1034","0","test_block","poldrack-single-stim","305","479415","0.0-5.0-291.0","go-nogo","false","0","","false","<div class = centerbox><div  id = stim2></div></div>","32","32","750","","test","go","291","adv","","",""
"","-1","-1","1170","0","test_block","poldrack-single-stim","306","480751","0.0-5.0-292.0","go-nogo","false","0","","false","<div class = centerbox><div  id = stim2></div></div>","32","32","750","","test","go","292","adv","","",""
"","-1","-1","1288","0","test_block","poldrack-single-stim","307","482181","0.0-5.0-293.0","go-nogo","false","0","","false","<div class = centerbox><div  id = stim2></div></div>","32","32","750","","test","go","293","adv","","",""
"","-1","-1","1206","0","test_block","poldrack-single-stim","308","483533","0.0-5.0-294.0","go-nogo","false","0","","false","<div class = centerbox><div  id = stim2></div></div>","32","32","750","","test","go","294","adv","","",""
"","-1","-1","1452","0","test_block","poldrack-single-stim","309","485111","0.0-5.0-295.0","go-nogo","false","0","","false","<div class = centerbox><div  id = stim2></div></div>","32","32","750","","test","go","295","adv","","",""
"","-1","-1","1134","0","test_block","poldrack-single-stim","310","486350","0.0-5.0-296.0","go-nogo","false","0","","false","<div class = centerbox><div  id = stim2></div></div>","32","32","750","","test","go","296","adv","","",""
"","-1","-1","1243","0","test_block","poldrack-single-stim","311","487723","0.0-5.0-297.0","go-nogo","false","0","","false","<div class = centerbox><div  id = stim2></div></div>","32","32","750","","test","go","297","adv","","",""
"","-1","-1","1310","0","test_block","poldrack-single-stim","312","489167","0.0-5.0-298.0","go-nogo","false","0","","false","<div class = centerbox><div  id = stim2></div></div>","32","32","750","","test","go","298","adv","","",""
"","-1","-1","1121","0","test_block","poldrack-single-stim","313","490432","0.0-5.0-299.0","go-nogo","false","0","","false","<div class = centerbox><div  id = stim2></div></div>","32","32","750","","test","go","299","adv","","",""
"","-1","-1","1474","0","test_block","poldrack-single-stim","314","492052","0.0-5.0-300.0","go-nogo","false","0","","false","<div class = centerbox><div  id = stim2></div></div>","32","32","750","","test","go","300","adv","","",""
"","-1","-1","1353","0","test_block","poldrack-single-stim","315","493503","0.0-5.0-301.0","go-nogo","false","0","","false","<div class = centerbox><div  id = stim2></div></div>","32","32","750","","test","go","301","adv","","",""
"","-1","-1","1300","0","test_block","poldrack-single-stim","316","494941","0.0-5.0-302.0","go-nogo","false","0","","false","<div class = centerbox><div  id = stim2></div></div>","32","32","750","","test","go","302","adv","","",""
"","567","32","1194","0","test_block","poldrack-single-stim","317","496262","0.0-5.0-303.0","go-nogo","false","0","","true","<div class = centerbox><div  id = stim2></div></div>","32","32","750","","test","go","303","adv","","",""
"","-1","-1","1079","0","test_block","poldrack-single-stim","318","497446","0.0-5.0-304.0","go-nogo","false","0","","false","<div class = centerbox><div  id = stim2></div></div>","32","32","750","","test","go","304","adv","","",""
"","-1","-1","1059","0","test_block","poldrack-single-stim","319","498644","0.0-5.0-305.0","go-nogo","false","0","","false","<div class = centerbox><div  id = stim2></div></div>","32","32","750","","test","go","305","adv","","",""
"","1405","32","1444","0","test_block","poldrack-single-stim","320","500221","0.0-5.0-306.0","go-nogo","false","0","","true","<div class = centerbox><div  id = stim2></div></div>","32","32","750","","test","go","306","adv","","",""
"","335","32","1472","0","test_block","poldrack-single-stim","321","501845","0.0-5.0-307.0","go-nogo","false","0","","true","<div class = centerbox><div  id = stim2></div></div>","32","32","750","","test","go","307","adv","","",""
"","533","32","1402","0","test_block","poldrack-single-stim","322","503377","0.0-5.0-308.0","go-nogo","false","0","","true","<div class = centerbox><div  id = stim2></div></div>","32","32","750","","test","go","308","adv","","",""
"","508","32","1315","0","test_block","poldrack-single-stim","323","504860","0.0-5.0-309.0","go-nogo","false","0","","true","<div class = centerbox><div  id = stim2></div></div>","32","32","750","","test","go","309","adv","","",""
"","226","32","1113","0","test_block","poldrack-single-stim","324","506073","0.0-5.0-310.0","go-nogo","false","0","","true","<div class = centerbox><div  id = stim2></div></div>","32","32","750","","test","go","310","adv","","",""
"","18","32","1294","0","test_block","poldrack-single-stim","325","507492","0.0-5.0-311.0","go-nogo","false","0","","true","<div class = centerbox><div  id = stim2></div></div>","32","32","750","","test","go","311","adv","","",""
"","231","32","1327","0","test_block","poldrack-single-stim","326","508929","0.0-5.0-312.0","go-nogo","false","0","","true","<div class = centerbox><div  id = stim2></div></div>","32","32","750","","test","go","312","adv","","",""
"","299","32","1455","0","test_block","poldrack-single-stim","327","510519","0.0-5.0-313.0","go-nogo","false","0","","true","<div class = centerbox><div  id = stim2></div></div>","32","32","750","","test","go","313","adv","","",""
"","289","32","1498","0","test_block","poldrack-single-stim","328","512121","0.0-5.0-314.0","go-nogo","false","0","","true","<div class = centerbox><div  id = stim2></div></div>","32","32","750","","test","go","314","adv","","",""
"","1","32","1244","0","test_block","poldrack-single-stim","329","513479","0.0-5.0-315.0","go-nogo","false","0","","true","<div class = centerbox><div  id = stim2></div></div>","32","32","750","","test","go","315","adv","","",""
"","342","32","1382","0","test_block","poldrack-single-stim","330","514999","0.0-5.0-316.0","go-nogo","false","0","","true","<div class = centerbox><div  id = stim2></div></div>","32","32","750","","test","go","316","adv","","",""
"","30","32","1311","0","test_block","poldrack-single-stim","331","516419","0.0-5.0-317.0","go-nogo","false","0","","true","<div class = centerbox><div  id = stim2></div></div>","32","32","750","","test","go","317","adv","","",""
"","-1","-1","1286","0","test_block","poldrack-single-stim","332","517870","0.0-5.0-318.0","go-nogo","false","1","","false","<div class = centerbox><div  id = stim2></div></div>","32","32","750","","test","go","318","adv","","",""
"","-1","-1","1151","0","test_block","poldrack-single-stim","333","519146","0.0-5.0-319.0","go-nogo","false","0","","false","<div class = centerbox><div  id = stim2></div></div>","32","32","750","","test","go","319","adv","","",""
"","-1","-1","1234","0","test_block","poldrack-single-stim","334","520617","0.0-5.0-320.0","go-nogo","false","0","","false","<div class = centerbox><div  id = stim2></div></div>","32","32","750","","test","go","320","adv","","",""
"","-1","-1","1120","0","test_block","poldrack-single-stim","335","521871","0.0-5.0-321.0","go-nogo","false","0","","false","<div class = centerbox><div  id = stim2></div></div>","32","32","750","","test","go","321","adv","","",""
"","-1","-1","1049","0","test_block","poldrack-single-stim","336","523336","0.0-5.0-322.0","go-nogo","false","0","","false","<div class = centerbox><div  id = stim2></div></div>","32","32","750","","test","go","322","adv","","",""
"","-1","-1","1216","0","test_block","poldrack-single-stim","337","524672","0.0-5.0-323.0","go-nogo","false","0","","false","<div class = centerbox><div  id = stim2></div></div>","32","32","750","","test","go","323","adv","","",""
"","-1","-1","1475","0","test_block","poldrack-single-stim","338","526460","0.0-5.0-324.0","go-nogo","false","0","","false","<div class = centerbox><div  id = stim2></div></div>","32","32","750","","test","go","324","adv","","",""
"","-1","-1","1070","0","test_block","poldrack-single-stim","339","528087","0.0-5.0-325.0","go-nogo","false","0","","false","<div class = centerbox><div  id = stim2></div></div>","32","32","750","","test","go","325","adv","","",""
"","-1","-1","1499","0","test_block","poldrack-single-stim","340","529790","0.0-5.0-326.0","go-nogo","false","0","","false","<div class = centerbox><div  id = stim2></div></div>","32","32","750","","test","go","326","adv","","",""
"","-1","-1","1176","0","test_block","poldrack-single-stim","341","531052","0.0-5.0-327.0","go-nogo","false","0","","false","<div class = centerbox><div  id = stim2></div></div>","32","32","750","","test","go","327","adv","","",""
"","-1","-1","1249","0","test_block","poldrack-single-stim","342","532448","0.0-5.0-328.0","go-nogo","false","0","","false","<div class = centerbox><div  id = stim2></div></div>","32","32","750","","test","go","328","adv","","",""
"","-1","-1","1440","0","test_block","poldrack-single-stim","343","533998","0.0-5.0-329.0","go-nogo","false","0","","false","<div class = centerbox><div  id = stim2></div></div>","32","32","750","","test","go","329","adv","","",""
"","-1","-1","1323","0","test_block","poldrack-single-stim","344","535444","0.0-5.0-330.0","go-nogo","false","0","","false","<div class = centerbox><div  id = stim2></div></div>","32","32","750","","test","go","330","adv","","",""
"","-1","-1","1040","0","test_block","poldrack-single-stim","345","536684","0.0-5.0-331.0","go-nogo","false","0","","false","<div class = centerbox><div  id = stim2></div></div>","32","32","750","","test","go","331","adv","","",""
"","-1","-1","1347","0","test_block","poldrack-single-stim","346","538159","0.0-5.0-332.0","go-nogo","false","0","","false","<div class = centerbox><div  id = stim2></div></div>","32","32","750","","test","go","332","adv","","",""
"","-1","-1","1283","0","test_block","poldrack-single-stim","347","539582","0.0-5.0-333.0","go-nogo","false","0","","false","<div class = centerbox><div  id = stim2></div></div>","32","32","750","","test","go","333","adv","","",""
"","-1","-1","1200","0","test_block","poldrack-single-stim","348","540906","0.0-5.0-334.0","go-nogo","false","0","","false","<div class = centerbox><div  id = stim2></div></div>","32","32","750","","test","go","334","adv","","",""
"","-1","-1","1151","0","test_block","poldrack-single-stim","349","542181","0.0-5.0-335.0","go-nogo","false","0","","false","<div class = centerbox><div  id = stim2></div></div>","32","32","750","","test","go","335","adv","","",""
"","-1","-1","1426","0","test_block","poldrack-single-stim","350","543747","0.0-5.0-336.0","go-nogo","false","0","","false","<div class = centerbox><div  id = stim2></div></div>","32","32","750","","test","go","336","adv","","",""
"","-1","-1","1337","0","test_block","poldrack-single-stim","351","545190","0.0-5.0-337.0","go-nogo","false","0","","false","<div class = centerbox><div  id = stim2></div></div>","32","32","750","","test","go","337","adv","","",""
"","-1","-1","1360","0","test_block","poldrack-single-stim","352","546680","0.0-5.0-338.0","go-nogo","false","0","","false","<div class = centerbox><div  id = stim2></div></div>","32","32","750","","test","go","338","adv","","",""
"","-1","-1","1455","0","test_block","poldrack-single-stim","353","548303","0.0-5.0-339.0","go-nogo","false","0","","false","<div class = centerbox><div  id = stim2></div></div>","32","32","750","","test","go","339","adv","","",""
"","-1","-1","1021","0","test_block","poldrack-single-stim","354","549464","0.0-5.0-340.0","go-nogo","false","0","","false","<div class = centerbox><div  id = stim2></div></div>","32","32","750","","test","go","340","adv","","",""
"","-1","-1","1372","0","test_block","poldrack-single-stim","355","551031","0.0-5.0-341.0","go-nogo","false","0","","false","<div class = centerbox><div  id = stim2></div></div>","32","32","750","","test","go","341","adv","","",""
"","-1","-1","1159","0","test_block","poldrack-single-stim","356","552413","0.0-5.0-342.0","go-nogo","false","0","","false","<div class = centerbox><div  id = stim2></div></div>","32","32","750","","test","go","342","adv","","",""
"","-1","-1","1128","0","test_block","poldrack-single-stim","357","553676","0.0-5.0-343.0","go-nogo","false","0","","false","<div class = centerbox><div  id = stim2></div></div>","32","32","750","","test","go","343","adv","","",""
"","-1","-1","1136","0","test_block","poldrack-single-stim","358","555084","0.0-5.0-344.0","go-nogo","false","0","","false","<div class = centerbox><div  id = stim2></div></div>","32","32","750","","test","go","344","adv","","",""
"","-1","-1","1262","0","test_block","poldrack-single-stim","359","556640","0.0-5.0-345.0","go-nogo","false","0","","false","<div class = centerbox><div  id = stim2></div></div>","32","32","750","","test","go","345","adv","","",""
"","-1","-1","1155","0","test_block","poldrack-single-stim","360","557893","0.0-5.0-346.0","go-nogo","false","0","","false","<div class = centerbox><div  id = stim2></div></div>","32","32","750","","test","go","346","adv","","",""
"","-1","-1","1157","0","test_block","poldrack-single-stim","361","559148","0.0-5.0-347.0","go-nogo","false","0","","false","<div class = centerbox><div  id = stim2></div></div>","32","32","750","","test","go","347","adv","","",""
"","-1","-1","1079","0","test_block","poldrack-single-stim","362","560346","0.0-5.0-348.0","go-nogo","false","0","","false","<div class = centerbox><div  id = stim2></div></div>","32","32","750","","test","go","348","adv","","",""
"","-1","-1","1335","0","test_block","poldrack-single-stim","363","561818","0.0-5.0-349.0","go-nogo","false","0","","false","<div class = centerbox><div  id = stim2></div></div>","32","32","750","","test","go","349","adv","","",""
"","57617","","","","post task questions","survey-text","364","619584","0.0-7.0","go-nogo","false","0","","","","","","","","","","","","{""Q0"":""press the spacebar every time a blue square appears"",""Q1"":""no additional""}","",""
"<div class = centerbox><p class = center-block-text>Thanks for completing this task!</p><p class = center-block-text>Insert the following code to collect your payment at Amazon Mechanical Turk:</p><p class = center-block-text>764588317</p><p class = center-block-text>Press <strong>enter</strong> to continue.</p></div>","20074","13","20074","0","end","poldrack-text","365","640660","0.0-8.0","go-nogo","false","1","","","","","","","","","","","","","764588317","true"
