"text","rt","key_press","block_duration","timing_post_trial","trial_id","trial_type","trial_index","time_elapsed","internal_node_id","exp_id","full_screen","focus_shifts","view_history","correct","stimulus","correct_response","possible_responses","stim_duration","feedback_duration","exp_stage","condition","trial_num","mode","responses","payment_id","credit_var"
"<div class = centerbox><p class = center-block-text>Welcome to the experiment. This task will take around 10 minutes. Press <strong>enter</strong> to begin.</p></div>","5468","13","5468","0","instruction","poldrack-text","0","5473","0.0-0.0-0.0","go-nogo","true","0","","","","","","","","","","","","","",""
"","23159","","","","instruction","poldrack-instructions","1","28637","0.0-0.0-1.0","go-nogo","true","0","[{""page_index"":0,""viewing_time"":23156}]","","","","","","","","","","","","",""
"","478","32","1393","250","practice","poldrack-categorize","2","32085","0.0-1.0-0.0","go-nogo","true","0","","true","<div class = centerbox><div  id = stim2></div></div>","32","32","750","1000","practice","go","0","adv","","",""
"","-1","-1","1474","250","practice","poldrack-categorize","3","34840","0.0-1.0-1.0","go-nogo","true","0","","true","<div class = centerbox><div id = stim1></div></div>","-1","32","750","1000","practice","nogo","1","adv","","",""
"","475","32","1303","250","practice","poldrack-categorize","4","37411","0.0-1.0-2.0","go-nogo","true","0","","true","<div class = centerbox><div  id = stim2></div></div>","32","32","750","1000","practice","go","2","adv","","",""
"","434","32","1233","250","practice","poldrack-categorize","5","39910","0.0-1.0-3.0","go-nogo","true","0","","true","<div class = centerbox><div  id = stim2></div></div>","32","32","750","1000","practice","go","3","adv","","",""
"","394","32","1374","250","practice","poldrack-categorize","6","42558","0.0-1.0-4.0","go-nogo","true","0","","true","<div class = centerbox><div  id = stim2></div></div>","32","32","750","1000","practice","go","4","adv","","",""
"","388","32","1168","250","practice","poldrack-categorize","7","44994","0.0-1.0-5.0","go-nogo","true","0","","true","<div class = centerbox><div  id = stim2></div></div>","32","32","750","1000","practice","go","5","adv","","",""
"","-1","-1","1074","250","practice","poldrack-categorize","8","47367","0.0-1.0-6.0","go-nogo","true","0","","true","<div class = centerbox><div id = stim1></div></div>","-1","32","750","1000","practice","nogo","6","adv","","",""
"","385","32","1037","250","practice","poldrack-categorize","9","49675","0.0-1.0-7.0","go-nogo","true","0","","false","<div class = centerbox><div id = stim1></div></div>","-1","32","750","1000","practice","nogo","7","adv","","",""
"","-1","-1","1107","250","practice","poldrack-categorize","10","52043","0.0-1.0-8.0","go-nogo","true","0","","true","<div class = centerbox><div id = stim1></div></div>","-1","32","750","1000","practice","nogo","8","adv","","",""
"","-1","-1","1297","250","practice","poldrack-categorize","11","54610","0.0-1.0-9.0","go-nogo","true","0","","true","<div class = centerbox><div id = stim1></div></div>","-1","32","750","1000","practice","nogo","9","adv","","",""
"","","","","","reset_trial","call-function","12","54869","0.0-3.0","go-nogo","true","0","","","","","","","","","","","","","",""
"<div class = centerbox><p class = block-text>Practice is over, we will now begin the experiment. You will no longer get feedback about your responses.</p><p class = block-text>Remember, if you see the <font color=""blue"">blue</font> square you should <strong> respond by pressing the spacebar as quickly as possible</strong>. If you see the <font color=""orange"">orange</font> square you should <strong> not respond</strong>. Press <strong>enter</strong> to begin.</p></div>","11482","13","11482","1000","test_intro","poldrack-text","13","66354","0.0-4.0","go-nogo","true","0","","","","","","","","","","","","","",""
"","406","32","1167","0","test_block","poldrack-single-stim","14","68533","0.0-5.0-0.0","go-nogo","true","0","","true","<div class = centerbox><div  id = stim2></div></div>","32","32","750","","test","go","0","adv","","",""
"","449","32","1466","0","test_block","poldrack-single-stim","15","70269","0.0-5.0-1.0","go-nogo","true","0","","true","<div class = centerbox><div  id = stim2></div></div>","32","32","750","","test","go","1","adv","","",""
"","439","32","1422","0","test_block","poldrack-single-stim","16","71852","0.0-5.0-2.0","go-nogo","true","0","","true","<div class = centerbox><div  id = stim2></div></div>","32","32","750","","test","go","2","adv","","",""
"","391","32","1053","0","test_block","poldrack-single-stim","17","73080","0.0-5.0-3.0","go-nogo","true","0","","true","<div class = centerbox><div  id = stim2></div></div>","32","32","750","","test","go","3","adv","","",""
"","419","32","1429","0","test_block","poldrack-single-stim","18","74642","0.0-5.0-4.0","go-nogo","true","0","","true","<div class = centerbox><div  id = stim2></div></div>","32","32","750","","test","go","4","adv","","",""
"","444","32","1140","0","test_block","poldrack-single-stim","19","75931","0.0-5.0-5.0","go-nogo","true","0","","true","<div class = centerbox><div  id = stim2></div></div>","32","32","750","","test","go","5","adv","","",""
"","368","32","1417","0","test_block","poldrack-single-stim","20","77545","0.0-5.0-6.0","go-nogo","true","0","","true","<div class = centerbox><div  id = stim2></div></div>","32","32","750","","test","go","6","adv","","",""
"","417","32","1121","0","test_block","poldrack-single-stim","21","78838","0.0-5.0-7.0","go-nogo","true","0","","true","<div class = centerbox><div  id = stim2></div></div>","32","32","750","","test","go","7","adv","","",""
"","362","32","1100","0","test_block","poldrack-single-stim","22","80045","0.0-5.0-8.0","go-nogo","true","0","","true","<div class = centerbox><div  id = stim2></div></div>","32","32","750","","test","go","8","adv","","",""
"","371","32","1476","0","test_block","poldrack-single-stim","23","81658","0.0-5.0-9.0","go-nogo","true","0","","true","<div class = centerbox><div  id = stim2></div></div>","32","32","750","","test","go","9","adv","","",""
"","430","32","1258","0","test_block","poldrack-single-stim","24","83072","0.0-5.0-10.0","go-nogo","true","0","","true","<div class = centerbox><div  id = stim2></div></div>","32","32","750","","test","go","10","adv","","",""
"","359","32","1482","0","test_block","poldrack-single-stim","25","84698","0.0-5.0-11.0","go-nogo","true","0","","true","<div class = centerbox><div  id = stim2></div></div>","32","32","750","","test","go","11","adv","","",""
"","393","32","1217","0","test_block","poldrack-single-stim","26","86073","0.0-5.0-12.0","go-nogo","true","0","","true","<div class = centerbox><div  id = stim2></div></div>","32","32","750","","test","go","12","adv","","",""
"","342","32","1147","0","test_block","poldrack-single-stim","27","87374","0.0-5.0-13.0","go-nogo","true","0","","true","<div class = centerbox><div  id = stim2></div></div>","32","32","750","","test","go","13","adv","","",""
"","348","32","1188","0","test_block","poldrack-single-stim","28","88694","0.0-5.0-14.0","go-nogo","true","0","","true","<div class = centerbox><div  id = stim2></div></div>","32","32","750","","test","go","14","adv","","",""
"","318","32","1097","0","test_block","poldrack-single-stim","29","89929","0.0-5.0-15.0","go-nogo","true","0","","true","<div class = centerbox><div  id = stim2></div></div>","32","32","750","","test","go","15","adv","","",""
"","350","32","1411","0","test_block","poldrack-single-stim","30","91458","0.0-5.0-16.0","go-nogo","true","0","","true","<div class = centerbox><div  id = stim2></div></div>","32","32","750","","test","go","16","adv","","",""
"","337","32","1315","0","test_block","poldrack-single-stim","31","92885","0.0-5.0-17.0","go-nogo","true","0","","true","<div class = centerbox><div  id = stim2></div></div>","32","32","750","","test","go","17","adv","","",""
"","336","32","1220","0","test_block","poldrack-single-stim","32","94234","0.0-5.0-18.0","go-nogo","true","0","","true","<div class = centerbox><div  id = stim2></div></div>","32","32","750","","test","go","18","adv","","",""
"","346","32","1423","0","test_block","poldrack-single-stim","33","95791","0.0-5.0-19.0","go-nogo","true","0","","true","<div class = centerbox><div  id = stim2></div></div>","32","32","750","","test","go","19","adv","","",""
"","330","32","1252","0","test_block","poldrack-single-stim","34","97137","0.0-5.0-20.0","go-nogo","true","0","","true","<div class = centerbox><div  id = stim2></div></div>","32","32","750","","test","go","20","adv","","",""
"","362","32","1394","0","test_block","poldrack-single-stim","35","98653","0.0-5.0-21.0","go-nogo","true","0","","true","<div class = centerbox><div  id = stim2></div></div>","32","32","750","","test","go","21","adv","","",""
"","322","32","1356","0","test_block","poldrack-single-stim","36","100130","0.0-5.0-22.0","go-nogo","true","0","","true","<div class = centerbox><div  id = stim2></div></div>","32","32","750","","test","go","22","adv","","",""
"","347","32","1069","0","test_block","poldrack-single-stim","37","101361","0.0-5.0-23.0","go-nogo","true","0","","true","<div class = centerbox><div  id = stim2></div></div>","32","32","750","","test","go","23","adv","","",""
"","322","32","1429","0","test_block","poldrack-single-stim","38","102940","0.0-5.0-24.0","go-nogo","true","0","","true","<div class = centerbox><div  id = stim2></div></div>","32","32","750","","test","go","24","adv","","",""
"","358","32","1325","0","test_block","poldrack-single-stim","39","104395","0.0-5.0-25.0","go-nogo","true","0","","true","<div class = centerbox><div  id = stim2></div></div>","32","32","750","","test","go","25","adv","","",""
"","320","32","1425","0","test_block","poldrack-single-stim","40","105977","0.0-5.0-26.0","go-nogo","true","0","","true","<div class = centerbox><div  id = stim2></div></div>","32","32","750","","test","go","26","adv","","",""
"","336","32","1362","0","test_block","poldrack-single-stim","41","107471","0.0-5.0-27.0","go-nogo","true","0","","true","<div class = centerbox><div  id = stim2></div></div>","32","32","750","","test","go","27","adv","","",""
"","307","32","1437","0","test_block","poldrack-single-stim","42","109041","0.0-5.0-28.0","go-nogo","true","0","","true","<div class = centerbox><div  id = stim2></div></div>","32","32","750","","test","go","28","adv","","",""
"","337","32","1493","0","test_block","poldrack-single-stim","43","110659","0.0-5.0-29.0","go-nogo","true","0","","true","<div class = centerbox><div  id = stim2></div></div>","32","32","750","","test","go","29","adv","","",""
"","360","32","1034","0","test_block","poldrack-single-stim","44","111817","0.0-5.0-30.0","go-nogo","true","0","","true","<div class = centerbox><div  id = stim2></div></div>","32","32","750","","test","go","30","adv","","",""
"","426","32","1426","0","test_block","poldrack-single-stim","45","113352","0.0-5.0-31.0","go-nogo","true","0","","true","<div class = centerbox><div  id = stim2></div></div>","32","32","750","","test","go","31","adv","","",""
"","358","32","1311","0","test_block","poldrack-single-stim","46","114806","0.0-5.0-32.0","go-nogo","true","0","","true","<div class = centerbox><div  id = stim2></div></div>","32","32","750","","test","go","32","adv","","",""
"","540","32","1499","0","test_block","poldrack-single-stim","47","116476","0.0-5.0-33.0","go-nogo","true","0","","true","<div class = centerbox><div  id = stim2></div></div>","32","32","750","","test","go","33","adv","","",""
"","311","32","1488","0","test_block","poldrack-single-stim","48","118111","0.0-5.0-34.0","go-nogo","true","0","","true","<div class = centerbox><div  id = stim2></div></div>","32","32","750","","test","go","34","adv","","",""
"","331","32","1481","0","test_block","poldrack-single-stim","49","119743","0.0-5.0-35.0","go-nogo","true","0","","true","<div class = centerbox><div  id = stim2></div></div>","32","32","750","","test","go","35","adv","","",""
"","353","32","1099","0","test_block","poldrack-single-stim","50","120964","0.0-5.0-36.0","go-nogo","true","0","","true","<div class = centerbox><div  id = stim2></div></div>","32","32","750","","test","go","36","adv","","",""
"","331","32","1344","0","test_block","poldrack-single-stim","51","122396","0.0-5.0-37.0","go-nogo","true","0","","true","<div class = centerbox><div  id = stim2></div></div>","32","32","750","","test","go","37","adv","","",""
"","285","32","1355","0","test_block","poldrack-single-stim","52","123895","0.0-5.0-38.0","go-nogo","true","0","","true","<div class = centerbox><div  id = stim2></div></div>","32","32","750","","test","go","38","adv","","",""
"","315","32","1013","0","test_block","poldrack-single-stim","53","125032","0.0-5.0-39.0","go-nogo","true","0","","true","<div class = centerbox><div  id = stim2></div></div>","32","32","750","","test","go","39","adv","","",""
"","357","32","1360","0","test_block","poldrack-single-stim","54","126508","0.0-5.0-40.0","go-nogo","true","0","","true","<div class = centerbox><div  id = stim2></div></div>","32","32","750","","test","go","40","adv","","",""
"","309","32","1453","0","test_block","poldrack-single-stim","55","128075","0.0-5.0-41.0","go-nogo","true","0","","true","<div class = centerbox><div  id = stim2></div></div>","32","32","750","","test","go","41","adv","","",""
"","313","32","1378","0","test_block","poldrack-single-stim","56","129584","0.0-5.0-42.0","go-nogo","true","0","","true","<div class = centerbox><div  id = stim2></div></div>","32","32","750","","test","go","42","adv","","",""
"","300","32","1361","0","test_block","poldrack-single-stim","57","131076","0.0-5.0-43.0","go-nogo","true","0","","true","<div class = centerbox><div  id = stim2></div></div>","32","32","750","","test","go","43","adv","","",""
"","348","32","1033","0","test_block","poldrack-single-stim","58","132248","0.0-5.0-44.0","go-nogo","true","0","","true","<div class = centerbox><div  id = stim2></div></div>","32","32","750","","test","go","44","adv","","",""
"","335","32","1104","0","test_block","poldrack-single-stim","59","133508","0.0-5.0-45.0","go-nogo","true","0","","true","<div class = centerbox><div  id = stim2></div></div>","32","32","750","","test","go","45","adv","","",""
"","308","32","1212","0","test_block","poldrack-single-stim","60","134872","0.0-5.0-46.0","go-nogo","true","0","","true","<div class = centerbox><div  id = stim2></div></div>","32","32","750","","test","go","46","adv","","",""
"","308","32","1167","0","test_block","poldrack-single-stim","61","136169","0.0-5.0-47.0","go-nogo","true","0","","true","<div class = centerbox><div  id = stim2></div></div>","32","32","750","","test","go","47","adv","","",""
"","360","32","1341","0","test_block","poldrack-single-stim","62","137661","0.0-5.0-48.0","go-nogo","true","0","","true","<div class = centerbox><div  id = stim2></div></div>","32","32","750","","test","go","48","adv","","",""
"","43","32","1126","0","test_block","poldrack-single-stim","63","138942","0.0-5.0-49.0","go-nogo","true","0","","true","<div class = centerbox><div  id = stim2></div></div>","32","32","750","","test","go","49","adv","","",""
"","313","32","1421","0","test_block","poldrack-single-stim","64","140490","0.0-5.0-50.0","go-nogo","true","0","","true","<div class = centerbox><div  id = stim2></div></div>","32","32","750","","test","go","50","adv","","",""
"","292","32","1069","0","test_block","poldrack-single-stim","65","141715","0.0-5.0-51.0","go-nogo","true","0","","true","<div class = centerbox><div  id = stim2></div></div>","32","32","750","","test","go","51","adv","","",""
"","348","32","1472","0","test_block","poldrack-single-stim","66","143305","0.0-5.0-52.0","go-nogo","true","0","","true","<div class = centerbox><div  id = stim2></div></div>","32","32","750","","test","go","52","adv","","",""
"","447","32","1449","0","test_block","poldrack-single-stim","67","144887","0.0-5.0-53.0","go-nogo","true","0","","true","<div class = centerbox><div  id = stim2></div></div>","32","32","750","","test","go","53","adv","","",""
"","309","32","1480","0","test_block","poldrack-single-stim","68","146458","0.0-5.0-54.0","go-nogo","true","0","","true","<div class = centerbox><div  id = stim2></div></div>","32","32","750","","test","go","54","adv","","",""
"","331","32","1064","0","test_block","poldrack-single-stim","69","147656","0.0-5.0-55.0","go-nogo","true","0","","true","<div class = centerbox><div  id = stim2></div></div>","32","32","750","","test","go","55","adv","","",""
"","363","32","1072","0","test_block","poldrack-single-stim","70","148806","0.0-5.0-56.0","go-nogo","true","0","","true","<div class = centerbox><div  id = stim2></div></div>","32","32","750","","test","go","56","adv","","",""
"","319","32","1385","0","test_block","poldrack-single-stim","71","150347","0.0-5.0-57.0","go-nogo","true","0","","true","<div class = centerbox><div  id = stim2></div></div>","32","32","750","","test","go","57","adv","","",""
"","335","32","1456","0","test_block","poldrack-single-stim","72","151933","0.0-5.0-58.0","go-nogo","true","0","","true","<div class = centerbox><div  id = stim2></div></div>","32","32","750","","test","go","58","adv","","",""
"","368","32","1359","0","test_block","poldrack-single-stim","73","153428","0.0-5.0-59.0","go-nogo","true","0","","true","<div class = centerbox><div  id = stim2></div></div>","32","32","750","","test","go","59","adv","","",""
"","392","32","1140","0","test_block","poldrack-single-stim","74","154691","0.0-5.0-60.0","go-nogo","true","0","","true","<div class = centerbox><div  id = stim2></div></div>","32","32","750","","test","go","60","adv","","",""
"","291","32","1152","0","test_block","poldrack-single-stim","75","155985","0.0-5.0-61.0","go-nogo","true","0","","true","<div class = centerbox><div  id = stim2></div></div>","32","32","750","","test","go","61","adv","","",""
"","332","32","1295","0","test_block","poldrack-single-stim","76","157406","0.0-5.0-62.0","go-nogo","true","0","","true","<div class = centerbox><div  id = stim2></div></div>","32","32","750","","test","go","62","adv","","",""
"","4","32","1357","0","test_block","poldrack-single-stim","77","158901","0.0-5.0-63.0","go-nogo","true","0","","true","<div class = centerbox><div  id = stim2></div></div>","32","32","750","","test","go","63","adv","","",""
"","339","32","1260","0","test_block","poldrack-single-stim","78","160318","0.0-5.0-64.0","go-nogo","true","0","","true","<div class = centerbox><div  id = stim2></div></div>","32","32","750","","test","go","64","adv","","",""
"","296","32","1498","0","test_block","poldrack-single-stim","79","161969","0.0-5.0-65.0","go-nogo","true","0","","true","<div class = centerbox><div  id = stim2></div></div>","32","32","750","","test","go","65","adv","","",""
"","312","32","1045","0","test_block","poldrack-single-stim","80","163150","0.0-5.0-66.0","go-nogo","true","0","","true","<div class = centerbox><div  id = stim2></div></div>","32","32","750","","test","go","66","adv","","",""
"","309","32","1442","0","test_block","poldrack-single-stim","81","164693","0.0-5.0-67.0","go-nogo","true","0","","true","<div class = centerbox><div  id = stim2></div></div>","32","32","750","","test","go","67","adv","","",""
"","299","32","1158","0","test_block","poldrack-single-stim","82","165981","0.0-5.0-68.0","go-nogo","true","0","","true","<div class = centerbox><div  id = stim2></div></div>","32","32","750","","test","go","68","adv","","",""
"","148","32","1231","0","test_block","poldrack-single-stim","83","167318","0.0-5.0-69.0","go-nogo","true","0","","true","<div class = centerbox><div  id = stim2></div></div>","32","32","750","","test","go","69","adv","","",""
"","315","32","1315","0","test_block","poldrack-single-stim","84","168726","0.0-5.0-70.0","go-nogo","true","0","","true","<div class = centerbox><div  id = stim2></div></div>","32","32","750","","test","go","70","adv","","",""
"","100","32","1364","0","test_block","poldrack-single-stim","85","170185","0.0-5.0-71.0","go-nogo","true","0","","true","<div class = centerbox><div  id = stim2></div></div>","32","32","750","","test","go","71","adv","","",""
"","316","32","1309","0","test_block","poldrack-single-stim","86","171587","0.0-5.0-72.0","go-nogo","true","0","","true","<div class = centerbox><div  id = stim2></div></div>","32","32","750","","test","go","72","adv","","",""
"","336","32","1076","0","test_block","poldrack-single-stim","87","172785","0.0-5.0-73.0","go-nogo","true","0","","true","<div class = centerbox><div  id = stim2></div></div>","32","32","750","","test","go","73","adv","","",""
"","372","32","1350","0","test_block","poldrack-single-stim","88","174247","0.0-5.0-74.0","go-nogo","true","0","","true","<div class = centerbox><div  id = stim2></div></div>","32","32","750","","test","go","74","adv","","",""
"","323","32","1096","0","test_block","poldrack-single-stim","89","175458","0.0-5.0-75.0","go-nogo","true","0","","true","<div class = centerbox><div  id = stim2></div></div>","32","32","750","","test","go","75","adv","","",""
"","275","32","1353","0","test_block","poldrack-single-stim","90","176942","0.0-5.0-76.0","go-nogo","true","0","","true","<div class = centerbox><div  id = stim2></div></div>","32","32","750","","test","go","76","adv","","",""
"","301","32","1279","0","test_block","poldrack-single-stim","91","178326","0.0-5.0-77.0","go-nogo","true","0","","true","<div class = centerbox><div  id = stim2></div></div>","32","32","750","","test","go","77","adv","","",""
"","289","32","1321","0","test_block","poldrack-single-stim","92","179771","0.0-5.0-78.0","go-nogo","true","0","","true","<div class = centerbox><div  id = stim2></div></div>","32","32","750","","test","go","78","adv","","",""
"","304","32","1080","0","test_block","poldrack-single-stim","93","180966","0.0-5.0-79.0","go-nogo","true","0","","true","<div class = centerbox><div  id = stim2></div></div>","32","32","750","","test","go","79","adv","","",""
"","312","32","1416","0","test_block","poldrack-single-stim","94","182495","0.0-5.0-80.0","go-nogo","true","0","","true","<div class = centerbox><div  id = stim2></div></div>","32","32","750","","test","go","80","adv","","",""
"","273","32","1412","0","test_block","poldrack-single-stim","95","184022","0.0-5.0-81.0","go-nogo","true","0","","true","<div class = centerbox><div  id = stim2></div></div>","32","32","750","","test","go","81","adv","","",""
"","266","32","1124","0","test_block","poldrack-single-stim","96","185215","0.0-5.0-82.0","go-nogo","true","0","","true","<div class = centerbox><div  id = stim2></div></div>","32","32","750","","test","go","82","adv","","",""
"","279","32","1190","0","test_block","poldrack-single-stim","97","186507","0.0-5.0-83.0","go-nogo","true","0","","true","<div class = centerbox><div  id = stim2></div></div>","32","32","750","","test","go","83","adv","","",""
"","3","32","1046","0","test_block","poldrack-single-stim","98","187658","0.0-5.0-84.0","go-nogo","true","0","","true","<div class = centerbox><div  id = stim2></div></div>","32","32","750","","test","go","84","adv","","",""
"","306","32","1144","0","test_block","poldrack-single-stim","99","188887","0.0-5.0-85.0","go-nogo","true","0","","true","<div class = centerbox><div  id = stim2></div></div>","32","32","750","","test","go","85","adv","","",""
"","106","32","1034","0","test_block","poldrack-single-stim","100","190051","0.0-5.0-86.0","go-nogo","true","0","","true","<div class = centerbox><div  id = stim2></div></div>","32","32","750","","test","go","86","adv","","",""
"","311","32","1191","0","test_block","poldrack-single-stim","101","191372","0.0-5.0-87.0","go-nogo","true","0","","true","<div class = centerbox><div  id = stim2></div></div>","32","32","750","","test","go","87","adv","","",""
"","39","32","1327","0","test_block","poldrack-single-stim","102","192812","0.0-5.0-88.0","go-nogo","true","0","","true","<div class = centerbox><div  id = stim2></div></div>","32","32","750","","test","go","88","adv","","",""
"","178","32","1226","0","test_block","poldrack-single-stim","103","194144","0.0-5.0-89.0","go-nogo","true","0","","true","<div class = centerbox><div  id = stim2></div></div>","32","32","750","","test","go","89","adv","","",""
"","263","32","1398","0","test_block","poldrack-single-stim","104","195624","0.0-5.0-90.0","go-nogo","true","0","","true","<div class = centerbox><div  id = stim2></div></div>","32","32","750","","test","go","90","adv","","",""
"","343","32","1150","0","test_block","poldrack-single-stim","105","196882","0.0-5.0-91.0","go-nogo","true","0","","true","<div class = centerbox><div  id = stim2></div></div>","32","32","750","","test","go","91","adv","","",""
"","264","32","1473","0","test_block","poldrack-single-stim","106","198418","0.0-5.0-92.0","go-nogo","true","0","","true","<div class = centerbox><div  id = stim2></div></div>","32","32","750","","test","go","92","adv","","",""
"","431","32","1417","0","test_block","poldrack-single-stim","107","199975","0.0-5.0-93.0","go-nogo","true","0","","true","<div class = centerbox><div  id = stim2></div></div>","32","32","750","","test","go","93","adv","","",""
"","374","32","1376","0","test_block","poldrack-single-stim","108","201468","0.0-5.0-94.0","go-nogo","true","0","","true","<div class = centerbox><div  id = stim2></div></div>","32","32","750","","test","go","94","adv","","",""
"","292","32","1081","0","test_block","poldrack-single-stim","109","202641","0.0-5.0-95.0","go-nogo","true","0","","true","<div class = centerbox><div  id = stim2></div></div>","32","32","750","","test","go","95","adv","","",""
"","322","32","1327","0","test_block","poldrack-single-stim","110","204089","0.0-5.0-96.0","go-nogo","true","0","","true","<div class = centerbox><div  id = stim2></div></div>","32","32","750","","test","go","96","adv","","",""
"","294","32","1168","0","test_block","poldrack-single-stim","111","205374","0.0-5.0-97.0","go-nogo","true","0","","true","<div class = centerbox><div  id = stim2></div></div>","32","32","750","","test","go","97","adv","","",""
"","277","32","1007","0","test_block","poldrack-single-stim","112","206490","0.0-5.0-98.0","go-nogo","true","0","","true","<div class = centerbox><div  id = stim2></div></div>","32","32","750","","test","go","98","adv","","",""
"","312","32","1371","0","test_block","poldrack-single-stim","113","207997","0.0-5.0-99.0","go-nogo","true","0","","true","<div class = centerbox><div  id = stim2></div></div>","32","32","750","","test","go","99","adv","","",""
"","305","32","1415","0","test_block","poldrack-single-stim","114","209514","0.0-5.0-100.0","go-nogo","true","0","","true","<div class = centerbox><div  id = stim2></div></div>","32","32","750","","test","go","100","adv","","",""
"","297","32","1318","0","test_block","poldrack-single-stim","115","210953","0.0-5.0-101.0","go-nogo","true","0","","true","<div class = centerbox><div  id = stim2></div></div>","32","32","750","","test","go","101","adv","","",""
"","324","32","1010","0","test_block","poldrack-single-stim","116","212073","0.0-5.0-102.0","go-nogo","true","0","","true","<div class = centerbox><div  id = stim2></div></div>","32","32","750","","test","go","102","adv","","",""
"","407","32","1381","0","test_block","poldrack-single-stim","117","213550","0.0-5.0-103.0","go-nogo","true","0","","true","<div class = centerbox><div  id = stim2></div></div>","32","32","750","","test","go","103","adv","","",""
"","274","32","1014","0","test_block","poldrack-single-stim","118","214703","0.0-5.0-104.0","go-nogo","true","0","","true","<div class = centerbox><div  id = stim2></div></div>","32","32","750","","test","go","104","adv","","",""
"","285","32","1456","0","test_block","poldrack-single-stim","119","216249","0.0-5.0-105.0","go-nogo","true","0","","true","<div class = centerbox><div  id = stim2></div></div>","32","32","750","","test","go","105","adv","","",""
"","306","32","1166","0","test_block","poldrack-single-stim","120","217487","0.0-5.0-106.0","go-nogo","true","0","","true","<div class = centerbox><div  id = stim2></div></div>","32","32","750","","test","go","106","adv","","",""
"","191","32","1461","0","test_block","poldrack-single-stim","121","219029","0.0-5.0-107.0","go-nogo","true","0","","true","<div class = centerbox><div  id = stim2></div></div>","32","32","750","","test","go","107","adv","","",""
"","190","32","1240","0","test_block","poldrack-single-stim","122","220370","0.0-5.0-108.0","go-nogo","true","0","","true","<div class = centerbox><div  id = stim2></div></div>","32","32","750","","test","go","108","adv","","",""
"","297","32","1447","0","test_block","poldrack-single-stim","123","221984","0.0-5.0-109.0","go-nogo","true","0","","true","<div class = centerbox><div  id = stim2></div></div>","32","32","750","","test","go","109","adv","","",""
"","310","32","1198","0","test_block","poldrack-single-stim","124","223266","0.0-5.0-110.0","go-nogo","true","0","","true","<div class = centerbox><div  id = stim2></div></div>","32","32","750","","test","go","110","adv","","",""
"","268","32","1331","0","test_block","poldrack-single-stim","125","224733","0.0-5.0-111.0","go-nogo","true","0","","true","<div class = centerbox><div  id = stim2></div></div>","32","32","750","","test","go","111","adv","","",""
"","183","32","1239","0","test_block","poldrack-single-stim","126","226066","0.0-5.0-112.0","go-nogo","true","0","","true","<div class = centerbox><div  id = stim2></div></div>","32","32","750","","test","go","112","adv","","",""
"","223","32","1208","0","test_block","poldrack-single-stim","127","227390","0.0-5.0-113.0","go-nogo","true","0","","true","<div class = centerbox><div  id = stim2></div></div>","32","32","750","","test","go","113","adv","","",""
"","131","32","1014","0","test_block","poldrack-single-stim","128","228530","0.0-5.0-114.0","go-nogo","true","0","","true","<div class = centerbox><div  id = stim2></div></div>","32","32","750","","test","go","114","adv","","",""
"","356","32","1033","0","test_block","poldrack-single-stim","129","229689","0.0-5.0-115.0","go-nogo","true","0","","true","<div class = centerbox><div  id = stim2></div></div>","32","32","750","","test","go","115","adv","","",""
"","333","32","1108","0","test_block","poldrack-single-stim","130","230862","0.0-5.0-116.0","go-nogo","true","0","","true","<div class = centerbox><div  id = stim2></div></div>","32","32","750","","test","go","116","adv","","",""
"","267","32","1163","0","test_block","poldrack-single-stim","131","232130","0.0-5.0-117.0","go-nogo","true","0","","true","<div class = centerbox><div  id = stim2></div></div>","32","32","750","","test","go","117","adv","","",""
"","312","32","1017","0","test_block","poldrack-single-stim","132","233291","0.0-5.0-118.0","go-nogo","true","0","","true","<div class = centerbox><div  id = stim2></div></div>","32","32","750","","test","go","118","adv","","",""
"","262","32","1133","0","test_block","poldrack-single-stim","133","234526","0.0-5.0-119.0","go-nogo","true","0","","true","<div class = centerbox><div  id = stim2></div></div>","32","32","750","","test","go","119","adv","","",""
"","287","32","1395","0","test_block","poldrack-single-stim","134","236050","0.0-5.0-120.0","go-nogo","true","0","","true","<div class = centerbox><div  id = stim2></div></div>","32","32","750","","test","go","120","adv","","",""
"","314","32","1160","0","test_block","poldrack-single-stim","135","237325","0.0-5.0-121.0","go-nogo","true","0","","true","<div class = centerbox><div  id = stim2></div></div>","32","32","750","","test","go","121","adv","","",""
"","351","32","1233","0","test_block","poldrack-single-stim","136","238675","0.0-5.0-122.0","go-nogo","true","0","","true","<div class = centerbox><div  id = stim2></div></div>","32","32","750","","test","go","122","adv","","",""
"","315","32","1252","0","test_block","poldrack-single-stim","137","240039","0.0-5.0-123.0","go-nogo","true","0","","true","<div class = centerbox><div  id = stim2></div></div>","32","32","750","","test","go","123","adv","","",""
"","299","32","1144","0","test_block","poldrack-single-stim","138","241304","0.0-5.0-124.0","go-nogo","true","0","","true","<div class = centerbox><div  id = stim2></div></div>","32","32","750","","test","go","124","adv","","",""
"","390","32","1208","0","test_block","poldrack-single-stim","139","242622","0.0-5.0-125.0","go-nogo","true","0","","true","<div class = centerbox><div  id = stim2></div></div>","32","32","750","","test","go","125","adv","","",""
"","324","32","1438","0","test_block","poldrack-single-stim","140","244179","0.0-5.0-126.0","go-nogo","true","0","","true","<div class = centerbox><div  id = stim2></div></div>","32","32","750","","test","go","126","adv","","",""
"","338","32","1273","0","test_block","poldrack-single-stim","141","245583","0.0-5.0-127.0","go-nogo","true","0","","true","<div class = centerbox><div  id = stim2></div></div>","32","32","750","","test","go","127","adv","","",""
"","368","32","1109","0","test_block","poldrack-single-stim","142","246859","0.0-5.0-128.0","go-nogo","true","0","","true","<div class = centerbox><div  id = stim2></div></div>","32","32","750","","test","go","128","adv","","",""
"","399","32","1421","0","test_block","poldrack-single-stim","143","248400","0.0-5.0-129.0","go-nogo","true","0","","true","<div class = centerbox><div  id = stim2></div></div>","32","32","750","","test","go","129","adv","","",""
"","327","32","1125","0","test_block","poldrack-single-stim","144","249645","0.0-5.0-130.0","go-nogo","true","0","","true","<div class = centerbox><div  id = stim2></div></div>","32","32","750","","test","go","130","adv","","",""
"","258","32","1146","0","test_block","poldrack-single-stim","145","250931","0.0-5.0-131.0","go-nogo","true","0","","true","<div class = centerbox><div  id = stim2></div></div>","32","32","750","","test","go","131","adv","","",""
"","284","32","1308","0","test_block","poldrack-single-stim","146","252391","0.0-5.0-132.0","go-nogo","true","0","","true","<div class = centerbox><div  id = stim2></div></div>","32","32","750","","test","go","132","adv","","",""
"","115","32","1302","0","test_block","poldrack-single-stim","147","253814","0.0-5.0-133.0","go-nogo","true","0","","true","<div class = centerbox><div  id = stim2></div></div>","32","32","750","","test","go","133","adv","","",""
"","265","32","1407","0","test_block","poldrack-single-stim","148","255313","0.0-5.0-134.0","go-nogo","true","0","","true","<div class = centerbox><div  id = stim2></div></div>","32","32","750","","test","go","134","adv","","",""
"","240","32","1026","0","test_block","poldrack-single-stim","149","256436","0.0-5.0-135.0","go-nogo","true","0","","true","<div class = centerbox><div  id = stim2></div></div>","32","32","750","","test","go","135","adv","","",""
"","349","32","1448","0","test_block","poldrack-single-stim","150","258008","0.0-5.0-136.0","go-nogo","true","0","","true","<div class = centerbox><div  id = stim2></div></div>","32","32","750","","test","go","136","adv","","",""
"","240","32","1468","0","test_block","poldrack-single-stim","151","259540","0.0-5.0-137.0","go-nogo","true","0","","true","<div class = centerbox><div  id = stim2></div></div>","32","32","750","","test","go","137","adv","","",""
"","71","32","1499","0","test_block","poldrack-single-stim","152","261164","0.0-5.0-138.0","go-nogo","true","0","","true","<div class = centerbox><div  id = stim2></div></div>","32","32","750","","test","go","138","adv","","",""
"","2","32","1490","0","test_block","poldrack-single-stim","153","262753","0.0-5.0-139.0","go-nogo","true","0","","true","<div class = centerbox><div  id = stim2></div></div>","32","32","750","","test","go","139","adv","","",""
"","302","32","1284","0","test_block","poldrack-single-stim","154","264136","0.0-5.0-140.0","go-nogo","true","0","","true","<div class = centerbox><div  id = stim2></div></div>","32","32","750","","test","go","140","adv","","",""
"","290","32","1406","0","test_block","poldrack-single-stim","155","265665","0.0-5.0-141.0","go-nogo","true","0","","true","<div class = centerbox><div  id = stim2></div></div>","32","32","750","","test","go","141","adv","","",""
"","278","32","1135","0","test_block","poldrack-single-stim","156","266892","0.0-5.0-142.0","go-nogo","true","0","","true","<div class = centerbox><div  id = stim2></div></div>","32","32","750","","test","go","142","adv","","",""
"","326","32","1127","0","test_block","poldrack-single-stim","157","268117","0.0-5.0-143.0","go-nogo","true","0","","true","<div class = centerbox><div  id = stim2></div></div>","32","32","750","","test","go","143","adv","","",""
"","262","32","1141","0","test_block","poldrack-single-stim","158","269378","0.0-5.0-144.0","go-nogo","true","0","","true","<div class = centerbox><div  id = stim2></div></div>","32","32","750","","test","go","144","adv","","",""
"","112","32","1251","0","test_block","poldrack-single-stim","159","270776","0.0-5.0-145.0","go-nogo","true","0","","true","<div class = centerbox><div  id = stim2></div></div>","32","32","750","","test","go","145","adv","","",""
"","216","32","1044","0","test_block","poldrack-single-stim","160","271910","0.0-5.0-146.0","go-nogo","true","0","","true","<div class = centerbox><div  id = stim2></div></div>","32","32","750","","test","go","146","adv","","",""
"","308","32","1461","0","test_block","poldrack-single-stim","161","273501","0.0-5.0-147.0","go-nogo","true","0","","true","<div class = centerbox><div  id = stim2></div></div>","32","32","750","","test","go","147","adv","","",""
"","282","32","1404","0","test_block","poldrack-single-stim","162","275005","0.0-5.0-148.0","go-nogo","true","0","","true","<div class = centerbox><div  id = stim2></div></div>","32","32","750","","test","go","148","adv","","",""
"","270","32","1474","0","test_block","poldrack-single-stim","163","276629","0.0-5.0-149.0","go-nogo","true","0","","true","<div class = centerbox><div  id = stim2></div></div>","32","32","750","","test","go","149","adv","","",""
"","281","32","1137","0","test_block","poldrack-single-stim","164","277865","0.0-5.0-150.0","go-nogo","true","0","","true","<div class = centerbox><div  id = stim2></div></div>","32","32","750","","test","go","150","adv","","",""
"","241","32","1025","0","test_block","poldrack-single-stim","165","279016","0.0-5.0-151.0","go-nogo","true","0","","true","<div class = centerbox><div  id = stim2></div></div>","32","32","750","","test","go","151","adv","","",""
"","306","32","1107","0","test_block","poldrack-single-stim","166","280198","0.0-5.0-152.0","go-nogo","true","0","","true","<div class = centerbox><div  id = stim2></div></div>","32","32","750","","test","go","152","adv","","",""
"","262","32","1058","0","test_block","poldrack-single-stim","167","281411","0.0-5.0-153.0","go-nogo","true","0","","true","<div class = centerbox><div  id = stim2></div></div>","32","32","750","","test","go","153","adv","","",""
"","272","32","1356","0","test_block","poldrack-single-stim","168","282918","0.0-5.0-154.0","go-nogo","true","0","","true","<div class = centerbox><div  id = stim2></div></div>","32","32","750","","test","go","154","adv","","",""
"","19","32","1360","0","test_block","poldrack-single-stim","169","284403","0.0-5.0-155.0","go-nogo","true","0","","true","<div class = centerbox><div  id = stim2></div></div>","32","32","750","","test","go","155","adv","","",""
"","288","32","1319","0","test_block","poldrack-single-stim","170","285830","0.0-5.0-156.0","go-nogo","true","0","","true","<div class = centerbox><div  id = stim2></div></div>","32","32","750","","test","go","156","adv","","",""
"","154","32","1294","0","test_block","poldrack-single-stim","171","287232","0.0-5.0-157.0","go-nogo","true","0","","true","<div class = centerbox><div  id = stim2></div></div>","32","32","750","","test","go","157","adv","","",""
"","2","32","1201","0","test_block","poldrack-single-stim","172","288583","0.0-5.0-158.0","go-nogo","true","0","","true","<div class = centerbox><div  id = stim2></div></div>","32","32","750","","test","go","158","adv","","",""
"","294","32","1481","0","test_block","poldrack-single-stim","173","290178","0.0-5.0-159.0","go-nogo","true","0","","true","<div class = centerbox><div  id = stim2></div></div>","32","32","750","","test","go","159","adv","","",""
"","22","32","1255","0","test_block","poldrack-single-stim","174","291590","0.0-5.0-160.0","go-nogo","true","0","","false","<div class = centerbox><div  id = stim1></div></div>","-1","32","750","","test","nogo","160","adv","","",""
"","440","32","1287","0","test_block","poldrack-single-stim","175","293012","0.0-5.0-161.0","go-nogo","true","0","","true","<div class = centerbox><div  id = stim2></div></div>","32","32","750","","test","go","161","adv","","",""
"","259","32","1376","0","test_block","poldrack-single-stim","176","294513","0.0-5.0-162.0","go-nogo","true","0","","true","<div class = centerbox><div  id = stim2></div></div>","32","32","750","","test","go","162","adv","","",""
"","0","32","1281","0","test_block","poldrack-single-stim","177","295919","0.0-5.0-163.0","go-nogo","true","0","","false","<div class = centerbox><div  id = stim1></div></div>","-1","32","750","","test","nogo","163","adv","","",""
"","426","32","1053","0","test_block","poldrack-single-stim","178","297146","0.0-5.0-164.0","go-nogo","true","0","","true","<div class = centerbox><div  id = stim2></div></div>","32","32","750","","test","go","164","adv","","",""
"","394","32","1440","0","test_block","poldrack-single-stim","179","298699","0.0-5.0-165.0","go-nogo","true","0","","true","<div class = centerbox><div  id = stim2></div></div>","32","32","750","","test","go","165","adv","","",""
"","-1","-1","1399","0","test_block","poldrack-single-stim","180","300207","0.0-5.0-166.0","go-nogo","true","0","","true","<div class = centerbox><div  id = stim1></div></div>","-1","32","750","","test","nogo","166","adv","","",""
"","417","32","1388","0","test_block","poldrack-single-stim","181","301710","0.0-5.0-167.0","go-nogo","true","0","","true","<div class = centerbox><div  id = stim2></div></div>","32","32","750","","test","go","167","adv","","",""
"","381","32","1225","0","test_block","poldrack-single-stim","182","302996","0.0-5.0-168.0","go-nogo","true","0","","true","<div class = centerbox><div  id = stim2></div></div>","32","32","750","","test","go","168","adv","","",""
"","-1","-1","1449","0","test_block","poldrack-single-stim","183","304548","0.0-5.0-169.0","go-nogo","true","0","","true","<div class = centerbox><div  id = stim1></div></div>","-1","32","750","","test","nogo","169","adv","","",""
"","336","32","1304","0","test_block","poldrack-single-stim","184","305991","0.0-5.0-170.0","go-nogo","true","0","","true","<div class = centerbox><div  id = stim2></div></div>","32","32","750","","test","go","170","adv","","",""
"","314","32","1485","0","test_block","poldrack-single-stim","185","307584","0.0-5.0-171.0","go-nogo","true","0","","true","<div class = centerbox><div  id = stim2></div></div>","32","32","750","","test","go","171","adv","","",""
"","-1","-1","1148","0","test_block","poldrack-single-stim","186","308844","0.0-5.0-172.0","go-nogo","true","0","","true","<div class = centerbox><div  id = stim1></div></div>","-1","32","750","","test","nogo","172","adv","","",""
"","435","32","1066","0","test_block","poldrack-single-stim","187","310010","0.0-5.0-173.0","go-nogo","true","0","","true","<div class = centerbox><div  id = stim2></div></div>","32","32","750","","test","go","173","adv","","",""
"","204","32","1207","0","test_block","poldrack-single-stim","188","311325","0.0-5.0-174.0","go-nogo","true","0","","true","<div class = centerbox><div  id = stim2></div></div>","32","32","750","","test","go","174","adv","","",""
"","480","32","1153","0","test_block","poldrack-single-stim","189","312603","0.0-5.0-175.0","go-nogo","true","0","","true","<div class = centerbox><div  id = stim2></div></div>","32","32","750","","test","go","175","adv","","",""
"","360","32","1196","0","test_block","poldrack-single-stim","190","313914","0.0-5.0-176.0","go-nogo","true","0","","true","<div class = centerbox><div  id = stim2></div></div>","32","32","750","","test","go","176","adv","","",""
"","366","32","1361","0","test_block","poldrack-single-stim","191","315370","0.0-5.0-177.0","go-nogo","true","0","","true","<div class = centerbox><div  id = stim2></div></div>","32","32","750","","test","go","177","adv","","",""
"","351","32","1262","0","test_block","poldrack-single-stim","192","316740","0.0-5.0-178.0","go-nogo","true","0","","true","<div class = centerbox><div  id = stim2></div></div>","32","32","750","","test","go","178","adv","","",""
"","335","32","1112","0","test_block","poldrack-single-stim","193","317941","0.0-5.0-179.0","go-nogo","true","0","","false","<div class = centerbox><div  id = stim1></div></div>","-1","32","750","","test","nogo","179","adv","","",""
"","388","32","1407","0","test_block","poldrack-single-stim","194","319482","0.0-5.0-180.0","go-nogo","true","0","","true","<div class = centerbox><div  id = stim2></div></div>","32","32","750","","test","go","180","adv","","",""
"","334","32","1248","0","test_block","poldrack-single-stim","195","320867","0.0-5.0-181.0","go-nogo","true","0","","true","<div class = centerbox><div  id = stim2></div></div>","32","32","750","","test","go","181","adv","","",""
"","-1","-1","1443","0","test_block","poldrack-single-stim","196","322398","0.0-5.0-182.0","go-nogo","true","0","","true","<div class = centerbox><div  id = stim1></div></div>","-1","32","750","","test","nogo","182","adv","","",""
"","338","32","1164","0","test_block","poldrack-single-stim","197","323702","0.0-5.0-183.0","go-nogo","true","0","","true","<div class = centerbox><div  id = stim2></div></div>","32","32","750","","test","go","183","adv","","",""
"","331","32","1222","0","test_block","poldrack-single-stim","198","325025","0.0-5.0-184.0","go-nogo","true","0","","true","<div class = centerbox><div  id = stim2></div></div>","32","32","750","","test","go","184","adv","","",""
"","368","32","1213","0","test_block","poldrack-single-stim","199","326357","0.0-5.0-185.0","go-nogo","true","0","","true","<div class = centerbox><div  id = stim2></div></div>","32","32","750","","test","go","185","adv","","",""
"","-1","-1","1196","0","test_block","poldrack-single-stim","200","327614","0.0-5.0-186.0","go-nogo","true","0","","true","<div class = centerbox><div  id = stim1></div></div>","-1","32","750","","test","nogo","186","adv","","",""
"","468","32","1173","0","test_block","poldrack-single-stim","201","328857","0.0-5.0-187.0","go-nogo","true","0","","true","<div class = centerbox><div  id = stim2></div></div>","32","32","750","","test","go","187","adv","","",""
"","439","32","1034","0","test_block","poldrack-single-stim","202","329998","0.0-5.0-188.0","go-nogo","true","0","","true","<div class = centerbox><div  id = stim2></div></div>","32","32","750","","test","go","188","adv","","",""
"","398","32","1213","0","test_block","poldrack-single-stim","203","331348","0.0-5.0-189.0","go-nogo","true","0","","true","<div class = centerbox><div  id = stim2></div></div>","32","32","750","","test","go","189","adv","","",""
"","359","32","1144","0","test_block","poldrack-single-stim","204","332583","0.0-5.0-190.0","go-nogo","true","0","","true","<div class = centerbox><div  id = stim2></div></div>","32","32","750","","test","go","190","adv","","",""
"","363","32","1258","0","test_block","poldrack-single-stim","205","333928","0.0-5.0-191.0","go-nogo","true","0","","true","<div class = centerbox><div  id = stim2></div></div>","32","32","750","","test","go","191","adv","","",""
"","361","32","1054","0","test_block","poldrack-single-stim","206","335082","0.0-5.0-192.0","go-nogo","true","0","","true","<div class = centerbox><div  id = stim2></div></div>","32","32","750","","test","go","192","adv","","",""
"","433","32","1131","0","test_block","poldrack-single-stim","207","336303","0.0-5.0-193.0","go-nogo","true","0","","true","<div class = centerbox><div  id = stim2></div></div>","32","32","750","","test","go","193","adv","","",""
"","-1","-1","1467","0","test_block","poldrack-single-stim","208","337870","0.0-5.0-194.0","go-nogo","true","0","","true","<div class = centerbox><div  id = stim1></div></div>","-1","32","750","","test","nogo","194","adv","","",""
"","361","32","1450","0","test_block","poldrack-single-stim","209","339414","0.0-5.0-195.0","go-nogo","true","0","","true","<div class = centerbox><div  id = stim2></div></div>","32","32","750","","test","go","195","adv","","",""
"","397","32","1394","0","test_block","poldrack-single-stim","210","340908","0.0-5.0-196.0","go-nogo","true","0","","true","<div class = centerbox><div  id = stim2></div></div>","32","32","750","","test","go","196","adv","","",""
"","363","32","1328","0","test_block","poldrack-single-stim","211","342328","0.0-5.0-197.0","go-nogo","true","0","","true","<div class = centerbox><div  id = stim2></div></div>","32","32","750","","test","go","197","adv","","",""
"","288","32","1220","0","test_block","poldrack-single-stim","212","343642","0.0-5.0-198.0","go-nogo","true","0","","true","<div class = centerbox><div  id = stim2></div></div>","32","32","750","","test","go","198","adv","","",""
"","279","32","1304","0","test_block","poldrack-single-stim","213","345058","0.0-5.0-199.0","go-nogo","true","0","","true","<div class = centerbox><div  id = stim2></div></div>","32","32","750","","test","go","199","adv","","",""
"","331","32","1042","0","test_block","poldrack-single-stim","214","346186","0.0-5.0-200.0","go-nogo","true","0","","true","<div class = centerbox><div  id = stim2></div></div>","32","32","750","","test","go","200","adv","","",""
"","364","32","1247","0","test_block","poldrack-single-stim","215","347538","0.0-5.0-201.0","go-nogo","true","0","","true","<div class = centerbox><div  id = stim2></div></div>","32","32","750","","test","go","201","adv","","",""
"","317","32","1129","0","test_block","poldrack-single-stim","216","348739","0.0-5.0-202.0","go-nogo","true","0","","true","<div class = centerbox><div  id = stim2></div></div>","32","32","750","","test","go","202","adv","","",""
"","324","32","1145","0","test_block","poldrack-single-stim","217","349991","0.0-5.0-203.0","go-nogo","true","0","","true","<div class = centerbox><div  id = stim2></div></div>","32","32","750","","test","go","203","adv","","",""
"","1375","32","1412","0","test_block","poldrack-single-stim","218","351492","0.0-5.0-204.0","go-nogo","true","0","","false","<div class = centerbox><div  id = stim1></div></div>","-1","32","750","","test","nogo","204","adv","","",""
"","484","32","1383","0","test_block","poldrack-single-stim","219","352959","0.0-5.0-205.0","go-nogo","true","0","","true","<div class = centerbox><div  id = stim2></div></div>","32","32","750","","test","go","205","adv","","",""
"","324","32","1329","0","test_block","poldrack-single-stim","220","354393","0.0-5.0-206.0","go-nogo","true","0","","true","<div class = centerbox><div  id = stim2></div></div>","32","32","750","","test","go","206","adv","","",""
"","313","32","1157","0","test_block","poldrack-single-stim","221","355669","0.0-5.0-207.0","go-nogo","true","0","","false","<div class = centerbox><div  id = stim1></div></div>","-1","32","750","","test","nogo","207","adv","","",""
"","399","32","1102","0","test_block","poldrack-single-stim","222","356855","0.0-5.0-208.0","go-nogo","true","0","","true","<div class = centerbox><div  id = stim2></div></div>","32","32","750","","test","go","208","adv","","",""
"","316","32","1023","0","test_block","poldrack-single-stim","223","357983","0.0-5.0-209.0","go-nogo","true","0","","true","<div class = centerbox><div  id = stim2></div></div>","32","32","750","","test","go","209","adv","","",""
"","-1","-1","1188","0","test_block","poldrack-single-stim","224","359304","0.0-5.0-210.0","go-nogo","true","0","","true","<div class = centerbox><div  id = stim1></div></div>","-1","32","750","","test","nogo","210","adv","","",""
"","168","32","1043","0","test_block","poldrack-single-stim","225","360466","0.0-5.0-211.0","go-nogo","true","0","","true","<div class = centerbox><div  id = stim2></div></div>","32","32","750","","test","go","211","adv","","",""
"","503","32","1007","0","test_block","poldrack-single-stim","226","361576","0.0-5.0-212.0","go-nogo","true","0","","true","<div class = centerbox><div  id = stim2></div></div>","32","32","750","","test","go","212","adv","","",""
"","355","32","1456","0","test_block","poldrack-single-stim","227","363152","0.0-5.0-213.0","go-nogo","true","0","","false","<div class = centerbox><div  id = stim1></div></div>","-1","32","750","","test","nogo","213","adv","","",""
"","365","32","1153","0","test_block","poldrack-single-stim","228","364380","0.0-5.0-214.0","go-nogo","true","0","","true","<div class = centerbox><div  id = stim2></div></div>","32","32","750","","test","go","214","adv","","",""
"","475","32","1365","0","test_block","poldrack-single-stim","229","365852","0.0-5.0-215.0","go-nogo","true","0","","true","<div class = centerbox><div  id = stim2></div></div>","32","32","750","","test","go","215","adv","","",""
"","-1","-1","1205","0","test_block","poldrack-single-stim","230","367176","0.0-5.0-216.0","go-nogo","true","0","","true","<div class = centerbox><div  id = stim1></div></div>","-1","32","750","","test","nogo","216","adv","","",""
"","359","32","1092","0","test_block","poldrack-single-stim","231","368372","0.0-5.0-217.0","go-nogo","true","0","","true","<div class = centerbox><div  id = stim2></div></div>","32","32","750","","test","go","217","adv","","",""
"","854","32","1197","0","test_block","poldrack-single-stim","232","369674","0.0-5.0-218.0","go-nogo","true","0","","true","<div class = centerbox><div  id = stim2></div></div>","32","32","750","","test","go","218","adv","","",""
"","492","32","1402","0","test_block","poldrack-single-stim","233","371177","0.0-5.0-219.0","go-nogo","true","0","","false","<div class = centerbox><div  id = stim1></div></div>","-1","32","750","","test","nogo","219","adv","","",""
"","368","32","1194","0","test_block","poldrack-single-stim","234","372507","0.0-5.0-220.0","go-nogo","true","0","","false","<div class = centerbox><div  id = stim1></div></div>","-1","32","750","","test","nogo","220","adv","","",""
"","-1","-1","1488","0","test_block","poldrack-single-stim","235","374137","0.0-5.0-221.0","go-nogo","true","0","","true","<div class = centerbox><div  id = stim1></div></div>","-1","32","750","","test","nogo","221","adv","","",""
"","424","32","1131","0","test_block","poldrack-single-stim","236","375406","0.0-5.0-222.0","go-nogo","true","0","","true","<div class = centerbox><div  id = stim2></div></div>","32","32","750","","test","go","222","adv","","",""
"","502","32","1392","0","test_block","poldrack-single-stim","237","376881","0.0-5.0-223.0","go-nogo","true","0","","true","<div class = centerbox><div  id = stim2></div></div>","32","32","750","","test","go","223","adv","","",""
"","-1","-1","1145","0","test_block","poldrack-single-stim","238","378125","0.0-5.0-224.0","go-nogo","true","0","","true","<div class = centerbox><div  id = stim1></div></div>","-1","32","750","","test","nogo","224","adv","","",""
"","443","32","1041","0","test_block","poldrack-single-stim","239","379306","0.0-5.0-225.0","go-nogo","true","0","","true","<div class = centerbox><div  id = stim2></div></div>","32","32","750","","test","go","225","adv","","",""
"","404","32","1316","0","test_block","poldrack-single-stim","240","380749","0.0-5.0-226.0","go-nogo","true","0","","true","<div class = centerbox><div  id = stim2></div></div>","32","32","750","","test","go","226","adv","","",""
"","468","32","1147","0","test_block","poldrack-single-stim","241","382009","0.0-5.0-227.0","go-nogo","true","0","","true","<div class = centerbox><div  id = stim2></div></div>","32","32","750","","test","go","227","adv","","",""
"","-1","-1","1464","0","test_block","poldrack-single-stim","242","383592","0.0-5.0-228.0","go-nogo","true","0","","true","<div class = centerbox><div  id = stim1></div></div>","-1","32","750","","test","nogo","228","adv","","",""
"","452","32","1309","0","test_block","poldrack-single-stim","243","385034","0.0-5.0-229.0","go-nogo","true","0","","true","<div class = centerbox><div  id = stim2></div></div>","32","32","750","","test","go","229","adv","","",""
"","367","32","1377","0","test_block","poldrack-single-stim","244","386550","0.0-5.0-230.0","go-nogo","true","0","","true","<div class = centerbox><div  id = stim2></div></div>","32","32","750","","test","go","230","adv","","",""
"","374","32","1260","0","test_block","poldrack-single-stim","245","387918","0.0-5.0-231.0","go-nogo","true","0","","true","<div class = centerbox><div  id = stim2></div></div>","32","32","750","","test","go","231","adv","","",""
"","364","32","1345","0","test_block","poldrack-single-stim","246","389390","0.0-5.0-232.0","go-nogo","true","0","","true","<div class = centerbox><div  id = stim2></div></div>","32","32","750","","test","go","232","adv","","",""
"","545","32","1153","0","test_block","poldrack-single-stim","247","390645","0.0-5.0-233.0","go-nogo","true","0","","true","<div class = centerbox><div  id = stim2></div></div>","32","32","750","","test","go","233","adv","","",""
"","334","32","1258","0","test_block","poldrack-single-stim","248","392022","0.0-5.0-234.0","go-nogo","true","0","","true","<div class = centerbox><div  id = stim2></div></div>","32","32","750","","test","go","234","adv","","",""
"","320","32","1291","0","test_block","poldrack-single-stim","249","393446","0.0-5.0-235.0","go-nogo","true","0","","true","<div class = centerbox><div  id = stim2></div></div>","32","32","750","","test","go","235","adv","","",""
"","370","32","1244","0","test_block","poldrack-single-stim","250","394786","0.0-5.0-236.0","go-nogo","true","0","","true","<div class = centerbox><div  id = stim2></div></div>","32","32","750","","test","go","236","adv","","",""
"","411","32","1089","0","test_block","poldrack-single-stim","251","395966","0.0-5.0-237.0","go-nogo","true","0","","true","<div class = centerbox><div  id = stim2></div></div>","32","32","750","","test","go","237","adv","","",""
"","-1","-1","1128","0","test_block","poldrack-single-stim","252","397182","0.0-5.0-238.0","go-nogo","true","0","","true","<div class = centerbox><div  id = stim1></div></div>","-1","32","750","","test","nogo","238","adv","","",""
"","399","32","1401","0","test_block","poldrack-single-stim","253","398711","0.0-5.0-239.0","go-nogo","true","0","","true","<div class = centerbox><div  id = stim2></div></div>","32","32","750","","test","go","239","adv","","",""
"","357","32","1098","0","test_block","poldrack-single-stim","254","399899","0.0-5.0-240.0","go-nogo","true","0","","true","<div class = centerbox><div  id = stim2></div></div>","32","32","750","","test","go","240","adv","","",""
"","515","32","1183","0","test_block","poldrack-single-stim","255","401182","0.0-5.0-241.0","go-nogo","true","0","","true","<div class = centerbox><div  id = stim2></div></div>","32","32","750","","test","go","241","adv","","",""
"","481","32","1157","0","test_block","poldrack-single-stim","256","402476","0.0-5.0-242.0","go-nogo","true","0","","true","<div class = centerbox><div  id = stim2></div></div>","32","32","750","","test","go","242","adv","","",""
"","376","32","1498","0","test_block","poldrack-single-stim","257","404070","0.0-5.0-243.0","go-nogo","true","0","","true","<div class = centerbox><div  id = stim2></div></div>","32","32","750","","test","go","243","adv","","",""
"","306","32","1244","0","test_block","poldrack-single-stim","258","405420","0.0-5.0-244.0","go-nogo","true","0","","true","<div class = centerbox><div  id = stim2></div></div>","32","32","750","","test","go","244","adv","","",""
"","613","32","1113","0","test_block","poldrack-single-stim","259","406631","0.0-5.0-245.0","go-nogo","true","0","","true","<div class = centerbox><div  id = stim2></div></div>","32","32","750","","test","go","245","adv","","",""
"","632","32","1429","0","test_block","poldrack-single-stim","260","408151","0.0-5.0-246.0","go-nogo","true","0","","true","<div class = centerbox><div  id = stim2></div></div>","32","32","750","","test","go","246","adv","","",""
"","314","32","1330","0","test_block","poldrack-single-stim","261","409599","0.0-5.0-247.0","go-nogo","true","0","","true","<div class = centerbox><div  id = stim2></div></div>","32","32","750","","test","go","247","adv","","",""
"","-1","-1","1300","0","test_block","poldrack-single-stim","262","411019","0.0-5.0-248.0","go-nogo","true","0","","true","<div class = centerbox><div  id = stim1></div></div>","-1","32","750","","test","nogo","248","adv","","",""
"","1","32","1420","0","test_block","poldrack-single-stim","263","412508","0.0-5.0-249.0","go-nogo","true","0","","true","<div class = centerbox><div  id = stim2></div></div>","32","32","750","","test","go","249","adv","","",""
"","313","32","1178","0","test_block","poldrack-single-stim","264","413831","0.0-5.0-250.0","go-nogo","true","0","","true","<div class = centerbox><div  id = stim2></div></div>","32","32","750","","test","go","250","adv","","",""
"","1113","32","1456","0","test_block","poldrack-single-stim","265","415407","0.0-5.0-251.0","go-nogo","true","0","","true","<div class = centerbox><div  id = stim2></div></div>","32","32","750","","test","go","251","adv","","",""
"","233","32","1479","0","test_block","poldrack-single-stim","266","417008","0.0-5.0-252.0","go-nogo","true","0","","true","<div class = centerbox><div  id = stim2></div></div>","32","32","750","","test","go","252","adv","","",""
"","156","32","1428","0","test_block","poldrack-single-stim","267","418529","0.0-5.0-253.0","go-nogo","true","0","","true","<div class = centerbox><div  id = stim2></div></div>","32","32","750","","test","go","253","adv","","",""
"","366","32","1084","0","test_block","poldrack-single-stim","268","419760","0.0-5.0-254.0","go-nogo","true","0","","true","<div class = centerbox><div  id = stim2></div></div>","32","32","750","","test","go","254","adv","","",""
"","-1","-1","1362","0","test_block","poldrack-single-stim","269","421201","0.0-5.0-255.0","go-nogo","true","0","","false","<div class = centerbox><div  id = stim2></div></div>","32","32","750","","test","go","255","adv","","",""
"","1411","32","1434","0","test_block","poldrack-single-stim","270","422735","0.0-5.0-256.0","go-nogo","true","0","","true","<div class = centerbox><div  id = stim2></div></div>","32","32","750","","test","go","256","adv","","",""
"","296","32","1358","0","test_block","poldrack-single-stim","271","424169","0.0-5.0-257.0","go-nogo","true","0","","false","<div class = centerbox><div  id = stim1></div></div>","-1","32","750","","test","nogo","257","adv","","",""
"","-1","-1","1348","0","test_block","poldrack-single-stim","272","425629","0.0-5.0-258.0","go-nogo","true","0","","true","<div class = centerbox><div  id = stim1></div></div>","-1","32","750","","test","nogo","258","adv","","",""
"","0","32","1060","0","test_block","poldrack-single-stim","273","426829","0.0-5.0-259.0","go-nogo","true","0","","true","<div class = centerbox><div  id = stim2></div></div>","32","32","750","","test","go","259","adv","","",""
"","404","32","1172","0","test_block","poldrack-single-stim","274","428065","0.0-5.0-260.0","go-nogo","true","0","","true","<div class = centerbox><div  id = stim2></div></div>","32","32","750","","test","go","260","adv","","",""
"","803","32","1086","0","test_block","poldrack-single-stim","275","429270","0.0-5.0-261.0","go-nogo","true","0","","true","<div class = centerbox><div  id = stim2></div></div>","32","32","750","","test","go","261","adv","","",""
"","-1","-1","1099","0","test_block","poldrack-single-stim","276","430494","0.0-5.0-262.0","go-nogo","true","0","","true","<div class = centerbox><div  id = stim1></div></div>","-1","32","750","","test","nogo","262","adv","","",""
"","2","32","1179","0","test_block","poldrack-single-stim","277","431835","0.0-5.0-263.0","go-nogo","true","0","","true","<div class = centerbox><div  id = stim2></div></div>","32","32","750","","test","go","263","adv","","",""
"","373","32","1262","0","test_block","poldrack-single-stim","278","433215","0.0-5.0-264.0","go-nogo","true","0","","true","<div class = centerbox><div  id = stim2></div></div>","32","32","750","","test","go","264","adv","","",""
"","411","32","1050","0","test_block","poldrack-single-stim","279","434350","0.0-5.0-265.0","go-nogo","true","0","","true","<div class = centerbox><div  id = stim2></div></div>","32","32","750","","test","go","265","adv","","",""
"","440","32","1410","0","test_block","poldrack-single-stim","280","435873","0.0-5.0-266.0","go-nogo","true","0","","true","<div class = centerbox><div  id = stim2></div></div>","32","32","750","","test","go","266","adv","","",""
"","330","32","1298","0","test_block","poldrack-single-stim","281","437274","0.0-5.0-267.0","go-nogo","true","0","","false","<div class = centerbox><div  id = stim1></div></div>","-1","32","750","","test","nogo","267","adv","","",""
"","323","32","1081","0","test_block","poldrack-single-stim","282","438451","0.0-5.0-268.0","go-nogo","true","0","","false","<div class = centerbox><div  id = stim1></div></div>","-1","32","750","","test","nogo","268","adv","","",""
"","1","32","1463","0","test_block","poldrack-single-stim","283","440022","0.0-5.0-269.0","go-nogo","true","0","","false","<div class = centerbox><div  id = stim1></div></div>","-1","32","750","","test","nogo","269","adv","","",""
"","-1","-1","1289","0","test_block","poldrack-single-stim","284","441399","0.0-5.0-270.0","go-nogo","true","0","","true","<div class = centerbox><div  id = stim1></div></div>","-1","32","750","","test","nogo","270","adv","","",""
"","424","32","1105","0","test_block","poldrack-single-stim","285","442643","0.0-5.0-271.0","go-nogo","true","0","","true","<div class = centerbox><div  id = stim2></div></div>","32","32","750","","test","go","271","adv","","",""
"","467","32","1276","0","test_block","poldrack-single-stim","286","444002","0.0-5.0-272.0","go-nogo","true","0","","true","<div class = centerbox><div  id = stim2></div></div>","32","32","750","","test","go","272","adv","","",""
"","349","32","1219","0","test_block","poldrack-single-stim","287","445351","0.0-5.0-273.0","go-nogo","true","0","","true","<div class = centerbox><div  id = stim2></div></div>","32","32","750","","test","go","273","adv","","",""
"","989","32","1442","0","test_block","poldrack-single-stim","288","446898","0.0-5.0-274.0","go-nogo","true","0","","true","<div class = centerbox><div  id = stim2></div></div>","32","32","750","","test","go","274","adv","","",""
"","-1","-1","1168","0","test_block","poldrack-single-stim","289","448178","0.0-5.0-275.0","go-nogo","true","0","","true","<div class = centerbox><div  id = stim1></div></div>","-1","32","750","","test","nogo","275","adv","","",""
"","433","32","1444","0","test_block","poldrack-single-stim","290","449722","0.0-5.0-276.0","go-nogo","true","0","","true","<div class = centerbox><div  id = stim2></div></div>","32","32","750","","test","go","276","adv","","",""
"","347","32","1120","0","test_block","poldrack-single-stim","291","450966","0.0-5.0-277.0","go-nogo","true","0","","true","<div class = centerbox><div  id = stim2></div></div>","32","32","750","","test","go","277","adv","","",""
"","369","32","1362","0","test_block","poldrack-single-stim","292","452416","0.0-5.0-278.0","go-nogo","true","0","","true","<div class = centerbox><div  id = stim2></div></div>","32","32","750","","test","go","278","adv","","",""
"","290","32","1437","0","test_block","poldrack-single-stim","293","453950","0.0-5.0-279.0","go-nogo","true","0","","true","<div class = centerbox><div  id = stim2></div></div>","32","32","750","","test","go","279","adv","","",""
"","364","32","1340","0","test_block","poldrack-single-stim","294","455408","0.0-5.0-280.0","go-nogo","true","0","","true","<div class = centerbox><div  id = stim2></div></div>","32","32","750","","test","go","280","adv","","",""
"","493","32","1148","0","test_block","poldrack-single-stim","295","456715","0.0-5.0-281.0","go-nogo","true","0","","true","<div class = centerbox><div  id = stim2></div></div>","32","32","750","","test","go","281","adv","","",""
"","437","32","1246","0","test_block","poldrack-single-stim","296","458079","0.0-5.0-282.0","go-nogo","true","0","","true","<div class = centerbox><div  id = stim2></div></div>","32","32","750","","test","go","282","adv","","",""
"","465","32","1494","0","test_block","poldrack-single-stim","297","459687","0.0-5.0-283.0","go-nogo","true","0","","true","<div class = centerbox><div  id = stim2></div></div>","32","32","750","","test","go","283","adv","","",""
"","329","32","1349","0","test_block","poldrack-single-stim","298","461170","0.0-5.0-284.0","go-nogo","true","0","","true","<div class = centerbox><div  id = stim2></div></div>","32","32","750","","test","go","284","adv","","",""
"","714","32","1313","0","test_block","poldrack-single-stim","299","462607","0.0-5.0-285.0","go-nogo","true","0","","true","<div class = centerbox><div  id = stim2></div></div>","32","32","750","","test","go","285","adv","","",""
"","391","32","1057","0","test_block","poldrack-single-stim","300","463786","0.0-5.0-286.0","go-nogo","true","0","","true","<div class = centerbox><div  id = stim2></div></div>","32","32","750","","test","go","286","adv","","",""
"","451","32","1135","0","test_block","poldrack-single-stim","301","464996","0.0-5.0-287.0","go-nogo","true","0","","true","<div class = centerbox><div  id = stim2></div></div>","32","32","750","","test","go","287","adv","","",""
"","302","32","1268","0","test_block","poldrack-single-stim","302","466378","0.0-5.0-288.0","go-nogo","true","0","","true","<div class = centerbox><div  id = stim2></div></div>","32","32","750","","test","go","288","adv","","",""
"","327","32","1078","0","test_block","poldrack-single-stim","303","467564","0.0-5.0-289.0","go-nogo","true","0","","true","<div class = centerbox><div  id = stim2></div></div>","32","32","750","","test","go","289","adv","","",""
"","-1","-1","1140","0","test_block","poldrack-single-stim","304","468803","0.0-5.0-290.0","go-nogo","true","0","","true","<div class = centerbox><div  id = stim1></div></div>","-1","32","750","","test","nogo","290","adv","","",""
"","437","32","1338","0","test_block","poldrack-single-stim","305","470261","0.0-5.0-291.0","go-nogo","true","0","","true","<div class = centerbox><div  id = stim2></div></div>","32","32","750","","test","go","291","adv","","",""
"","376","32","1122","0","test_block","poldrack-single-stim","306","471483","0.0-5.0-292.0","go-nogo","true","0","","true","<div class = centerbox><div  id = stim2></div></div>","32","32","750","","test","go","292","adv","","",""
"","367","32","1445","0","test_block","poldrack-single-stim","307","472985","0.0-5.0-293.0","go-nogo","true","0","","true","<div class = centerbox><div  id = stim2></div></div>","32","32","750","","test","go","293","adv","","",""
"","323","32","1446","0","test_block","poldrack-single-stim","308","474525","0.0-5.0-294.0","go-nogo","true","0","","true","<div class = centerbox><div  id = stim2></div></div>","32","32","750","","test","go","294","adv","","",""
"","500","32","1206","0","test_block","poldrack-single-stim","309","475836","0.0-5.0-295.0","go-nogo","true","0","","true","<div class = centerbox><div  id = stim2></div></div>","32","32","750","","test","go","295","adv","","",""
"","399","32","1353","0","test_block","poldrack-single-stim","310","477317","0.0-5.0-296.0","go-nogo","true","0","","true","<div class = centerbox><div  id = stim2></div></div>","32","32","750","","test","go","296","adv","","",""
"","337","32","1170","0","test_block","poldrack-single-stim","311","478608","0.0-5.0-297.0","go-nogo","true","0","","true","<div class = centerbox><div  id = stim2></div></div>","32","32","750","","test","go","297","adv","","",""
"","481","32","1301","0","test_block","poldrack-single-stim","312","479981","0.0-5.0-298.0","go-nogo","true","0","","true","<div class = centerbox><div  id = stim2></div></div>","32","32","750","","test","go","298","adv","","",""
"","331","32","1407","0","test_block","poldrack-single-stim","313","481523","0.0-5.0-299.0","go-nogo","true","0","","true","<div class = centerbox><div  id = stim2></div></div>","32","32","750","","test","go","299","adv","","",""
"","367","32","1474","0","test_block","poldrack-single-stim","314","483080","0.0-5.0-300.0","go-nogo","true","0","","true","<div class = centerbox><div  id = stim2></div></div>","32","32","750","","test","go","300","adv","","",""
"","408","32","1386","0","test_block","poldrack-single-stim","315","484542","0.0-5.0-301.0","go-nogo","true","0","","true","<div class = centerbox><div  id = stim2></div></div>","32","32","750","","test","go","301","adv","","",""
"","294","32","1207","0","test_block","poldrack-single-stim","316","485877","0.0-5.0-302.0","go-nogo","true","0","","true","<div class = centerbox><div  id = stim2></div></div>","32","32","750","","test","go","302","adv","","",""
"","396","32","1357","0","test_block","poldrack-single-stim","317","487362","0.0-5.0-303.0","go-nogo","true","0","","true","<div class = centerbox><div  id = stim2></div></div>","32","32","750","","test","go","303","adv","","",""
"","352","32","1002","0","test_block","poldrack-single-stim","318","488490","0.0-5.0-304.0","go-nogo","true","0","","true","<div class = centerbox><div  id = stim2></div></div>","32","32","750","","test","go","304","adv","","",""
"","700","32","1201","0","test_block","poldrack-single-stim","319","489805","0.0-5.0-305.0","go-nogo","true","0","","true","<div class = centerbox><div  id = stim2></div></div>","32","32","750","","test","go","305","adv","","",""
"","346","32","1206","0","test_block","poldrack-single-stim","320","491129","0.0-5.0-306.0","go-nogo","true","0","","true","<div class = centerbox><div  id = stim2></div></div>","32","32","750","","test","go","306","adv","","",""
"","759","32","1088","0","test_block","poldrack-single-stim","321","492278","0.0-5.0-307.0","go-nogo","true","0","","true","<div class = centerbox><div  id = stim2></div></div>","32","32","750","","test","go","307","adv","","",""
"","392","32","1058","0","test_block","poldrack-single-stim","322","493477","0.0-5.0-308.0","go-nogo","true","0","","true","<div class = centerbox><div  id = stim2></div></div>","32","32","750","","test","go","308","adv","","",""
"","320","32","1277","0","test_block","poldrack-single-stim","323","494884","0.0-5.0-309.0","go-nogo","true","0","","true","<div class = centerbox><div  id = stim2></div></div>","32","32","750","","test","go","309","adv","","",""
"","403","32","1004","0","test_block","poldrack-single-stim","324","495969","0.0-5.0-310.0","go-nogo","true","0","","true","<div class = centerbox><div  id = stim2></div></div>","32","32","750","","test","go","310","adv","","",""
"","390","32","1314","0","test_block","poldrack-single-stim","325","497378","0.0-5.0-311.0","go-nogo","true","0","","true","<div class = centerbox><div  id = stim2></div></div>","32","32","750","","test","go","311","adv","","",""
"","282","32","1361","0","test_block","poldrack-single-stim","326","498850","0.0-5.0-312.0","go-nogo","true","0","","false","<div class = centerbox><div  id = stim1></div></div>","-1","32","750","","test","nogo","312","adv","","",""
"","377","32","1404","0","test_block","poldrack-single-stim","327","500389","0.0-5.0-313.0","go-nogo","true","0","","true","<div class = centerbox><div  id = stim2></div></div>","32","32","750","","test","go","313","adv","","",""
"","309","32","1331","0","test_block","poldrack-single-stim","328","501843","0.0-5.0-314.0","go-nogo","true","0","","true","<div class = centerbox><div  id = stim2></div></div>","32","32","750","","test","go","314","adv","","",""
"","310","32","1439","0","test_block","poldrack-single-stim","329","503389","0.0-5.0-315.0","go-nogo","true","0","","false","<div class = centerbox><div  id = stim1></div></div>","-1","32","750","","test","nogo","315","adv","","",""
"","400","32","1243","0","test_block","poldrack-single-stim","330","504730","0.0-5.0-316.0","go-nogo","true","0","","true","<div class = centerbox><div  id = stim2></div></div>","32","32","750","","test","go","316","adv","","",""
"","-1","-1","1430","0","test_block","poldrack-single-stim","331","506267","0.0-5.0-317.0","go-nogo","true","0","","true","<div class = centerbox><div  id = stim1></div></div>","-1","32","750","","test","nogo","317","adv","","",""
"","390","32","1463","0","test_block","poldrack-single-stim","332","507858","0.0-5.0-318.0","go-nogo","true","0","","true","<div class = centerbox><div  id = stim2></div></div>","32","32","750","","test","go","318","adv","","",""
"","367","32","1179","0","test_block","poldrack-single-stim","333","509170","0.0-5.0-319.0","go-nogo","true","0","","true","<div class = centerbox><div  id = stim2></div></div>","32","32","750","","test","go","319","adv","","",""
"","363","32","1026","0","test_block","poldrack-single-stim","334","510288","0.0-5.0-320.0","go-nogo","true","0","","false","<div class = centerbox><div  id = stim1></div></div>","-1","32","750","","test","nogo","320","adv","","",""
"","-1","-1","1420","0","test_block","poldrack-single-stim","335","511835","0.0-5.0-321.0","go-nogo","true","0","","true","<div class = centerbox><div  id = stim1></div></div>","-1","32","750","","test","nogo","321","adv","","",""
"","449","32","1472","0","test_block","poldrack-single-stim","336","513411","0.0-5.0-322.0","go-nogo","true","0","","true","<div class = centerbox><div  id = stim2></div></div>","32","32","750","","test","go","322","adv","","",""
"","404","32","1089","0","test_block","poldrack-single-stim","337","514575","0.0-5.0-323.0","go-nogo","true","0","","true","<div class = centerbox><div  id = stim2></div></div>","32","32","750","","test","go","323","adv","","",""
"","448","32","1424","0","test_block","poldrack-single-stim","338","516112","0.0-5.0-324.0","go-nogo","true","0","","true","<div class = centerbox><div  id = stim2></div></div>","32","32","750","","test","go","324","adv","","",""
"","653","32","1265","0","test_block","poldrack-single-stim","339","517495","0.0-5.0-325.0","go-nogo","true","0","","true","<div class = centerbox><div  id = stim2></div></div>","32","32","750","","test","go","325","adv","","",""
"","403","32","1071","0","test_block","poldrack-single-stim","340","518700","0.0-5.0-326.0","go-nogo","true","0","","true","<div class = centerbox><div  id = stim2></div></div>","32","32","750","","test","go","326","adv","","",""
"","356","32","1012","0","test_block","poldrack-single-stim","341","519809","0.0-5.0-327.0","go-nogo","true","0","","true","<div class = centerbox><div  id = stim2></div></div>","32","32","750","","test","go","327","adv","","",""
"","421","32","1375","0","test_block","poldrack-single-stim","342","521278","0.0-5.0-328.0","go-nogo","true","0","","true","<div class = centerbox><div  id = stim2></div></div>","32","32","750","","test","go","328","adv","","",""
"","390","32","1208","0","test_block","poldrack-single-stim","343","522621","0.0-5.0-329.0","go-nogo","true","0","","true","<div class = centerbox><div  id = stim2></div></div>","32","32","750","","test","go","329","adv","","",""
"","395","32","1296","0","test_block","poldrack-single-stim","344","524025","0.0-5.0-330.0","go-nogo","true","0","","true","<div class = centerbox><div  id = stim2></div></div>","32","32","750","","test","go","330","adv","","",""
"","324","32","1453","0","test_block","poldrack-single-stim","345","525606","0.0-5.0-331.0","go-nogo","true","0","","true","<div class = centerbox><div  id = stim2></div></div>","32","32","750","","test","go","331","adv","","",""
"","385","32","1357","0","test_block","poldrack-single-stim","346","527065","0.0-5.0-332.0","go-nogo","true","0","","true","<div class = centerbox><div  id = stim2></div></div>","32","32","750","","test","go","332","adv","","",""
"","381","32","1141","0","test_block","poldrack-single-stim","347","528356","0.0-5.0-333.0","go-nogo","true","0","","true","<div class = centerbox><div  id = stim2></div></div>","32","32","750","","test","go","333","adv","","",""
"","459","32","1259","0","test_block","poldrack-single-stim","348","529707","0.0-5.0-334.0","go-nogo","true","0","","true","<div class = centerbox><div  id = stim2></div></div>","32","32","750","","test","go","334","adv","","",""
"","331","32","1280","0","test_block","poldrack-single-stim","349","531090","0.0-5.0-335.0","go-nogo","true","0","","true","<div class = centerbox><div  id = stim2></div></div>","32","32","750","","test","go","335","adv","","",""
"","375","32","1239","0","test_block","poldrack-single-stim","350","532435","0.0-5.0-336.0","go-nogo","true","0","","true","<div class = centerbox><div  id = stim2></div></div>","32","32","750","","test","go","336","adv","","",""
"","399","32","1213","0","test_block","poldrack-single-stim","351","533778","0.0-5.0-337.0","go-nogo","true","0","","true","<div class = centerbox><div  id = stim2></div></div>","32","32","750","","test","go","337","adv","","",""
"","378","32","1491","0","test_block","poldrack-single-stim","352","535388","0.0-5.0-338.0","go-nogo","true","0","","true","<div class = centerbox><div  id = stim2></div></div>","32","32","750","","test","go","338","adv","","",""
"","466","32","1447","0","test_block","poldrack-single-stim","353","536971","0.0-5.0-339.0","go-nogo","true","0","","true","<div class = centerbox><div  id = stim2></div></div>","32","32","750","","test","go","339","adv","","",""
"","380","32","1000","0","test_block","poldrack-single-stim","354","538086","0.0-5.0-340.0","go-nogo","true","0","","true","<div class = centerbox><div  id = stim2></div></div>","32","32","750","","test","go","340","adv","","",""
"","591","32","1280","0","test_block","poldrack-single-stim","355","539490","0.0-5.0-341.0","go-nogo","true","0","","true","<div class = centerbox><div  id = stim2></div></div>","32","32","750","","test","go","341","adv","","",""
"","350","32","1283","0","test_block","poldrack-single-stim","356","540870","0.0-5.0-342.0","go-nogo","true","0","","true","<div class = centerbox><div  id = stim2></div></div>","32","32","750","","test","go","342","adv","","",""
"","318","32","1111","0","test_block","poldrack-single-stim","357","542094","0.0-5.0-343.0","go-nogo","true","0","","true","<div class = centerbox><div  id = stim2></div></div>","32","32","750","","test","go","343","adv","","",""
"","346","32","1299","0","test_block","poldrack-single-stim","358","543534","0.0-5.0-344.0","go-nogo","true","0","","true","<div class = centerbox><div  id = stim2></div></div>","32","32","750","","test","go","344","adv","","",""
"","388","32","1226","0","test_block","poldrack-single-stim","359","544878","0.0-5.0-345.0","go-nogo","true","0","","true","<div class = centerbox><div  id = stim2></div></div>","32","32","750","","test","go","345","adv","","",""
"","389","32","1399","0","test_block","poldrack-single-stim","360","546379","0.0-5.0-346.0","go-nogo","true","0","","true","<div class = centerbox><div  id = stim2></div></div>","32","32","750","","test","go","346","adv","","",""
"","397","32","1194","0","test_block","poldrack-single-stim","361","547711","0.0-5.0-347.0","go-nogo","true","0","","true","<div class = centerbox><div  id = stim2></div></div>","32","32","750","","test","go","347","adv","","",""
"","495","32","1286","0","test_block","poldrack-single-stim","362","549102","0.0-5.0-348.0","go-nogo","true","0","","true","<div class = centerbox><div  id = stim2></div></div>","32","32","750","","test","go","348","adv","","",""
"","692","32","1086","0","test_block","poldrack-single-stim","363","550259","0.0-5.0-349.0","go-nogo","true","0","","true","<div class = centerbox><div  id = stim2></div></div>","32","32","750","","test","go","349","adv","","",""
"","47388","","","","post task questions","survey-text","364","597775","0.0-7.0","go-nogo","true","0","","","","","","","","","","","","{""Q0"":""Only press the space bar whenever I was to see the Blue colored squares"",""Q1"":""It's harder that it should be!""}","",""
"<div class = centerbox><p class = center-block-text>Thanks for completing this task!</p><p class = center-block-text>Insert the following code to collect your payment at Amazon Mechanical Turk:</p><p class = center-block-text>674473317</p><p class = center-block-text>Press <strong>enter</strong> to continue.</p></div>","6401","13","6401","0","end","poldrack-text","365","605181","0.0-8.0","go-nogo","true","0","","","","","","","","","","","","","674473317","true"
