"text","rt","key_press","block_duration","timing_post_trial","trial_id","trial_type","trial_index","time_elapsed","internal_node_id","exp_id","full_screen","focus_shifts","view_history","correct","stimulus","correct_response","possible_responses","stim_duration","feedback_duration","exp_stage","condition","trial_num","mode","responses","payment_id","credit_var"
"<div class = centerbox><p class = center-block-text>Welcome to the experiment. This task will take around 10 minutes. Press <strong>enter</strong> to begin.</p></div>","11069","13","11069","0","instruction","poldrack-text","0","11073","0.0-0.0-0.0","go-nogo","true","0","","","","","","","","","","","","","",""
"","43685","","","","instruction","poldrack-instructions","1","54760","0.0-0.0-1.0","go-nogo","true","0","[{""page_index"":0,""viewing_time"":43683}]","","","","","","","","","","","","",""
"","-1","-1","1083","250","practice","poldrack-categorize","2","57857","0.0-1.0-0.0","go-nogo","true","0","","true","<div class = centerbox><div id = stim1></div></div>","-1","32","750","1000","practice","nogo","0","adv","","",""
"","-1","-1","1479","250","practice","poldrack-categorize","3","60598","0.0-1.0-1.0","go-nogo","true","0","","true","<div class = centerbox><div id = stim1></div></div>","-1","32","750","1000","practice","nogo","1","adv","","",""
"","-1","-1","1346","250","practice","poldrack-categorize","4","63204","0.0-1.0-2.0","go-nogo","true","0","","true","<div class = centerbox><div id = stim1></div></div>","-1","32","750","1000","practice","nogo","2","adv","","",""
"","429","32","1153","250","practice","poldrack-categorize","5","65616","0.0-1.0-3.0","go-nogo","true","0","","true","<div class = centerbox><div  id = stim2></div></div>","32","32","750","1000","practice","go","3","adv","","",""
"","-1","-1","1209","250","practice","poldrack-categorize","6","68089","0.0-1.0-4.0","go-nogo","true","0","","true","<div class = centerbox><div id = stim1></div></div>","-1","32","750","1000","practice","nogo","4","adv","","",""
"","390","32","1323","250","practice","poldrack-categorize","7","70673","0.0-1.0-5.0","go-nogo","true","0","","true","<div class = centerbox><div  id = stim2></div></div>","32","32","750","1000","practice","go","5","adv","","",""
"","559","32","1355","250","practice","poldrack-categorize","8","73288","0.0-1.0-6.0","go-nogo","true","0","","true","<div class = centerbox><div  id = stim2></div></div>","32","32","750","1000","practice","go","6","adv","","",""
"","-1","-1","1201","250","practice","poldrack-categorize","9","75748","0.0-1.0-7.0","go-nogo","true","0","","true","<div class = centerbox><div id = stim1></div></div>","-1","32","750","1000","practice","nogo","7","adv","","",""
"","389","32","1065","250","practice","poldrack-categorize","10","78073","0.0-1.0-8.0","go-nogo","true","0","","true","<div class = centerbox><div  id = stim2></div></div>","32","32","750","1000","practice","go","8","adv","","",""
"","687","32","1414","250","practice","poldrack-categorize","11","80748","0.0-1.0-9.0","go-nogo","true","0","","true","<div class = centerbox><div  id = stim2></div></div>","32","32","750","1000","practice","go","9","adv","","",""
"","","","","","reset_trial","call-function","12","81000","0.0-3.0","go-nogo","true","0","","","","","","","","","","","","","",""
"<div class = centerbox><p class = block-text>Practice is over, we will now begin the experiment. You will no longer get feedback about your responses.</p><p class = block-text>Remember, if you see the <font color=""blue"">blue</font> square you should <strong> respond by pressing the spacebar as quickly as possible</strong>. If you see the <font color=""orange"">orange</font> square you should <strong> not respond</strong>. Press <strong>enter</strong> to begin.</p></div>","24497","13","24497","1000","test_intro","poldrack-text","13","105499","0.0-4.0","go-nogo","true","0","","","","","","","","","","","","","",""
"","1210","32","1231","0","test_block","poldrack-single-stim","14","107740","0.0-5.0-0.0","go-nogo","true","0","","true","<div class = centerbox><div  id = stim2></div></div>","32","32","750","","test","go","0","adv","","",""
"","564","32","1389","0","test_block","poldrack-single-stim","15","109326","0.0-5.0-1.0","go-nogo","true","0","","true","<div class = centerbox><div  id = stim2></div></div>","32","32","750","","test","go","1","adv","","",""
"","311","32","1171","0","test_block","poldrack-single-stim","16","110587","0.0-5.0-2.0","go-nogo","true","0","","true","<div class = centerbox><div  id = stim2></div></div>","32","32","750","","test","go","2","adv","","",""
"","308","32","1158","0","test_block","poldrack-single-stim","17","111841","0.0-5.0-3.0","go-nogo","true","0","","true","<div class = centerbox><div  id = stim2></div></div>","32","32","750","","test","go","3","adv","","",""
"","320","32","1020","0","test_block","poldrack-single-stim","18","112953","0.0-5.0-4.0","go-nogo","true","0","","true","<div class = centerbox><div  id = stim2></div></div>","32","32","750","","test","go","4","adv","","",""
"","343","32","1382","0","test_block","poldrack-single-stim","19","114419","0.0-5.0-5.0","go-nogo","true","0","","true","<div class = centerbox><div  id = stim2></div></div>","32","32","750","","test","go","5","adv","","",""
"","302","32","1263","0","test_block","poldrack-single-stim","20","115774","0.0-5.0-6.0","go-nogo","true","0","","true","<div class = centerbox><div  id = stim2></div></div>","32","32","750","","test","go","6","adv","","",""
"","323","32","1354","0","test_block","poldrack-single-stim","21","117204","0.0-5.0-7.0","go-nogo","true","0","","true","<div class = centerbox><div  id = stim2></div></div>","32","32","750","","test","go","7","adv","","",""
"","307","32","1462","0","test_block","poldrack-single-stim","22","118753","0.0-5.0-8.0","go-nogo","true","0","","true","<div class = centerbox><div  id = stim2></div></div>","32","32","750","","test","go","8","adv","","",""
"","287","32","1147","0","test_block","poldrack-single-stim","23","119986","0.0-5.0-9.0","go-nogo","true","0","","true","<div class = centerbox><div  id = stim2></div></div>","32","32","750","","test","go","9","adv","","",""
"","380","32","1485","0","test_block","poldrack-single-stim","24","121557","0.0-5.0-10.0","go-nogo","true","0","","true","<div class = centerbox><div  id = stim2></div></div>","32","32","750","","test","go","10","adv","","",""
"","284","32","1077","0","test_block","poldrack-single-stim","25","122721","0.0-5.0-11.0","go-nogo","true","0","","true","<div class = centerbox><div  id = stim2></div></div>","32","32","750","","test","go","11","adv","","",""
"","346","32","1054","0","test_block","poldrack-single-stim","26","123864","0.0-5.0-12.0","go-nogo","true","0","","true","<div class = centerbox><div  id = stim2></div></div>","32","32","750","","test","go","12","adv","","",""
"","354","32","1383","0","test_block","poldrack-single-stim","27","125324","0.0-5.0-13.0","go-nogo","true","0","","true","<div class = centerbox><div  id = stim2></div></div>","32","32","750","","test","go","13","adv","","",""
"","298","32","1202","0","test_block","poldrack-single-stim","28","126622","0.0-5.0-14.0","go-nogo","true","0","","true","<div class = centerbox><div  id = stim2></div></div>","32","32","750","","test","go","14","adv","","",""
"","324","32","1162","0","test_block","poldrack-single-stim","29","127867","0.0-5.0-15.0","go-nogo","true","0","","true","<div class = centerbox><div  id = stim2></div></div>","32","32","750","","test","go","15","adv","","",""
"","289","32","1177","0","test_block","poldrack-single-stim","30","129129","0.0-5.0-16.0","go-nogo","true","0","","true","<div class = centerbox><div  id = stim2></div></div>","32","32","750","","test","go","16","adv","","",""
"","336","32","1408","0","test_block","poldrack-single-stim","31","130608","0.0-5.0-17.0","go-nogo","true","0","","true","<div class = centerbox><div  id = stim2></div></div>","32","32","750","","test","go","17","adv","","",""
"","321","32","1025","0","test_block","poldrack-single-stim","32","131704","0.0-5.0-18.0","go-nogo","true","0","","true","<div class = centerbox><div  id = stim2></div></div>","32","32","750","","test","go","18","adv","","",""
"","355","32","1177","0","test_block","poldrack-single-stim","33","132952","0.0-5.0-19.0","go-nogo","true","0","","true","<div class = centerbox><div  id = stim2></div></div>","32","32","750","","test","go","19","adv","","",""
"","289","32","1291","0","test_block","poldrack-single-stim","34","134326","0.0-5.0-20.0","go-nogo","true","0","","true","<div class = centerbox><div  id = stim2></div></div>","32","32","750","","test","go","20","adv","","",""
"","321","32","1466","0","test_block","poldrack-single-stim","35","135872","0.0-5.0-21.0","go-nogo","true","0","","true","<div class = centerbox><div  id = stim2></div></div>","32","32","750","","test","go","21","adv","","",""
"","280","32","1365","0","test_block","poldrack-single-stim","36","137303","0.0-5.0-22.0","go-nogo","true","0","","true","<div class = centerbox><div  id = stim2></div></div>","32","32","750","","test","go","22","adv","","",""
"","301","32","1213","0","test_block","poldrack-single-stim","37","138598","0.0-5.0-23.0","go-nogo","true","0","","true","<div class = centerbox><div  id = stim2></div></div>","32","32","750","","test","go","23","adv","","",""
"","320","32","1453","0","test_block","poldrack-single-stim","38","140142","0.0-5.0-24.0","go-nogo","true","0","","true","<div class = centerbox><div  id = stim2></div></div>","32","32","750","","test","go","24","adv","","",""
"","295","32","1426","0","test_block","poldrack-single-stim","39","141632","0.0-5.0-25.0","go-nogo","true","0","","true","<div class = centerbox><div  id = stim2></div></div>","32","32","750","","test","go","25","adv","","",""
"","271","32","1122","0","test_block","poldrack-single-stim","40","142825","0.0-5.0-26.0","go-nogo","true","0","","true","<div class = centerbox><div  id = stim2></div></div>","32","32","750","","test","go","26","adv","","",""
"","280","32","1498","0","test_block","poldrack-single-stim","41","144399","0.0-5.0-27.0","go-nogo","true","0","","true","<div class = centerbox><div  id = stim2></div></div>","32","32","750","","test","go","27","adv","","",""
"","283","32","1031","0","test_block","poldrack-single-stim","42","145504","0.0-5.0-28.0","go-nogo","true","0","","true","<div class = centerbox><div  id = stim2></div></div>","32","32","750","","test","go","28","adv","","",""
"","533","32","1203","0","test_block","poldrack-single-stim","43","146788","0.0-5.0-29.0","go-nogo","true","0","","true","<div class = centerbox><div  id = stim2></div></div>","32","32","750","","test","go","29","adv","","",""
"","474","32","1024","0","test_block","poldrack-single-stim","44","147883","0.0-5.0-30.0","go-nogo","true","0","","true","<div class = centerbox><div  id = stim2></div></div>","32","32","750","","test","go","30","adv","","",""
"","490","32","1285","0","test_block","poldrack-single-stim","45","149240","0.0-5.0-31.0","go-nogo","true","0","","true","<div class = centerbox><div  id = stim2></div></div>","32","32","750","","test","go","31","adv","","",""
"","291","32","1230","0","test_block","poldrack-single-stim","46","150536","0.0-5.0-32.0","go-nogo","true","0","","true","<div class = centerbox><div  id = stim2></div></div>","32","32","750","","test","go","32","adv","","",""
"","158","32","1395","0","test_block","poldrack-single-stim","47","152000","0.0-5.0-33.0","go-nogo","true","0","","true","<div class = centerbox><div  id = stim2></div></div>","32","32","750","","test","go","33","adv","","",""
"","860","32","1190","0","test_block","poldrack-single-stim","48","153265","0.0-5.0-34.0","go-nogo","true","0","","true","<div class = centerbox><div  id = stim2></div></div>","32","32","750","","test","go","34","adv","","",""
"","529","32","1079","0","test_block","poldrack-single-stim","49","154415","0.0-5.0-35.0","go-nogo","true","0","","true","<div class = centerbox><div  id = stim2></div></div>","32","32","750","","test","go","35","adv","","",""
"","383","32","1029","0","test_block","poldrack-single-stim","50","155564","0.0-5.0-36.0","go-nogo","true","0","","true","<div class = centerbox><div  id = stim2></div></div>","32","32","750","","test","go","36","adv","","",""
"","331","32","1054","0","test_block","poldrack-single-stim","51","156689","0.0-5.0-37.0","go-nogo","true","0","","true","<div class = centerbox><div  id = stim2></div></div>","32","32","750","","test","go","37","adv","","",""
"","344","32","1169","0","test_block","poldrack-single-stim","52","157919","0.0-5.0-38.0","go-nogo","true","0","","true","<div class = centerbox><div  id = stim2></div></div>","32","32","750","","test","go","38","adv","","",""
"","299","32","1229","0","test_block","poldrack-single-stim","53","159233","0.0-5.0-39.0","go-nogo","true","0","","true","<div class = centerbox><div  id = stim2></div></div>","32","32","750","","test","go","39","adv","","",""
"","271","32","1150","0","test_block","poldrack-single-stim","54","160455","0.0-5.0-40.0","go-nogo","true","0","","true","<div class = centerbox><div  id = stim2></div></div>","32","32","750","","test","go","40","adv","","",""
"","316","32","1087","0","test_block","poldrack-single-stim","55","161611","0.0-5.0-41.0","go-nogo","true","0","","true","<div class = centerbox><div  id = stim2></div></div>","32","32","750","","test","go","41","adv","","",""
"","315","32","1180","0","test_block","poldrack-single-stim","56","162904","0.0-5.0-42.0","go-nogo","true","0","","true","<div class = centerbox><div  id = stim2></div></div>","32","32","750","","test","go","42","adv","","",""
"","342","32","1196","0","test_block","poldrack-single-stim","57","164173","0.0-5.0-43.0","go-nogo","true","0","","true","<div class = centerbox><div  id = stim2></div></div>","32","32","750","","test","go","43","adv","","",""
"","318","32","1165","0","test_block","poldrack-single-stim","58","165417","0.0-5.0-44.0","go-nogo","true","0","","true","<div class = centerbox><div  id = stim2></div></div>","32","32","750","","test","go","44","adv","","",""
"","283","32","1218","0","test_block","poldrack-single-stim","59","166727","0.0-5.0-45.0","go-nogo","true","0","","true","<div class = centerbox><div  id = stim2></div></div>","32","32","750","","test","go","45","adv","","",""
"","307","32","1382","0","test_block","poldrack-single-stim","60","168195","0.0-5.0-46.0","go-nogo","true","0","","true","<div class = centerbox><div  id = stim2></div></div>","32","32","750","","test","go","46","adv","","",""
"","289","32","1292","0","test_block","poldrack-single-stim","61","169568","0.0-5.0-47.0","go-nogo","true","0","","true","<div class = centerbox><div  id = stim2></div></div>","32","32","750","","test","go","47","adv","","",""
"","303","32","1425","0","test_block","poldrack-single-stim","62","171056","0.0-5.0-48.0","go-nogo","true","0","","true","<div class = centerbox><div  id = stim2></div></div>","32","32","750","","test","go","48","adv","","",""
"","317","32","1042","0","test_block","poldrack-single-stim","63","172155","0.0-5.0-49.0","go-nogo","true","0","","true","<div class = centerbox><div  id = stim2></div></div>","32","32","750","","test","go","49","adv","","",""
"","538","32","1493","0","test_block","poldrack-single-stim","64","173714","0.0-5.0-50.0","go-nogo","true","0","","true","<div class = centerbox><div  id = stim2></div></div>","32","32","750","","test","go","50","adv","","",""
"","334","32","1089","0","test_block","poldrack-single-stim","65","174864","0.0-5.0-51.0","go-nogo","true","0","","true","<div class = centerbox><div  id = stim2></div></div>","32","32","750","","test","go","51","adv","","",""
"","392","32","1066","0","test_block","poldrack-single-stim","66","176033","0.0-5.0-52.0","go-nogo","true","0","","true","<div class = centerbox><div  id = stim2></div></div>","32","32","750","","test","go","52","adv","","",""
"","410","32","1373","0","test_block","poldrack-single-stim","67","177472","0.0-5.0-53.0","go-nogo","true","0","","true","<div class = centerbox><div  id = stim2></div></div>","32","32","750","","test","go","53","adv","","",""
"","314","32","1276","0","test_block","poldrack-single-stim","68","178802","0.0-5.0-54.0","go-nogo","true","0","","true","<div class = centerbox><div  id = stim2></div></div>","32","32","750","","test","go","54","adv","","",""
"","323","32","1264","0","test_block","poldrack-single-stim","69","180144","0.0-5.0-55.0","go-nogo","true","0","","true","<div class = centerbox><div  id = stim2></div></div>","32","32","750","","test","go","55","adv","","",""
"","318","32","1414","0","test_block","poldrack-single-stim","70","181623","0.0-5.0-56.0","go-nogo","true","0","","true","<div class = centerbox><div  id = stim2></div></div>","32","32","750","","test","go","56","adv","","",""
"","294","32","1096","0","test_block","poldrack-single-stim","71","182794","0.0-5.0-57.0","go-nogo","true","0","","true","<div class = centerbox><div  id = stim2></div></div>","32","32","750","","test","go","57","adv","","",""
"","316","32","1272","0","test_block","poldrack-single-stim","72","184148","0.0-5.0-58.0","go-nogo","true","0","","true","<div class = centerbox><div  id = stim2></div></div>","32","32","750","","test","go","58","adv","","",""
"","317","32","1330","0","test_block","poldrack-single-stim","73","185539","0.0-5.0-59.0","go-nogo","true","0","","true","<div class = centerbox><div  id = stim2></div></div>","32","32","750","","test","go","59","adv","","",""
"","277","32","1087","0","test_block","poldrack-single-stim","74","186686","0.0-5.0-60.0","go-nogo","true","0","","true","<div class = centerbox><div  id = stim2></div></div>","32","32","750","","test","go","60","adv","","",""
"","386","32","1215","0","test_block","poldrack-single-stim","75","187977","0.0-5.0-61.0","go-nogo","true","0","","true","<div class = centerbox><div  id = stim2></div></div>","32","32","750","","test","go","61","adv","","",""
"","307","32","1468","0","test_block","poldrack-single-stim","76","189519","0.0-5.0-62.0","go-nogo","true","0","","true","<div class = centerbox><div  id = stim2></div></div>","32","32","750","","test","go","62","adv","","",""
"","274","32","1008","0","test_block","poldrack-single-stim","77","190587","0.0-5.0-63.0","go-nogo","true","0","","true","<div class = centerbox><div  id = stim2></div></div>","32","32","750","","test","go","63","adv","","",""
"","384","32","1111","0","test_block","poldrack-single-stim","78","191775","0.0-5.0-64.0","go-nogo","true","0","","true","<div class = centerbox><div  id = stim2></div></div>","32","32","750","","test","go","64","adv","","",""
"","380","32","1077","0","test_block","poldrack-single-stim","79","192920","0.0-5.0-65.0","go-nogo","true","0","","true","<div class = centerbox><div  id = stim2></div></div>","32","32","750","","test","go","65","adv","","",""
"","604","32","1140","0","test_block","poldrack-single-stim","80","194126","0.0-5.0-66.0","go-nogo","true","0","","true","<div class = centerbox><div  id = stim2></div></div>","32","32","750","","test","go","66","adv","","",""
"","653","32","1379","0","test_block","poldrack-single-stim","81","195581","0.0-5.0-67.0","go-nogo","true","0","","true","<div class = centerbox><div  id = stim2></div></div>","32","32","750","","test","go","67","adv","","",""
"","480","32","1459","0","test_block","poldrack-single-stim","82","197097","0.0-5.0-68.0","go-nogo","true","0","","true","<div class = centerbox><div  id = stim2></div></div>","32","32","750","","test","go","68","adv","","",""
"","301","32","1120","0","test_block","poldrack-single-stim","83","198280","0.0-5.0-69.0","go-nogo","true","0","","true","<div class = centerbox><div  id = stim2></div></div>","32","32","750","","test","go","69","adv","","",""
"","517","32","1336","0","test_block","poldrack-single-stim","84","199682","0.0-5.0-70.0","go-nogo","true","0","","true","<div class = centerbox><div  id = stim2></div></div>","32","32","750","","test","go","70","adv","","",""
"","455","32","1476","0","test_block","poldrack-single-stim","85","201227","0.0-5.0-71.0","go-nogo","true","0","","true","<div class = centerbox><div  id = stim2></div></div>","32","32","750","","test","go","71","adv","","",""
"","317","32","1356","0","test_block","poldrack-single-stim","86","202648","0.0-5.0-72.0","go-nogo","true","0","","true","<div class = centerbox><div  id = stim2></div></div>","32","32","750","","test","go","72","adv","","",""
"","329","32","1384","0","test_block","poldrack-single-stim","87","204105","0.0-5.0-73.0","go-nogo","true","0","","true","<div class = centerbox><div  id = stim2></div></div>","32","32","750","","test","go","73","adv","","",""
"","295","32","1274","0","test_block","poldrack-single-stim","88","205441","0.0-5.0-74.0","go-nogo","true","0","","true","<div class = centerbox><div  id = stim2></div></div>","32","32","750","","test","go","74","adv","","",""
"","317","32","1320","0","test_block","poldrack-single-stim","89","206833","0.0-5.0-75.0","go-nogo","true","0","","true","<div class = centerbox><div  id = stim2></div></div>","32","32","750","","test","go","75","adv","","",""
"","278","32","1207","0","test_block","poldrack-single-stim","90","208112","0.0-5.0-76.0","go-nogo","true","0","","true","<div class = centerbox><div  id = stim2></div></div>","32","32","750","","test","go","76","adv","","",""
"","1","32","1222","0","test_block","poldrack-single-stim","91","209407","0.0-5.0-77.0","go-nogo","true","0","","true","<div class = centerbox><div  id = stim2></div></div>","32","32","750","","test","go","77","adv","","",""
"","402","32","1223","0","test_block","poldrack-single-stim","92","210701","0.0-5.0-78.0","go-nogo","true","0","","true","<div class = centerbox><div  id = stim2></div></div>","32","32","750","","test","go","78","adv","","",""
"","337","32","1339","0","test_block","poldrack-single-stim","93","212100","0.0-5.0-79.0","go-nogo","true","0","","true","<div class = centerbox><div  id = stim2></div></div>","32","32","750","","test","go","79","adv","","",""
"","268","32","1199","0","test_block","poldrack-single-stim","94","213392","0.0-5.0-80.0","go-nogo","true","0","","true","<div class = centerbox><div  id = stim2></div></div>","32","32","750","","test","go","80","adv","","",""
"","292","32","1133","0","test_block","poldrack-single-stim","95","214590","0.0-5.0-81.0","go-nogo","true","0","","true","<div class = centerbox><div  id = stim2></div></div>","32","32","750","","test","go","81","adv","","",""
"","426","32","1289","0","test_block","poldrack-single-stim","96","215952","0.0-5.0-82.0","go-nogo","true","0","","true","<div class = centerbox><div  id = stim2></div></div>","32","32","750","","test","go","82","adv","","",""
"","387","32","1021","0","test_block","poldrack-single-stim","97","217032","0.0-5.0-83.0","go-nogo","true","0","","true","<div class = centerbox><div  id = stim2></div></div>","32","32","750","","test","go","83","adv","","",""
"","553","32","1182","0","test_block","poldrack-single-stim","98","218273","0.0-5.0-84.0","go-nogo","true","0","","true","<div class = centerbox><div  id = stim2></div></div>","32","32","750","","test","go","84","adv","","",""
"","491","32","1158","0","test_block","poldrack-single-stim","99","219504","0.0-5.0-85.0","go-nogo","true","0","","true","<div class = centerbox><div  id = stim2></div></div>","32","32","750","","test","go","85","adv","","",""
"","411","32","1406","0","test_block","poldrack-single-stim","100","220970","0.0-5.0-86.0","go-nogo","true","0","","true","<div class = centerbox><div  id = stim2></div></div>","32","32","750","","test","go","86","adv","","",""
"","471","32","1219","0","test_block","poldrack-single-stim","101","222256","0.0-5.0-87.0","go-nogo","true","0","","true","<div class = centerbox><div  id = stim2></div></div>","32","32","750","","test","go","87","adv","","",""
"","364","32","1476","0","test_block","poldrack-single-stim","102","223807","0.0-5.0-88.0","go-nogo","true","0","","true","<div class = centerbox><div  id = stim2></div></div>","32","32","750","","test","go","88","adv","","",""
"","292","32","1230","0","test_block","poldrack-single-stim","103","225099","0.0-5.0-89.0","go-nogo","true","0","","true","<div class = centerbox><div  id = stim2></div></div>","32","32","750","","test","go","89","adv","","",""
"","322","32","1375","0","test_block","poldrack-single-stim","104","226539","0.0-5.0-90.0","go-nogo","true","0","","true","<div class = centerbox><div  id = stim2></div></div>","32","32","750","","test","go","90","adv","","",""
"","255","32","1273","0","test_block","poldrack-single-stim","105","227879","0.0-5.0-91.0","go-nogo","true","0","","true","<div class = centerbox><div  id = stim2></div></div>","32","32","750","","test","go","91","adv","","",""
"","244","32","1125","0","test_block","poldrack-single-stim","106","229071","0.0-5.0-92.0","go-nogo","true","0","","true","<div class = centerbox><div  id = stim2></div></div>","32","32","750","","test","go","92","adv","","",""
"","346","32","1361","0","test_block","poldrack-single-stim","107","230499","0.0-5.0-93.0","go-nogo","true","0","","true","<div class = centerbox><div  id = stim2></div></div>","32","32","750","","test","go","93","adv","","",""
"","366","32","1257","0","test_block","poldrack-single-stim","108","231825","0.0-5.0-94.0","go-nogo","true","0","","true","<div class = centerbox><div  id = stim2></div></div>","32","32","750","","test","go","94","adv","","",""
"","358","32","1352","0","test_block","poldrack-single-stim","109","233250","0.0-5.0-95.0","go-nogo","true","0","","true","<div class = centerbox><div  id = stim2></div></div>","32","32","750","","test","go","95","adv","","",""
"","285","32","1366","0","test_block","poldrack-single-stim","110","234679","0.0-5.0-96.0","go-nogo","true","0","","true","<div class = centerbox><div  id = stim2></div></div>","32","32","750","","test","go","96","adv","","",""
"","275","32","1263","0","test_block","poldrack-single-stim","111","236009","0.0-5.0-97.0","go-nogo","true","0","","true","<div class = centerbox><div  id = stim2></div></div>","32","32","750","","test","go","97","adv","","",""
"","288","32","1258","0","test_block","poldrack-single-stim","112","237359","0.0-5.0-98.0","go-nogo","true","0","","true","<div class = centerbox><div  id = stim2></div></div>","32","32","750","","test","go","98","adv","","",""
"","366","32","1117","0","test_block","poldrack-single-stim","113","238541","0.0-5.0-99.0","go-nogo","true","0","","true","<div class = centerbox><div  id = stim2></div></div>","32","32","750","","test","go","99","adv","","",""
"","367","32","1183","0","test_block","poldrack-single-stim","114","239771","0.0-5.0-100.0","go-nogo","true","0","","true","<div class = centerbox><div  id = stim2></div></div>","32","32","750","","test","go","100","adv","","",""
"","331","32","1323","0","test_block","poldrack-single-stim","115","241174","0.0-5.0-101.0","go-nogo","true","0","","true","<div class = centerbox><div  id = stim2></div></div>","32","32","750","","test","go","101","adv","","",""
"","296","32","1421","0","test_block","poldrack-single-stim","116","242656","0.0-5.0-102.0","go-nogo","true","0","","true","<div class = centerbox><div  id = stim2></div></div>","32","32","750","","test","go","102","adv","","",""
"","266","32","1448","0","test_block","poldrack-single-stim","117","244173","0.0-5.0-103.0","go-nogo","true","0","","true","<div class = centerbox><div  id = stim2></div></div>","32","32","750","","test","go","103","adv","","",""
"","252","32","1089","0","test_block","poldrack-single-stim","118","245329","0.0-5.0-104.0","go-nogo","true","0","","true","<div class = centerbox><div  id = stim2></div></div>","32","32","750","","test","go","104","adv","","",""
"","402","32","1266","0","test_block","poldrack-single-stim","119","246676","0.0-5.0-105.0","go-nogo","true","0","","true","<div class = centerbox><div  id = stim2></div></div>","32","32","750","","test","go","105","adv","","",""
"","331","32","1420","0","test_block","poldrack-single-stim","120","248161","0.0-5.0-106.0","go-nogo","true","0","","true","<div class = centerbox><div  id = stim2></div></div>","32","32","750","","test","go","106","adv","","",""
"","111","32","1133","0","test_block","poldrack-single-stim","121","249362","0.0-5.0-107.0","go-nogo","true","0","","true","<div class = centerbox><div  id = stim2></div></div>","32","32","750","","test","go","107","adv","","",""
"","1","32","1387","0","test_block","poldrack-single-stim","122","250819","0.0-5.0-108.0","go-nogo","true","0","","true","<div class = centerbox><div  id = stim2></div></div>","32","32","750","","test","go","108","adv","","",""
"","443","32","1322","0","test_block","poldrack-single-stim","123","252221","0.0-5.0-109.0","go-nogo","true","0","","true","<div class = centerbox><div  id = stim2></div></div>","32","32","750","","test","go","109","adv","","",""
"","455","32","1051","0","test_block","poldrack-single-stim","124","253354","0.0-5.0-110.0","go-nogo","true","0","","true","<div class = centerbox><div  id = stim2></div></div>","32","32","750","","test","go","110","adv","","",""
"","847","32","1389","0","test_block","poldrack-single-stim","125","254811","0.0-5.0-111.0","go-nogo","true","0","","true","<div class = centerbox><div  id = stim2></div></div>","32","32","750","","test","go","111","adv","","",""
"","422","32","1127","0","test_block","poldrack-single-stim","126","256008","0.0-5.0-112.0","go-nogo","true","0","","true","<div class = centerbox><div  id = stim2></div></div>","32","32","750","","test","go","112","adv","","",""
"","320","32","1202","0","test_block","poldrack-single-stim","127","257281","0.0-5.0-113.0","go-nogo","true","0","","true","<div class = centerbox><div  id = stim2></div></div>","32","32","750","","test","go","113","adv","","",""
"","298","32","1167","0","test_block","poldrack-single-stim","128","258515","0.0-5.0-114.0","go-nogo","true","0","","true","<div class = centerbox><div  id = stim2></div></div>","32","32","750","","test","go","114","adv","","",""
"","367","32","1425","0","test_block","poldrack-single-stim","129","260003","0.0-5.0-115.0","go-nogo","true","0","","true","<div class = centerbox><div  id = stim2></div></div>","32","32","750","","test","go","115","adv","","",""
"","291","32","1205","0","test_block","poldrack-single-stim","130","261276","0.0-5.0-116.0","go-nogo","true","0","","true","<div class = centerbox><div  id = stim2></div></div>","32","32","750","","test","go","116","adv","","",""
"","407","32","1390","0","test_block","poldrack-single-stim","131","262742","0.0-5.0-117.0","go-nogo","true","0","","true","<div class = centerbox><div  id = stim2></div></div>","32","32","750","","test","go","117","adv","","",""
"","311","32","1129","0","test_block","poldrack-single-stim","132","263945","0.0-5.0-118.0","go-nogo","true","0","","true","<div class = centerbox><div  id = stim2></div></div>","32","32","750","","test","go","118","adv","","",""
"","405","32","1109","0","test_block","poldrack-single-stim","133","265103","0.0-5.0-119.0","go-nogo","true","0","","true","<div class = centerbox><div  id = stim2></div></div>","32","32","750","","test","go","119","adv","","",""
"","555","32","1348","0","test_block","poldrack-single-stim","134","266519","0.0-5.0-120.0","go-nogo","true","0","","true","<div class = centerbox><div  id = stim2></div></div>","32","32","750","","test","go","120","adv","","",""
"","514","32","1165","0","test_block","poldrack-single-stim","135","267745","0.0-5.0-121.0","go-nogo","true","0","","true","<div class = centerbox><div  id = stim2></div></div>","32","32","750","","test","go","121","adv","","",""
"","511","32","1022","0","test_block","poldrack-single-stim","136","268835","0.0-5.0-122.0","go-nogo","true","0","","true","<div class = centerbox><div  id = stim2></div></div>","32","32","750","","test","go","122","adv","","",""
"","562","32","1346","0","test_block","poldrack-single-stim","137","270234","0.0-5.0-123.0","go-nogo","true","0","","true","<div class = centerbox><div  id = stim2></div></div>","32","32","750","","test","go","123","adv","","",""
"","593","32","1127","0","test_block","poldrack-single-stim","138","271430","0.0-5.0-124.0","go-nogo","true","0","","true","<div class = centerbox><div  id = stim2></div></div>","32","32","750","","test","go","124","adv","","",""
"","544","32","1160","0","test_block","poldrack-single-stim","139","272668","0.0-5.0-125.0","go-nogo","true","0","","true","<div class = centerbox><div  id = stim2></div></div>","32","32","750","","test","go","125","adv","","",""
"","546","32","1333","0","test_block","poldrack-single-stim","140","274074","0.0-5.0-126.0","go-nogo","true","0","","true","<div class = centerbox><div  id = stim2></div></div>","32","32","750","","test","go","126","adv","","",""
"","658","32","1238","0","test_block","poldrack-single-stim","141","275378","0.0-5.0-127.0","go-nogo","true","0","","true","<div class = centerbox><div  id = stim2></div></div>","32","32","750","","test","go","127","adv","","",""
"","686","32","1365","0","test_block","poldrack-single-stim","142","276807","0.0-5.0-128.0","go-nogo","true","0","","true","<div class = centerbox><div  id = stim2></div></div>","32","32","750","","test","go","128","adv","","",""
"","536","32","1140","0","test_block","poldrack-single-stim","143","278013","0.0-5.0-129.0","go-nogo","true","0","","true","<div class = centerbox><div  id = stim2></div></div>","32","32","750","","test","go","129","adv","","",""
"","516","32","1410","0","test_block","poldrack-single-stim","144","279490","0.0-5.0-130.0","go-nogo","true","0","","true","<div class = centerbox><div  id = stim2></div></div>","32","32","750","","test","go","130","adv","","",""
"","581","32","1134","0","test_block","poldrack-single-stim","145","280688","0.0-5.0-131.0","go-nogo","true","0","","true","<div class = centerbox><div  id = stim2></div></div>","32","32","750","","test","go","131","adv","","",""
"","765","32","1036","0","test_block","poldrack-single-stim","146","281819","0.0-5.0-132.0","go-nogo","true","0","","true","<div class = centerbox><div  id = stim2></div></div>","32","32","750","","test","go","132","adv","","",""
"","875","32","1443","0","test_block","poldrack-single-stim","147","283325","0.0-5.0-133.0","go-nogo","true","0","","true","<div class = centerbox><div  id = stim2></div></div>","32","32","750","","test","go","133","adv","","",""
"","624","32","1100","0","test_block","poldrack-single-stim","148","284490","0.0-5.0-134.0","go-nogo","true","0","","true","<div class = centerbox><div  id = stim2></div></div>","32","32","750","","test","go","134","adv","","",""
"","547","32","1000","0","test_block","poldrack-single-stim","149","285556","0.0-5.0-135.0","go-nogo","true","0","","true","<div class = centerbox><div  id = stim2></div></div>","32","32","750","","test","go","135","adv","","",""
"","511","32","1421","0","test_block","poldrack-single-stim","150","287038","0.0-5.0-136.0","go-nogo","true","0","","true","<div class = centerbox><div  id = stim2></div></div>","32","32","750","","test","go","136","adv","","",""
"","313","32","1264","0","test_block","poldrack-single-stim","151","288367","0.0-5.0-137.0","go-nogo","true","0","","true","<div class = centerbox><div  id = stim2></div></div>","32","32","750","","test","go","137","adv","","",""
"","312","32","1104","0","test_block","poldrack-single-stim","152","289531","0.0-5.0-138.0","go-nogo","true","0","","true","<div class = centerbox><div  id = stim2></div></div>","32","32","750","","test","go","138","adv","","",""
"","342","32","1084","0","test_block","poldrack-single-stim","153","290677","0.0-5.0-139.0","go-nogo","true","0","","true","<div class = centerbox><div  id = stim2></div></div>","32","32","750","","test","go","139","adv","","",""
"","310","32","1151","0","test_block","poldrack-single-stim","154","291911","0.0-5.0-140.0","go-nogo","true","0","","true","<div class = centerbox><div  id = stim2></div></div>","32","32","750","","test","go","140","adv","","",""
"","375","32","1394","0","test_block","poldrack-single-stim","155","293370","0.0-5.0-141.0","go-nogo","true","0","","true","<div class = centerbox><div  id = stim2></div></div>","32","32","750","","test","go","141","adv","","",""
"","319","32","1016","0","test_block","poldrack-single-stim","156","294454","0.0-5.0-142.0","go-nogo","true","0","","true","<div class = centerbox><div  id = stim2></div></div>","32","32","750","","test","go","142","adv","","",""
"","372","32","1083","0","test_block","poldrack-single-stim","157","295595","0.0-5.0-143.0","go-nogo","true","0","","true","<div class = centerbox><div  id = stim2></div></div>","32","32","750","","test","go","143","adv","","",""
"","496","32","1483","0","test_block","poldrack-single-stim","158","297162","0.0-5.0-144.0","go-nogo","true","0","","true","<div class = centerbox><div  id = stim2></div></div>","32","32","750","","test","go","144","adv","","",""
"","346","32","1246","0","test_block","poldrack-single-stim","159","298464","0.0-5.0-145.0","go-nogo","true","0","","true","<div class = centerbox><div  id = stim2></div></div>","32","32","750","","test","go","145","adv","","",""
"","368","32","1472","0","test_block","poldrack-single-stim","160","299996","0.0-5.0-146.0","go-nogo","true","0","","true","<div class = centerbox><div  id = stim2></div></div>","32","32","750","","test","go","146","adv","","",""
"","311","32","1181","0","test_block","poldrack-single-stim","161","301238","0.0-5.0-147.0","go-nogo","true","0","","true","<div class = centerbox><div  id = stim2></div></div>","32","32","750","","test","go","147","adv","","",""
"","310","32","1169","0","test_block","poldrack-single-stim","162","302466","0.0-5.0-148.0","go-nogo","true","0","","true","<div class = centerbox><div  id = stim2></div></div>","32","32","750","","test","go","148","adv","","",""
"","470","32","1477","0","test_block","poldrack-single-stim","163","304015","0.0-5.0-149.0","go-nogo","true","0","","true","<div class = centerbox><div  id = stim2></div></div>","32","32","750","","test","go","149","adv","","",""
"","298","32","1468","0","test_block","poldrack-single-stim","164","305550","0.0-5.0-150.0","go-nogo","true","0","","true","<div class = centerbox><div  id = stim2></div></div>","32","32","750","","test","go","150","adv","","",""
"","284","32","1240","0","test_block","poldrack-single-stim","165","306851","0.0-5.0-151.0","go-nogo","true","0","","true","<div class = centerbox><div  id = stim2></div></div>","32","32","750","","test","go","151","adv","","",""
"","393","32","1476","0","test_block","poldrack-single-stim","166","308386","0.0-5.0-152.0","go-nogo","true","0","","true","<div class = centerbox><div  id = stim2></div></div>","32","32","750","","test","go","152","adv","","",""
"","311","32","1253","0","test_block","poldrack-single-stim","167","309710","0.0-5.0-153.0","go-nogo","true","0","","true","<div class = centerbox><div  id = stim2></div></div>","32","32","750","","test","go","153","adv","","",""
"","323","32","1175","0","test_block","poldrack-single-stim","168","310956","0.0-5.0-154.0","go-nogo","true","0","","true","<div class = centerbox><div  id = stim2></div></div>","32","32","750","","test","go","154","adv","","",""
"","302","32","1135","0","test_block","poldrack-single-stim","169","312152","0.0-5.0-155.0","go-nogo","true","0","","true","<div class = centerbox><div  id = stim2></div></div>","32","32","750","","test","go","155","adv","","",""
"","285","32","1072","0","test_block","poldrack-single-stim","170","313287","0.0-5.0-156.0","go-nogo","true","0","","true","<div class = centerbox><div  id = stim2></div></div>","32","32","750","","test","go","156","adv","","",""
"","373","32","1492","0","test_block","poldrack-single-stim","171","314870","0.0-5.0-157.0","go-nogo","true","0","","true","<div class = centerbox><div  id = stim2></div></div>","32","32","750","","test","go","157","adv","","",""
"","152","32","1259","0","test_block","poldrack-single-stim","172","316192","0.0-5.0-158.0","go-nogo","true","0","","true","<div class = centerbox><div  id = stim2></div></div>","32","32","750","","test","go","158","adv","","",""
"","310","32","1091","0","test_block","poldrack-single-stim","173","317362","0.0-5.0-159.0","go-nogo","true","0","","true","<div class = centerbox><div  id = stim2></div></div>","32","32","750","","test","go","159","adv","","",""
"","354","32","1191","0","test_block","poldrack-single-stim","174","318618","0.0-5.0-160.0","go-nogo","true","0","","false","<div class = centerbox><div  id = stim1></div></div>","-1","32","750","","test","nogo","160","adv","","",""
"","-1","-1","1097","0","test_block","poldrack-single-stim","175","319796","0.0-5.0-161.0","go-nogo","true","0","","false","<div class = centerbox><div  id = stim2></div></div>","32","32","750","","test","go","161","adv","","",""
"","313","32","1447","0","test_block","poldrack-single-stim","176","321306","0.0-5.0-162.0","go-nogo","true","0","","true","<div class = centerbox><div  id = stim2></div></div>","32","32","750","","test","go","162","adv","","",""
"","324","32","1054","0","test_block","poldrack-single-stim","177","322418","0.0-5.0-163.0","go-nogo","true","0","","false","<div class = centerbox><div  id = stim1></div></div>","-1","32","750","","test","nogo","163","adv","","",""
"","-1","-1","1023","0","test_block","poldrack-single-stim","178","323498","0.0-5.0-164.0","go-nogo","true","0","","true","<div class = centerbox><div  id = stim1></div></div>","-1","32","750","","test","nogo","164","adv","","",""
"","449","32","1461","0","test_block","poldrack-single-stim","179","325019","0.0-5.0-165.0","go-nogo","true","0","","true","<div class = centerbox><div  id = stim2></div></div>","32","32","750","","test","go","165","adv","","",""
"","615","32","1149","0","test_block","poldrack-single-stim","180","326226","0.0-5.0-166.0","go-nogo","true","0","","true","<div class = centerbox><div  id = stim2></div></div>","32","32","750","","test","go","166","adv","","",""
"","654","32","1050","0","test_block","poldrack-single-stim","181","327349","0.0-5.0-167.0","go-nogo","true","0","","true","<div class = centerbox><div  id = stim2></div></div>","32","32","750","","test","go","167","adv","","",""
"","649","32","1487","0","test_block","poldrack-single-stim","182","328910","0.0-5.0-168.0","go-nogo","true","0","","true","<div class = centerbox><div  id = stim2></div></div>","32","32","750","","test","go","168","adv","","",""
"","438","32","1267","0","test_block","poldrack-single-stim","183","330246","0.0-5.0-169.0","go-nogo","true","0","","true","<div class = centerbox><div  id = stim2></div></div>","32","32","750","","test","go","169","adv","","",""
"","503","32","1451","0","test_block","poldrack-single-stim","184","331792","0.0-5.0-170.0","go-nogo","true","0","","true","<div class = centerbox><div  id = stim2></div></div>","32","32","750","","test","go","170","adv","","",""
"","361","32","1236","0","test_block","poldrack-single-stim","185","333098","0.0-5.0-171.0","go-nogo","true","0","","true","<div class = centerbox><div  id = stim2></div></div>","32","32","750","","test","go","171","adv","","",""
"","425","32","1484","0","test_block","poldrack-single-stim","186","334642","0.0-5.0-172.0","go-nogo","true","0","","true","<div class = centerbox><div  id = stim2></div></div>","32","32","750","","test","go","172","adv","","",""
"","331","32","1373","0","test_block","poldrack-single-stim","187","336102","0.0-5.0-173.0","go-nogo","true","0","","true","<div class = centerbox><div  id = stim2></div></div>","32","32","750","","test","go","173","adv","","",""
"","340","32","1265","0","test_block","poldrack-single-stim","188","337428","0.0-5.0-174.0","go-nogo","true","0","","true","<div class = centerbox><div  id = stim2></div></div>","32","32","750","","test","go","174","adv","","",""
"","-1","-1","1291","0","test_block","poldrack-single-stim","189","338779","0.0-5.0-175.0","go-nogo","true","0","","true","<div class = centerbox><div  id = stim1></div></div>","-1","32","750","","test","nogo","175","adv","","",""
"","430","32","1452","0","test_block","poldrack-single-stim","190","340302","0.0-5.0-176.0","go-nogo","true","0","","true","<div class = centerbox><div  id = stim2></div></div>","32","32","750","","test","go","176","adv","","",""
"","487","32","1483","0","test_block","poldrack-single-stim","191","341883","0.0-5.0-177.0","go-nogo","true","0","","true","<div class = centerbox><div  id = stim2></div></div>","32","32","750","","test","go","177","adv","","",""
"","485","32","1367","0","test_block","poldrack-single-stim","192","343323","0.0-5.0-178.0","go-nogo","true","0","","true","<div class = centerbox><div  id = stim2></div></div>","32","32","750","","test","go","178","adv","","",""
"","352","32","1270","0","test_block","poldrack-single-stim","193","344669","0.0-5.0-179.0","go-nogo","true","0","","true","<div class = centerbox><div  id = stim2></div></div>","32","32","750","","test","go","179","adv","","",""
"","448","32","1378","0","test_block","poldrack-single-stim","194","346125","0.0-5.0-180.0","go-nogo","true","0","","true","<div class = centerbox><div  id = stim2></div></div>","32","32","750","","test","go","180","adv","","",""
"","374","32","1425","0","test_block","poldrack-single-stim","195","347647","0.0-5.0-181.0","go-nogo","true","0","","true","<div class = centerbox><div  id = stim2></div></div>","32","32","750","","test","go","181","adv","","",""
"","333","32","1265","0","test_block","poldrack-single-stim","196","348972","0.0-5.0-182.0","go-nogo","true","0","","true","<div class = centerbox><div  id = stim2></div></div>","32","32","750","","test","go","182","adv","","",""
"","369","32","1440","0","test_block","poldrack-single-stim","197","350469","0.0-5.0-183.0","go-nogo","true","0","","true","<div class = centerbox><div  id = stim2></div></div>","32","32","750","","test","go","183","adv","","",""
"","306","32","1069","0","test_block","poldrack-single-stim","198","351609","0.0-5.0-184.0","go-nogo","true","0","","true","<div class = centerbox><div  id = stim2></div></div>","32","32","750","","test","go","184","adv","","",""
"","437","32","1343","0","test_block","poldrack-single-stim","199","353034","0.0-5.0-185.0","go-nogo","true","0","","true","<div class = centerbox><div  id = stim2></div></div>","32","32","750","","test","go","185","adv","","",""
"","358","32","1046","0","test_block","poldrack-single-stim","200","354150","0.0-5.0-186.0","go-nogo","true","0","","false","<div class = centerbox><div  id = stim1></div></div>","-1","32","750","","test","nogo","186","adv","","",""
"","-1","-1","1498","0","test_block","poldrack-single-stim","201","355705","0.0-5.0-187.0","go-nogo","true","0","","true","<div class = centerbox><div  id = stim1></div></div>","-1","32","750","","test","nogo","187","adv","","",""
"","477","32","1092","0","test_block","poldrack-single-stim","202","356862","0.0-5.0-188.0","go-nogo","true","0","","true","<div class = centerbox><div  id = stim2></div></div>","32","32","750","","test","go","188","adv","","",""
"","375","32","1419","0","test_block","poldrack-single-stim","203","358347","0.0-5.0-189.0","go-nogo","true","0","","true","<div class = centerbox><div  id = stim2></div></div>","32","32","750","","test","go","189","adv","","",""
"","350","32","1420","0","test_block","poldrack-single-stim","204","359835","0.0-5.0-190.0","go-nogo","true","0","","true","<div class = centerbox><div  id = stim2></div></div>","32","32","750","","test","go","190","adv","","",""
"","-1","-1","1359","0","test_block","poldrack-single-stim","205","361266","0.0-5.0-191.0","go-nogo","true","0","","true","<div class = centerbox><div  id = stim1></div></div>","-1","32","750","","test","nogo","191","adv","","",""
"","482","32","1402","0","test_block","poldrack-single-stim","206","362744","0.0-5.0-192.0","go-nogo","true","0","","true","<div class = centerbox><div  id = stim2></div></div>","32","32","750","","test","go","192","adv","","",""
"","401","32","1339","0","test_block","poldrack-single-stim","207","364145","0.0-5.0-193.0","go-nogo","true","0","","true","<div class = centerbox><div  id = stim2></div></div>","32","32","750","","test","go","193","adv","","",""
"","453","32","1112","0","test_block","poldrack-single-stim","208","365329","0.0-5.0-194.0","go-nogo","true","0","","true","<div class = centerbox><div  id = stim2></div></div>","32","32","750","","test","go","194","adv","","",""
"","368","32","1334","0","test_block","poldrack-single-stim","209","366752","0.0-5.0-195.0","go-nogo","true","0","","true","<div class = centerbox><div  id = stim2></div></div>","32","32","750","","test","go","195","adv","","",""
"","-1","-1","1380","0","test_block","poldrack-single-stim","210","368196","0.0-5.0-196.0","go-nogo","true","0","","true","<div class = centerbox><div  id = stim1></div></div>","-1","32","750","","test","nogo","196","adv","","",""
"","513","32","1162","0","test_block","poldrack-single-stim","211","369424","0.0-5.0-197.0","go-nogo","true","0","","true","<div class = centerbox><div  id = stim2></div></div>","32","32","750","","test","go","197","adv","","",""
"","431","32","1311","0","test_block","poldrack-single-stim","212","370807","0.0-5.0-198.0","go-nogo","true","0","","true","<div class = centerbox><div  id = stim2></div></div>","32","32","750","","test","go","198","adv","","",""
"","373","32","1328","0","test_block","poldrack-single-stim","213","372211","0.0-5.0-199.0","go-nogo","true","0","","true","<div class = centerbox><div  id = stim2></div></div>","32","32","750","","test","go","199","adv","","",""
"","406","32","1344","0","test_block","poldrack-single-stim","214","373617","0.0-5.0-200.0","go-nogo","true","0","","true","<div class = centerbox><div  id = stim2></div></div>","32","32","750","","test","go","200","adv","","",""
"","409","32","1159","0","test_block","poldrack-single-stim","215","374838","0.0-5.0-201.0","go-nogo","true","0","","true","<div class = centerbox><div  id = stim2></div></div>","32","32","750","","test","go","201","adv","","",""
"","474","32","1340","0","test_block","poldrack-single-stim","216","376249","0.0-5.0-202.0","go-nogo","true","0","","true","<div class = centerbox><div  id = stim2></div></div>","32","32","750","","test","go","202","adv","","",""
"","366","32","1398","0","test_block","poldrack-single-stim","217","377727","0.0-5.0-203.0","go-nogo","true","0","","true","<div class = centerbox><div  id = stim2></div></div>","32","32","750","","test","go","203","adv","","",""
"","325","32","1375","0","test_block","poldrack-single-stim","218","379169","0.0-5.0-204.0","go-nogo","true","0","","true","<div class = centerbox><div  id = stim2></div></div>","32","32","750","","test","go","204","adv","","",""
"","346","32","1023","0","test_block","poldrack-single-stim","219","380261","0.0-5.0-205.0","go-nogo","true","0","","true","<div class = centerbox><div  id = stim2></div></div>","32","32","750","","test","go","205","adv","","",""
"","-1","-1","1341","0","test_block","poldrack-single-stim","220","381664","0.0-5.0-206.0","go-nogo","true","0","","true","<div class = centerbox><div  id = stim1></div></div>","-1","32","750","","test","nogo","206","adv","","",""
"","491","32","1381","0","test_block","poldrack-single-stim","221","383106","0.0-5.0-207.0","go-nogo","true","0","","true","<div class = centerbox><div  id = stim2></div></div>","32","32","750","","test","go","207","adv","","",""
"","426","32","1230","0","test_block","poldrack-single-stim","222","384395","0.0-5.0-208.0","go-nogo","true","0","","true","<div class = centerbox><div  id = stim2></div></div>","32","32","750","","test","go","208","adv","","",""
"","412","32","1312","0","test_block","poldrack-single-stim","223","385771","0.0-5.0-209.0","go-nogo","true","0","","true","<div class = centerbox><div  id = stim2></div></div>","32","32","750","","test","go","209","adv","","",""
"","403","32","1083","0","test_block","poldrack-single-stim","224","386936","0.0-5.0-210.0","go-nogo","true","0","","true","<div class = centerbox><div  id = stim2></div></div>","32","32","750","","test","go","210","adv","","",""
"","413","32","1457","0","test_block","poldrack-single-stim","225","388460","0.0-5.0-211.0","go-nogo","true","0","","true","<div class = centerbox><div  id = stim2></div></div>","32","32","750","","test","go","211","adv","","",""
"","333","32","1427","0","test_block","poldrack-single-stim","226","389948","0.0-5.0-212.0","go-nogo","true","0","","true","<div class = centerbox><div  id = stim2></div></div>","32","32","750","","test","go","212","adv","","",""
"","337","32","1226","0","test_block","poldrack-single-stim","227","391232","0.0-5.0-213.0","go-nogo","true","0","","true","<div class = centerbox><div  id = stim2></div></div>","32","32","750","","test","go","213","adv","","",""
"","392","32","1395","0","test_block","poldrack-single-stim","228","392689","0.0-5.0-214.0","go-nogo","true","0","","true","<div class = centerbox><div  id = stim2></div></div>","32","32","750","","test","go","214","adv","","",""
"","341","32","1298","0","test_block","poldrack-single-stim","229","394062","0.0-5.0-215.0","go-nogo","true","0","","true","<div class = centerbox><div  id = stim2></div></div>","32","32","750","","test","go","215","adv","","",""
"","342","32","1289","0","test_block","poldrack-single-stim","230","395416","0.0-5.0-216.0","go-nogo","true","0","","true","<div class = centerbox><div  id = stim2></div></div>","32","32","750","","test","go","216","adv","","",""
"","328","32","1450","0","test_block","poldrack-single-stim","231","396939","0.0-5.0-217.0","go-nogo","true","0","","false","<div class = centerbox><div  id = stim1></div></div>","-1","32","750","","test","nogo","217","adv","","",""
"","420","32","1242","0","test_block","poldrack-single-stim","232","398244","0.0-5.0-218.0","go-nogo","true","0","","true","<div class = centerbox><div  id = stim2></div></div>","32","32","750","","test","go","218","adv","","",""
"","483","32","1259","0","test_block","poldrack-single-stim","233","399566","0.0-5.0-219.0","go-nogo","true","0","","true","<div class = centerbox><div  id = stim2></div></div>","32","32","750","","test","go","219","adv","","",""
"","-1","-1","1307","0","test_block","poldrack-single-stim","234","400954","0.0-5.0-220.0","go-nogo","true","0","","true","<div class = centerbox><div  id = stim1></div></div>","-1","32","750","","test","nogo","220","adv","","",""
"","469","32","1281","0","test_block","poldrack-single-stim","235","402306","0.0-5.0-221.0","go-nogo","true","0","","true","<div class = centerbox><div  id = stim2></div></div>","32","32","750","","test","go","221","adv","","",""
"","550","32","1316","0","test_block","poldrack-single-stim","236","403685","0.0-5.0-222.0","go-nogo","true","0","","true","<div class = centerbox><div  id = stim2></div></div>","32","32","750","","test","go","222","adv","","",""
"","-1","-1","1105","0","test_block","poldrack-single-stim","237","404850","0.0-5.0-223.0","go-nogo","true","0","","true","<div class = centerbox><div  id = stim1></div></div>","-1","32","750","","test","nogo","223","adv","","",""
"","467","32","1161","0","test_block","poldrack-single-stim","238","406078","0.0-5.0-224.0","go-nogo","true","0","","true","<div class = centerbox><div  id = stim2></div></div>","32","32","750","","test","go","224","adv","","",""
"","504","32","1379","0","test_block","poldrack-single-stim","239","407523","0.0-5.0-225.0","go-nogo","true","0","","true","<div class = centerbox><div  id = stim2></div></div>","32","32","750","","test","go","225","adv","","",""
"","401","32","1493","0","test_block","poldrack-single-stim","240","409089","0.0-5.0-226.0","go-nogo","true","0","","true","<div class = centerbox><div  id = stim2></div></div>","32","32","750","","test","go","226","adv","","",""
"","421","32","1072","0","test_block","poldrack-single-stim","241","410208","0.0-5.0-227.0","go-nogo","true","0","","true","<div class = centerbox><div  id = stim2></div></div>","32","32","750","","test","go","227","adv","","",""
"","-1","-1","1409","0","test_block","poldrack-single-stim","242","411686","0.0-5.0-228.0","go-nogo","true","0","","true","<div class = centerbox><div  id = stim1></div></div>","-1","32","750","","test","nogo","228","adv","","",""
"","452","32","1343","0","test_block","poldrack-single-stim","243","413090","0.0-5.0-229.0","go-nogo","true","0","","true","<div class = centerbox><div  id = stim2></div></div>","32","32","750","","test","go","229","adv","","",""
"","544","32","1416","0","test_block","poldrack-single-stim","244","414564","0.0-5.0-230.0","go-nogo","true","0","","true","<div class = centerbox><div  id = stim2></div></div>","32","32","750","","test","go","230","adv","","",""
"","495","32","1341","0","test_block","poldrack-single-stim","245","415972","0.0-5.0-231.0","go-nogo","true","0","","true","<div class = centerbox><div  id = stim2></div></div>","32","32","750","","test","go","231","adv","","",""
"","396","32","1350","0","test_block","poldrack-single-stim","246","417398","0.0-5.0-232.0","go-nogo","true","0","","true","<div class = centerbox><div  id = stim2></div></div>","32","32","750","","test","go","232","adv","","",""
"","334","32","1494","0","test_block","poldrack-single-stim","247","418958","0.0-5.0-233.0","go-nogo","true","0","","true","<div class = centerbox><div  id = stim2></div></div>","32","32","750","","test","go","233","adv","","",""
"","359","32","1362","0","test_block","poldrack-single-stim","248","420407","0.0-5.0-234.0","go-nogo","true","0","","true","<div class = centerbox><div  id = stim2></div></div>","32","32","750","","test","go","234","adv","","",""
"","353","32","1372","0","test_block","poldrack-single-stim","249","421850","0.0-5.0-235.0","go-nogo","true","0","","true","<div class = centerbox><div  id = stim2></div></div>","32","32","750","","test","go","235","adv","","",""
"","328","32","1419","0","test_block","poldrack-single-stim","250","423344","0.0-5.0-236.0","go-nogo","true","0","","true","<div class = centerbox><div  id = stim2></div></div>","32","32","750","","test","go","236","adv","","",""
"","424","32","1138","0","test_block","poldrack-single-stim","251","424548","0.0-5.0-237.0","go-nogo","true","0","","true","<div class = centerbox><div  id = stim2></div></div>","32","32","750","","test","go","237","adv","","",""
"","-1","-1","1301","0","test_block","poldrack-single-stim","252","425912","0.0-5.0-238.0","go-nogo","true","0","","true","<div class = centerbox><div  id = stim1></div></div>","-1","32","750","","test","nogo","238","adv","","",""
"","375","32","1238","0","test_block","poldrack-single-stim","253","427196","0.0-5.0-239.0","go-nogo","true","0","","true","<div class = centerbox><div  id = stim2></div></div>","32","32","750","","test","go","239","adv","","",""
"","429","32","1068","0","test_block","poldrack-single-stim","254","428330","0.0-5.0-240.0","go-nogo","true","0","","true","<div class = centerbox><div  id = stim2></div></div>","32","32","750","","test","go","240","adv","","",""
"","417","32","1054","0","test_block","poldrack-single-stim","255","429451","0.0-5.0-241.0","go-nogo","true","0","","true","<div class = centerbox><div  id = stim2></div></div>","32","32","750","","test","go","241","adv","","",""
"","526","32","1486","0","test_block","poldrack-single-stim","256","430996","0.0-5.0-242.0","go-nogo","true","0","","true","<div class = centerbox><div  id = stim2></div></div>","32","32","750","","test","go","242","adv","","",""
"","369","32","1468","0","test_block","poldrack-single-stim","257","432529","0.0-5.0-243.0","go-nogo","true","0","","true","<div class = centerbox><div  id = stim2></div></div>","32","32","750","","test","go","243","adv","","",""
"","292","32","1431","0","test_block","poldrack-single-stim","258","434027","0.0-5.0-244.0","go-nogo","true","0","","true","<div class = centerbox><div  id = stim2></div></div>","32","32","750","","test","go","244","adv","","",""
"","297","32","1380","0","test_block","poldrack-single-stim","259","435480","0.0-5.0-245.0","go-nogo","true","0","","true","<div class = centerbox><div  id = stim2></div></div>","32","32","750","","test","go","245","adv","","",""
"","365","32","1247","0","test_block","poldrack-single-stim","260","436800","0.0-5.0-246.0","go-nogo","true","0","","true","<div class = centerbox><div  id = stim2></div></div>","32","32","750","","test","go","246","adv","","",""
"","364","32","1282","0","test_block","poldrack-single-stim","261","438146","0.0-5.0-247.0","go-nogo","true","0","","true","<div class = centerbox><div  id = stim2></div></div>","32","32","750","","test","go","247","adv","","",""
"","354","32","1088","0","test_block","poldrack-single-stim","262","439300","0.0-5.0-248.0","go-nogo","true","0","","true","<div class = centerbox><div  id = stim2></div></div>","32","32","750","","test","go","248","adv","","",""
"","533","32","1224","0","test_block","poldrack-single-stim","263","440604","0.0-5.0-249.0","go-nogo","true","0","","true","<div class = centerbox><div  id = stim2></div></div>","32","32","750","","test","go","249","adv","","",""
"","-1","-1","1468","0","test_block","poldrack-single-stim","264","442135","0.0-5.0-250.0","go-nogo","true","0","","true","<div class = centerbox><div  id = stim1></div></div>","-1","32","750","","test","nogo","250","adv","","",""
"","365","32","1375","0","test_block","poldrack-single-stim","265","443565","0.0-5.0-251.0","go-nogo","true","0","","true","<div class = centerbox><div  id = stim2></div></div>","32","32","750","","test","go","251","adv","","",""
"","291","32","1321","0","test_block","poldrack-single-stim","266","444936","0.0-5.0-252.0","go-nogo","true","0","","true","<div class = centerbox><div  id = stim2></div></div>","32","32","750","","test","go","252","adv","","",""
"","334","32","1481","0","test_block","poldrack-single-stim","267","446473","0.0-5.0-253.0","go-nogo","true","0","","true","<div class = centerbox><div  id = stim2></div></div>","32","32","750","","test","go","253","adv","","",""
"","277","32","1151","0","test_block","poldrack-single-stim","268","447688","0.0-5.0-254.0","go-nogo","true","0","","true","<div class = centerbox><div  id = stim2></div></div>","32","32","750","","test","go","254","adv","","",""
"","352","32","1278","0","test_block","poldrack-single-stim","269","449029","0.0-5.0-255.0","go-nogo","true","0","","true","<div class = centerbox><div  id = stim2></div></div>","32","32","750","","test","go","255","adv","","",""
"","383","32","1203","0","test_block","poldrack-single-stim","270","450298","0.0-5.0-256.0","go-nogo","true","0","","true","<div class = centerbox><div  id = stim2></div></div>","32","32","750","","test","go","256","adv","","",""
"","341","32","1070","0","test_block","poldrack-single-stim","271","451432","0.0-5.0-257.0","go-nogo","true","0","","true","<div class = centerbox><div  id = stim2></div></div>","32","32","750","","test","go","257","adv","","",""
"","348","32","1429","0","test_block","poldrack-single-stim","272","452930","0.0-5.0-258.0","go-nogo","true","0","","true","<div class = centerbox><div  id = stim2></div></div>","32","32","750","","test","go","258","adv","","",""
"","283","32","1192","0","test_block","poldrack-single-stim","273","454208","0.0-5.0-259.0","go-nogo","true","0","","true","<div class = centerbox><div  id = stim2></div></div>","32","32","750","","test","go","259","adv","","",""
"","303","32","1482","0","test_block","poldrack-single-stim","274","455751","0.0-5.0-260.0","go-nogo","true","0","","true","<div class = centerbox><div  id = stim2></div></div>","32","32","750","","test","go","260","adv","","",""
"","366","32","1360","0","test_block","poldrack-single-stim","275","457192","0.0-5.0-261.0","go-nogo","true","0","","true","<div class = centerbox><div  id = stim2></div></div>","32","32","750","","test","go","261","adv","","",""
"","317","32","1378","0","test_block","poldrack-single-stim","276","458633","0.0-5.0-262.0","go-nogo","true","0","","true","<div class = centerbox><div  id = stim2></div></div>","32","32","750","","test","go","262","adv","","",""
"","298","32","1452","0","test_block","poldrack-single-stim","277","460138","0.0-5.0-263.0","go-nogo","true","0","","false","<div class = centerbox><div  id = stim1></div></div>","-1","32","750","","test","nogo","263","adv","","",""
"","648","32","1129","0","test_block","poldrack-single-stim","278","461342","0.0-5.0-264.0","go-nogo","true","0","","true","<div class = centerbox><div  id = stim2></div></div>","32","32","750","","test","go","264","adv","","",""
"","407","32","1133","0","test_block","poldrack-single-stim","279","462541","0.0-5.0-265.0","go-nogo","true","0","","true","<div class = centerbox><div  id = stim2></div></div>","32","32","750","","test","go","265","adv","","",""
"","-1","-1","1320","0","test_block","poldrack-single-stim","280","463930","0.0-5.0-266.0","go-nogo","true","0","","true","<div class = centerbox><div  id = stim1></div></div>","-1","32","750","","test","nogo","266","adv","","",""
"","322","32","1212","0","test_block","poldrack-single-stim","281","465199","0.0-5.0-267.0","go-nogo","true","0","","true","<div class = centerbox><div  id = stim2></div></div>","32","32","750","","test","go","267","adv","","",""
"","429","32","1336","0","test_block","poldrack-single-stim","282","466600","0.0-5.0-268.0","go-nogo","true","0","","true","<div class = centerbox><div  id = stim2></div></div>","32","32","750","","test","go","268","adv","","",""
"","-1","-1","1188","0","test_block","poldrack-single-stim","283","467857","0.0-5.0-269.0","go-nogo","true","0","","true","<div class = centerbox><div  id = stim1></div></div>","-1","32","750","","test","nogo","269","adv","","",""
"","407","32","1133","0","test_block","poldrack-single-stim","284","469054","0.0-5.0-270.0","go-nogo","true","0","","true","<div class = centerbox><div  id = stim2></div></div>","32","32","750","","test","go","270","adv","","",""
"","645","32","1416","0","test_block","poldrack-single-stim","285","470543","0.0-5.0-271.0","go-nogo","true","0","","true","<div class = centerbox><div  id = stim2></div></div>","32","32","750","","test","go","271","adv","","",""
"","417","32","1313","0","test_block","poldrack-single-stim","286","471918","0.0-5.0-272.0","go-nogo","true","0","","true","<div class = centerbox><div  id = stim2></div></div>","32","32","750","","test","go","272","adv","","",""
"","-1","-1","1313","0","test_block","poldrack-single-stim","287","473301","0.0-5.0-273.0","go-nogo","true","0","","true","<div class = centerbox><div  id = stim1></div></div>","-1","32","750","","test","nogo","273","adv","","",""
"","340","32","1158","0","test_block","poldrack-single-stim","288","474528","0.0-5.0-274.0","go-nogo","true","0","","true","<div class = centerbox><div  id = stim2></div></div>","32","32","750","","test","go","274","adv","","",""
"","705","32","1491","0","test_block","poldrack-single-stim","289","476092","0.0-5.0-275.0","go-nogo","true","0","","true","<div class = centerbox><div  id = stim2></div></div>","32","32","750","","test","go","275","adv","","",""
"","401","32","1127","0","test_block","poldrack-single-stim","290","477285","0.0-5.0-276.0","go-nogo","true","0","","true","<div class = centerbox><div  id = stim2></div></div>","32","32","750","","test","go","276","adv","","",""
"","364","32","1168","0","test_block","poldrack-single-stim","291","478546","0.0-5.0-277.0","go-nogo","true","0","","true","<div class = centerbox><div  id = stim2></div></div>","32","32","750","","test","go","277","adv","","",""
"","336","32","1410","0","test_block","poldrack-single-stim","292","480034","0.0-5.0-278.0","go-nogo","true","0","","true","<div class = centerbox><div  id = stim2></div></div>","32","32","750","","test","go","278","adv","","",""
"","316","32","1350","0","test_block","poldrack-single-stim","293","481440","0.0-5.0-279.0","go-nogo","true","0","","true","<div class = centerbox><div  id = stim2></div></div>","32","32","750","","test","go","279","adv","","",""
"","328","32","1389","0","test_block","poldrack-single-stim","294","482906","0.0-5.0-280.0","go-nogo","true","0","","true","<div class = centerbox><div  id = stim2></div></div>","32","32","750","","test","go","280","adv","","",""
"","320","32","1460","0","test_block","poldrack-single-stim","295","484427","0.0-5.0-281.0","go-nogo","true","0","","true","<div class = centerbox><div  id = stim2></div></div>","32","32","750","","test","go","281","adv","","",""
"","293","32","1280","0","test_block","poldrack-single-stim","296","485792","0.0-5.0-282.0","go-nogo","true","0","","true","<div class = centerbox><div  id = stim2></div></div>","32","32","750","","test","go","282","adv","","",""
"","309","32","1117","0","test_block","poldrack-single-stim","297","486973","0.0-5.0-283.0","go-nogo","true","0","","true","<div class = centerbox><div  id = stim2></div></div>","32","32","750","","test","go","283","adv","","",""
"","360","32","1128","0","test_block","poldrack-single-stim","298","488175","0.0-5.0-284.0","go-nogo","true","0","","true","<div class = centerbox><div  id = stim2></div></div>","32","32","750","","test","go","284","adv","","",""
"","398","32","1452","0","test_block","poldrack-single-stim","299","489706","0.0-5.0-285.0","go-nogo","true","0","","true","<div class = centerbox><div  id = stim2></div></div>","32","32","750","","test","go","285","adv","","",""
"","300","32","1312","0","test_block","poldrack-single-stim","300","491090","0.0-5.0-286.0","go-nogo","true","0","","true","<div class = centerbox><div  id = stim2></div></div>","32","32","750","","test","go","286","adv","","",""
"","383","32","1100","0","test_block","poldrack-single-stim","301","492256","0.0-5.0-287.0","go-nogo","true","0","","true","<div class = centerbox><div  id = stim2></div></div>","32","32","750","","test","go","287","adv","","",""
"","-1","-1","1242","0","test_block","poldrack-single-stim","302","493582","0.0-5.0-288.0","go-nogo","true","0","","true","<div class = centerbox><div  id = stim1></div></div>","-1","32","750","","test","nogo","288","adv","","",""
"","454","32","1088","0","test_block","poldrack-single-stim","303","494740","0.0-5.0-289.0","go-nogo","true","0","","true","<div class = centerbox><div  id = stim2></div></div>","32","32","750","","test","go","289","adv","","",""
"","347","32","1186","0","test_block","poldrack-single-stim","304","496017","0.0-5.0-290.0","go-nogo","true","0","","true","<div class = centerbox><div  id = stim2></div></div>","32","32","750","","test","go","290","adv","","",""
"","271","32","1389","0","test_block","poldrack-single-stim","305","497468","0.0-5.0-291.0","go-nogo","true","0","","true","<div class = centerbox><div  id = stim2></div></div>","32","32","750","","test","go","291","adv","","",""
"","250","32","1485","0","test_block","poldrack-single-stim","306","499016","0.0-5.0-292.0","go-nogo","true","0","","true","<div class = centerbox><div  id = stim2></div></div>","32","32","750","","test","go","292","adv","","",""
"","355","32","1333","0","test_block","poldrack-single-stim","307","500409","0.0-5.0-293.0","go-nogo","true","0","","true","<div class = centerbox><div  id = stim2></div></div>","32","32","750","","test","go","293","adv","","",""
"","306","32","1092","0","test_block","poldrack-single-stim","308","501565","0.0-5.0-294.0","go-nogo","true","0","","true","<div class = centerbox><div  id = stim2></div></div>","32","32","750","","test","go","294","adv","","",""
"","485","32","1366","0","test_block","poldrack-single-stim","309","502992","0.0-5.0-295.0","go-nogo","true","0","","true","<div class = centerbox><div  id = stim2></div></div>","32","32","750","","test","go","295","adv","","",""
"","350","32","1252","0","test_block","poldrack-single-stim","310","504317","0.0-5.0-296.0","go-nogo","true","0","","true","<div class = centerbox><div  id = stim2></div></div>","32","32","750","","test","go","296","adv","","",""
"","310","32","1290","0","test_block","poldrack-single-stim","311","505674","0.0-5.0-297.0","go-nogo","true","0","","true","<div class = centerbox><div  id = stim2></div></div>","32","32","750","","test","go","297","adv","","",""
"","333","32","1301","0","test_block","poldrack-single-stim","312","507041","0.0-5.0-298.0","go-nogo","true","0","","true","<div class = centerbox><div  id = stim2></div></div>","32","32","750","","test","go","298","adv","","",""
"","328","32","1089","0","test_block","poldrack-single-stim","313","508191","0.0-5.0-299.0","go-nogo","true","0","","true","<div class = centerbox><div  id = stim2></div></div>","32","32","750","","test","go","299","adv","","",""
"","544","32","1295","0","test_block","poldrack-single-stim","314","509564","0.0-5.0-300.0","go-nogo","true","0","","true","<div class = centerbox><div  id = stim2></div></div>","32","32","750","","test","go","300","adv","","",""
"","533","32","1343","0","test_block","poldrack-single-stim","315","510953","0.0-5.0-301.0","go-nogo","true","0","","true","<div class = centerbox><div  id = stim2></div></div>","32","32","750","","test","go","301","adv","","",""
"","329","32","1368","0","test_block","poldrack-single-stim","316","512381","0.0-5.0-302.0","go-nogo","true","0","","true","<div class = centerbox><div  id = stim2></div></div>","32","32","750","","test","go","302","adv","","",""
"","297","32","1261","0","test_block","poldrack-single-stim","317","513705","0.0-5.0-303.0","go-nogo","true","0","","true","<div class = centerbox><div  id = stim2></div></div>","32","32","750","","test","go","303","adv","","",""
"","258","32","1358","0","test_block","poldrack-single-stim","318","515128","0.0-5.0-304.0","go-nogo","true","0","","true","<div class = centerbox><div  id = stim2></div></div>","32","32","750","","test","go","304","adv","","",""
"","313","32","1240","0","test_block","poldrack-single-stim","319","516427","0.0-5.0-305.0","go-nogo","true","0","","true","<div class = centerbox><div  id = stim2></div></div>","32","32","750","","test","go","305","adv","","",""
"","309","32","1073","0","test_block","poldrack-single-stim","320","517560","0.0-5.0-306.0","go-nogo","true","0","","true","<div class = centerbox><div  id = stim2></div></div>","32","32","750","","test","go","306","adv","","",""
"","385","32","1160","0","test_block","poldrack-single-stim","321","518792","0.0-5.0-307.0","go-nogo","true","0","","true","<div class = centerbox><div  id = stim2></div></div>","32","32","750","","test","go","307","adv","","",""
"","344","32","1016","0","test_block","poldrack-single-stim","322","519864","0.0-5.0-308.0","go-nogo","true","0","","true","<div class = centerbox><div  id = stim2></div></div>","32","32","750","","test","go","308","adv","","",""
"","470","32","1320","0","test_block","poldrack-single-stim","323","521262","0.0-5.0-309.0","go-nogo","true","0","","true","<div class = centerbox><div  id = stim2></div></div>","32","32","750","","test","go","309","adv","","",""
"","359","32","1296","0","test_block","poldrack-single-stim","324","522622","0.0-5.0-310.0","go-nogo","true","0","","true","<div class = centerbox><div  id = stim2></div></div>","32","32","750","","test","go","310","adv","","",""
"","264","32","1262","0","test_block","poldrack-single-stim","325","523945","0.0-5.0-311.0","go-nogo","true","0","","false","<div class = centerbox><div  id = stim1></div></div>","-1","32","750","","test","nogo","311","adv","","",""
"","468","32","1292","0","test_block","poldrack-single-stim","326","525298","0.0-5.0-312.0","go-nogo","true","0","","true","<div class = centerbox><div  id = stim2></div></div>","32","32","750","","test","go","312","adv","","",""
"","-1","-1","1074","0","test_block","poldrack-single-stim","327","526446","0.0-5.0-313.0","go-nogo","true","0","","true","<div class = centerbox><div  id = stim1></div></div>","-1","32","750","","test","nogo","313","adv","","",""
"","445","32","1200","0","test_block","poldrack-single-stim","328","527726","0.0-5.0-314.0","go-nogo","true","0","","true","<div class = centerbox><div  id = stim2></div></div>","32","32","750","","test","go","314","adv","","",""
"","439","32","1335","0","test_block","poldrack-single-stim","329","529126","0.0-5.0-315.0","go-nogo","true","0","","true","<div class = centerbox><div  id = stim2></div></div>","32","32","750","","test","go","315","adv","","",""
"","-1","-1","1371","0","test_block","poldrack-single-stim","330","530571","0.0-5.0-316.0","go-nogo","true","0","","true","<div class = centerbox><div  id = stim1></div></div>","-1","32","750","","test","nogo","316","adv","","",""
"","439","32","1131","0","test_block","poldrack-single-stim","331","531762","0.0-5.0-317.0","go-nogo","true","0","","true","<div class = centerbox><div  id = stim2></div></div>","32","32","750","","test","go","317","adv","","",""
"","391","32","1342","0","test_block","poldrack-single-stim","332","533166","0.0-5.0-318.0","go-nogo","true","0","","true","<div class = centerbox><div  id = stim2></div></div>","32","32","750","","test","go","318","adv","","",""
"","321","32","1314","0","test_block","poldrack-single-stim","333","534550","0.0-5.0-319.0","go-nogo","true","0","","true","<div class = centerbox><div  id = stim2></div></div>","32","32","750","","test","go","319","adv","","",""
"","281","32","1430","0","test_block","poldrack-single-stim","334","536059","0.0-5.0-320.0","go-nogo","true","0","","true","<div class = centerbox><div  id = stim2></div></div>","32","32","750","","test","go","320","adv","","",""
"","310","32","1049","0","test_block","poldrack-single-stim","335","537176","0.0-5.0-321.0","go-nogo","true","0","","true","<div class = centerbox><div  id = stim2></div></div>","32","32","750","","test","go","321","adv","","",""
"","495","32","1399","0","test_block","poldrack-single-stim","336","538634","0.0-5.0-322.0","go-nogo","true","0","","true","<div class = centerbox><div  id = stim2></div></div>","32","32","750","","test","go","322","adv","","",""
"","381","32","1189","0","test_block","poldrack-single-stim","337","539907","0.0-5.0-323.0","go-nogo","true","0","","true","<div class = centerbox><div  id = stim2></div></div>","32","32","750","","test","go","323","adv","","",""
"","460","32","1006","0","test_block","poldrack-single-stim","338","540969","0.0-5.0-324.0","go-nogo","true","0","","true","<div class = centerbox><div  id = stim2></div></div>","32","32","750","","test","go","324","adv","","",""
"","592","32","1149","0","test_block","poldrack-single-stim","339","542177","0.0-5.0-325.0","go-nogo","true","0","","true","<div class = centerbox><div  id = stim2></div></div>","32","32","750","","test","go","325","adv","","",""
"","586","32","1314","0","test_block","poldrack-single-stim","340","543558","0.0-5.0-326.0","go-nogo","true","0","","true","<div class = centerbox><div  id = stim2></div></div>","32","32","750","","test","go","326","adv","","",""
"","478","32","1147","0","test_block","poldrack-single-stim","341","544771","0.0-5.0-327.0","go-nogo","true","0","","true","<div class = centerbox><div  id = stim2></div></div>","32","32","750","","test","go","327","adv","","",""
"","420","32","1231","0","test_block","poldrack-single-stim","342","546074","0.0-5.0-328.0","go-nogo","true","0","","true","<div class = centerbox><div  id = stim2></div></div>","32","32","750","","test","go","328","adv","","",""
"","393","32","1069","0","test_block","poldrack-single-stim","343","547209","0.0-5.0-329.0","go-nogo","true","0","","true","<div class = centerbox><div  id = stim2></div></div>","32","32","750","","test","go","329","adv","","",""
"","452","32","1028","0","test_block","poldrack-single-stim","344","548316","0.0-5.0-330.0","go-nogo","true","0","","true","<div class = centerbox><div  id = stim2></div></div>","32","32","750","","test","go","330","adv","","",""
"","451","32","1337","0","test_block","poldrack-single-stim","345","549710","0.0-5.0-331.0","go-nogo","true","0","","true","<div class = centerbox><div  id = stim2></div></div>","32","32","750","","test","go","331","adv","","",""
"","354","32","1495","0","test_block","poldrack-single-stim","346","551288","0.0-5.0-332.0","go-nogo","true","0","","false","<div class = centerbox><div  id = stim1></div></div>","-1","32","750","","test","nogo","332","adv","","",""
"","358","32","1401","0","test_block","poldrack-single-stim","347","552745","0.0-5.0-333.0","go-nogo","true","0","","true","<div class = centerbox><div  id = stim2></div></div>","32","32","750","","test","go","333","adv","","",""
"","-1","-1","1192","0","test_block","poldrack-single-stim","348","554003","0.0-5.0-334.0","go-nogo","true","0","","true","<div class = centerbox><div  id = stim1></div></div>","-1","32","750","","test","nogo","334","adv","","",""
"","375","32","1348","0","test_block","poldrack-single-stim","349","555418","0.0-5.0-335.0","go-nogo","true","0","","true","<div class = centerbox><div  id = stim2></div></div>","32","32","750","","test","go","335","adv","","",""
"","333","32","1078","0","test_block","poldrack-single-stim","350","556558","0.0-5.0-336.0","go-nogo","true","0","","true","<div class = centerbox><div  id = stim2></div></div>","32","32","750","","test","go","336","adv","","",""
"","-1","-1","1026","0","test_block","poldrack-single-stim","351","557632","0.0-5.0-337.0","go-nogo","true","0","","true","<div class = centerbox><div  id = stim1></div></div>","-1","32","750","","test","nogo","337","adv","","",""
"","456","32","1204","0","test_block","poldrack-single-stim","352","558903","0.0-5.0-338.0","go-nogo","true","0","","true","<div class = centerbox><div  id = stim2></div></div>","32","32","750","","test","go","338","adv","","",""
"","441","32","1009","0","test_block","poldrack-single-stim","353","559975","0.0-5.0-339.0","go-nogo","true","0","","true","<div class = centerbox><div  id = stim2></div></div>","32","32","750","","test","go","339","adv","","",""
"","427","32","1416","0","test_block","poldrack-single-stim","354","561456","0.0-5.0-340.0","go-nogo","true","0","","true","<div class = centerbox><div  id = stim2></div></div>","32","32","750","","test","go","340","adv","","",""
"","-1","-1","1452","0","test_block","poldrack-single-stim","355","563006","0.0-5.0-341.0","go-nogo","true","0","","true","<div class = centerbox><div  id = stim1></div></div>","-1","32","750","","test","nogo","341","adv","","",""
"","-1","-1","1263","0","test_block","poldrack-single-stim","356","564330","0.0-5.0-342.0","go-nogo","true","0","","true","<div class = centerbox><div  id = stim1></div></div>","-1","32","750","","test","nogo","342","adv","","",""
"","-1","-1","1478","0","test_block","poldrack-single-stim","357","565878","0.0-5.0-343.0","go-nogo","true","0","","true","<div class = centerbox><div  id = stim1></div></div>","-1","32","750","","test","nogo","343","adv","","",""
"","-1","-1","1206","0","test_block","poldrack-single-stim","358","567152","0.0-5.0-344.0","go-nogo","true","0","","true","<div class = centerbox><div  id = stim1></div></div>","-1","32","750","","test","nogo","344","adv","","",""
"","-1","-1","1333","0","test_block","poldrack-single-stim","359","568547","0.0-5.0-345.0","go-nogo","true","0","","true","<div class = centerbox><div  id = stim1></div></div>","-1","32","750","","test","nogo","345","adv","","",""
"","-1","-1","1195","0","test_block","poldrack-single-stim","360","569805","0.0-5.0-346.0","go-nogo","true","0","","true","<div class = centerbox><div  id = stim1></div></div>","-1","32","750","","test","nogo","346","adv","","",""
"","-1","-1","1305","0","test_block","poldrack-single-stim","361","571189","0.0-5.0-347.0","go-nogo","true","0","","true","<div class = centerbox><div  id = stim1></div></div>","-1","32","750","","test","nogo","347","adv","","",""
"","-1","-1","1431","0","test_block","poldrack-single-stim","362","572689","0.0-5.0-348.0","go-nogo","true","0","","true","<div class = centerbox><div  id = stim1></div></div>","-1","32","750","","test","nogo","348","adv","","",""
"","-1","-1","1045","0","test_block","poldrack-single-stim","363","573804","0.0-5.0-349.0","go-nogo","true","0","","true","<div class = centerbox><div  id = stim1></div></div>","-1","32","750","","test","nogo","349","adv","","",""
"","148343","","","","post task questions","survey-text","364","722214","0.0-7.0","go-nogo","true","0","","","","","","","","","","","","{""Q0"":""I was asked to press the spacebar for the color blue only and ignore the orange color"",""Q1"":""I don't but was okay""}","",""
"<div class = centerbox><p class = center-block-text>Thanks for completing this task!</p><p class = center-block-text>Insert the following code to collect your payment at Amazon Mechanical Turk:</p><p class = center-block-text>531667317</p><p class = center-block-text>Press <strong>enter</strong> to continue.</p></div>","-1","-1","180000","0","end","poldrack-text","365","903461","0.0-8.0","go-nogo","true","1","","","","","","","","","","","","","531667317","true"
