"text","rt","key_press","block_duration","timing_post_trial","trial_id","trial_type","trial_index","time_elapsed","internal_node_id","exp_id","full_screen","focus_shifts","view_history","correct","stimulus","correct_response","possible_responses","stim_duration","feedback_duration","exp_stage","condition","trial_num","mode","responses","payment_id","credit_var"
"<div class = centerbox><p class = center-block-text>Welcome to the experiment. This task will take around 10 minutes. Press <strong>enter</strong> to begin.</p></div>","2365","13","2365","0","instruction","poldrack-text","0","2366","0.0-0.0-0.0","go-nogo","true","0","","","","","","","","","","","","","",""
"","7557","","","","instruction","poldrack-instructions","1","9924","0.0-0.0-1.0","go-nogo","true","0","[{""page_index"":0,""viewing_time"":7557}]","","","","","","","","","","","","",""
"","-1","-1","1458","250","practice","poldrack-categorize","2","13397","0.0-1.0-0.0","go-nogo","true","0","","true","<div class = centerbox><div id = stim1></div></div>","-1","32","750","1000","practice","nogo","0","adv","","",""
"","-1","-1","1264","250","practice","poldrack-categorize","3","15919","0.0-1.0-1.0","go-nogo","true","0","","true","<div class = centerbox><div id = stim1></div></div>","-1","32","750","1000","practice","nogo","1","adv","","",""
"","482","32","1007","250","practice","poldrack-categorize","4","18180","0.0-1.0-2.0","go-nogo","true","0","","true","<div class = centerbox><div  id = stim2></div></div>","32","32","750","1000","practice","go","2","adv","","",""
"","986","32","1346","250","practice","poldrack-categorize","5","20786","0.0-1.0-3.0","go-nogo","true","0","","true","<div class = centerbox><div  id = stim2></div></div>","32","32","750","1000","practice","go","3","adv","","",""
"","-1","-1","1440","250","practice","poldrack-categorize","6","23485","0.0-1.0-4.0","go-nogo","true","0","","true","<div class = centerbox><div id = stim1></div></div>","-1","32","750","1000","practice","nogo","4","adv","","",""
"","788","32","1422","250","practice","poldrack-categorize","7","26166","0.0-1.0-5.0","go-nogo","true","0","","true","<div class = centerbox><div  id = stim2></div></div>","32","32","750","1000","practice","go","5","adv","","",""
"","-1","-1","1195","250","practice","poldrack-categorize","8","28617","0.0-1.0-6.0","go-nogo","true","0","","true","<div class = centerbox><div id = stim1></div></div>","-1","32","750","1000","practice","nogo","6","adv","","",""
"","454","32","1320","250","practice","poldrack-categorize","9","31193","0.0-1.0-7.0","go-nogo","true","0","","true","<div class = centerbox><div  id = stim2></div></div>","32","32","750","1000","practice","go","7","adv","","",""
"","-1","-1","1484","250","practice","poldrack-categorize","10","33934","0.0-1.0-8.0","go-nogo","true","0","","true","<div class = centerbox><div id = stim1></div></div>","-1","32","750","1000","practice","nogo","8","adv","","",""
"","513","32","1035","250","practice","poldrack-categorize","11","36224","0.0-1.0-9.0","go-nogo","true","0","","true","<div class = centerbox><div  id = stim2></div></div>","32","32","750","1000","practice","go","9","adv","","",""
"","","","","","reset_trial","call-function","12","36475","0.0-3.0","go-nogo","true","0","","","","","","","","","","","","","",""
"<div class = centerbox><p class = block-text>Practice is over, we will now begin the experiment. You will no longer get feedback about your responses.</p><p class = block-text>Remember, if you see the <font color=""blue"">blue</font> square you should <strong> respond by pressing the spacebar as quickly as possible</strong>. If you see the <font color=""orange"">orange</font> square you should <strong> not respond</strong>. Press <strong>enter</strong> to begin.</p></div>","4943","13","4943","1000","test_intro","poldrack-text","13","41420","0.0-4.0","go-nogo","true","0","","","","","","","","","","","","","",""
"","574","32","1428","0","test_block","poldrack-single-stim","14","43855","0.0-5.0-0.0","go-nogo","true","0","","true","<div class = centerbox><div  id = stim2></div></div>","32","32","750","","test","go","0","adv","","",""
"","511","32","1470","0","test_block","poldrack-single-stim","15","45398","0.0-5.0-1.0","go-nogo","true","0","","true","<div class = centerbox><div  id = stim2></div></div>","32","32","750","","test","go","1","adv","","",""
"","472","32","1485","0","test_block","poldrack-single-stim","16","46929","0.0-5.0-2.0","go-nogo","true","0","","true","<div class = centerbox><div  id = stim2></div></div>","32","32","750","","test","go","2","adv","","",""
"","412","32","1407","0","test_block","poldrack-single-stim","17","48371","0.0-5.0-3.0","go-nogo","true","0","","true","<div class = centerbox><div  id = stim2></div></div>","32","32","750","","test","go","3","adv","","",""
"","466","32","1034","0","test_block","poldrack-single-stim","18","49456","0.0-5.0-4.0","go-nogo","true","0","","true","<div class = centerbox><div  id = stim2></div></div>","32","32","750","","test","go","4","adv","","",""
"","492","32","1264","0","test_block","poldrack-single-stim","19","50767","0.0-5.0-5.0","go-nogo","true","0","","true","<div class = centerbox><div  id = stim2></div></div>","32","32","750","","test","go","5","adv","","",""
"","356","32","1325","0","test_block","poldrack-single-stim","20","52126","0.0-5.0-6.0","go-nogo","true","0","","true","<div class = centerbox><div  id = stim2></div></div>","32","32","750","","test","go","6","adv","","",""
"","352","32","1202","0","test_block","poldrack-single-stim","21","53368","0.0-5.0-7.0","go-nogo","true","0","","true","<div class = centerbox><div  id = stim2></div></div>","32","32","750","","test","go","7","adv","","",""
"","446","32","1359","0","test_block","poldrack-single-stim","22","54757","0.0-5.0-8.0","go-nogo","true","0","","true","<div class = centerbox><div  id = stim2></div></div>","32","32","750","","test","go","8","adv","","",""
"","306","32","1378","0","test_block","poldrack-single-stim","23","56165","0.0-5.0-9.0","go-nogo","true","0","","true","<div class = centerbox><div  id = stim2></div></div>","32","32","750","","test","go","9","adv","","",""
"","482","32","1240","0","test_block","poldrack-single-stim","24","57434","0.0-5.0-10.0","go-nogo","true","0","","true","<div class = centerbox><div  id = stim2></div></div>","32","32","750","","test","go","10","adv","","",""
"","476","32","1025","0","test_block","poldrack-single-stim","25","58500","0.0-5.0-11.0","go-nogo","true","0","","true","<div class = centerbox><div  id = stim2></div></div>","32","32","750","","test","go","11","adv","","",""
"","521","32","1235","0","test_block","poldrack-single-stim","26","59778","0.0-5.0-12.0","go-nogo","true","0","","true","<div class = centerbox><div  id = stim2></div></div>","32","32","750","","test","go","12","adv","","",""
"","482","32","1260","0","test_block","poldrack-single-stim","27","61074","0.0-5.0-13.0","go-nogo","true","0","","true","<div class = centerbox><div  id = stim2></div></div>","32","32","750","","test","go","13","adv","","",""
"","407","32","1020","0","test_block","poldrack-single-stim","28","62126","0.0-5.0-14.0","go-nogo","true","0","","true","<div class = centerbox><div  id = stim2></div></div>","32","32","750","","test","go","14","adv","","",""
"","411","32","1335","0","test_block","poldrack-single-stim","29","63497","0.0-5.0-15.0","go-nogo","true","0","","true","<div class = centerbox><div  id = stim2></div></div>","32","32","750","","test","go","15","adv","","",""
"","350","32","1092","0","test_block","poldrack-single-stim","30","64622","0.0-5.0-16.0","go-nogo","true","0","","true","<div class = centerbox><div  id = stim2></div></div>","32","32","750","","test","go","16","adv","","",""
"","362","32","1013","0","test_block","poldrack-single-stim","31","65663","0.0-5.0-17.0","go-nogo","true","0","","true","<div class = centerbox><div  id = stim2></div></div>","32","32","750","","test","go","17","adv","","",""
"","366","32","1287","0","test_block","poldrack-single-stim","32","66981","0.0-5.0-18.0","go-nogo","true","0","","true","<div class = centerbox><div  id = stim2></div></div>","32","32","750","","test","go","18","adv","","",""
"","295","32","1330","0","test_block","poldrack-single-stim","33","68343","0.0-5.0-19.0","go-nogo","true","0","","true","<div class = centerbox><div  id = stim2></div></div>","32","32","750","","test","go","19","adv","","",""
"","318","32","1220","0","test_block","poldrack-single-stim","34","69599","0.0-5.0-20.0","go-nogo","true","0","","true","<div class = centerbox><div  id = stim2></div></div>","32","32","750","","test","go","20","adv","","",""
"","563","32","1172","0","test_block","poldrack-single-stim","35","70797","0.0-5.0-21.0","go-nogo","true","0","","true","<div class = centerbox><div  id = stim2></div></div>","32","32","750","","test","go","21","adv","","",""
"","577","32","1298","0","test_block","poldrack-single-stim","36","72128","0.0-5.0-22.0","go-nogo","true","0","","true","<div class = centerbox><div  id = stim2></div></div>","32","32","750","","test","go","22","adv","","",""
"","-1","-1","1159","0","test_block","poldrack-single-stim","37","73319","0.0-5.0-23.0","go-nogo","true","0","","false","<div class = centerbox><div  id = stim2></div></div>","32","32","750","","test","go","23","adv","","",""
"","251","32","1334","0","test_block","poldrack-single-stim","38","74698","0.0-5.0-24.0","go-nogo","true","0","","true","<div class = centerbox><div  id = stim2></div></div>","32","32","750","","test","go","24","adv","","",""
"","-1","-1","1480","0","test_block","poldrack-single-stim","39","76213","0.0-5.0-25.0","go-nogo","true","0","","true","<div class = centerbox><div  id = stim1></div></div>","-1","32","750","","test","nogo","25","adv","","",""
"","-1","-1","1489","0","test_block","poldrack-single-stim","40","77731","0.0-5.0-26.0","go-nogo","true","0","","false","<div class = centerbox><div  id = stim2></div></div>","32","32","750","","test","go","26","adv","","",""
"","1202","32","1447","0","test_block","poldrack-single-stim","41","79207","0.0-5.0-27.0","go-nogo","true","0","","true","<div class = centerbox><div  id = stim2></div></div>","32","32","750","","test","go","27","adv","","",""
"","-1","-1","1087","0","test_block","poldrack-single-stim","42","80322","0.0-5.0-28.0","go-nogo","true","0","","true","<div class = centerbox><div  id = stim1></div></div>","-1","32","750","","test","nogo","28","adv","","",""
"","25","32","1219","0","test_block","poldrack-single-stim","43","81582","0.0-5.0-29.0","go-nogo","true","0","","true","<div class = centerbox><div  id = stim2></div></div>","32","32","750","","test","go","29","adv","","",""
"","-1","-1","1020","0","test_block","poldrack-single-stim","44","82673","0.0-5.0-30.0","go-nogo","true","0","","true","<div class = centerbox><div  id = stim1></div></div>","-1","32","750","","test","nogo","30","adv","","",""
"","372","32","1143","0","test_block","poldrack-single-stim","45","83848","0.0-5.0-31.0","go-nogo","true","0","","true","<div class = centerbox><div  id = stim2></div></div>","32","32","750","","test","go","31","adv","","",""
"","375","32","1447","0","test_block","poldrack-single-stim","46","85327","0.0-5.0-32.0","go-nogo","true","0","","false","<div class = centerbox><div  id = stim1></div></div>","-1","32","750","","test","nogo","32","adv","","",""
"","-1","-1","1145","0","test_block","poldrack-single-stim","47","86543","0.0-5.0-33.0","go-nogo","true","0","","true","<div class = centerbox><div  id = stim1></div></div>","-1","32","750","","test","nogo","33","adv","","",""
"","844","32","1118","0","test_block","poldrack-single-stim","48","87696","0.0-5.0-34.0","go-nogo","true","0","","true","<div class = centerbox><div  id = stim2></div></div>","32","32","750","","test","go","34","adv","","",""
"","592","32","1059","0","test_block","poldrack-single-stim","49","88789","0.0-5.0-35.0","go-nogo","true","0","","true","<div class = centerbox><div  id = stim2></div></div>","32","32","750","","test","go","35","adv","","",""
"","547","32","1336","0","test_block","poldrack-single-stim","50","90156","0.0-5.0-36.0","go-nogo","true","0","","true","<div class = centerbox><div  id = stim2></div></div>","32","32","750","","test","go","36","adv","","",""
"","264","32","1455","0","test_block","poldrack-single-stim","51","91650","0.0-5.0-37.0","go-nogo","true","0","","true","<div class = centerbox><div  id = stim2></div></div>","32","32","750","","test","go","37","adv","","",""
"","-1","-1","1326","0","test_block","poldrack-single-stim","52","93012","0.0-5.0-38.0","go-nogo","true","0","","false","<div class = centerbox><div  id = stim2></div></div>","32","32","750","","test","go","38","adv","","",""
"","237","32","1359","0","test_block","poldrack-single-stim","53","94410","0.0-5.0-39.0","go-nogo","true","0","","true","<div class = centerbox><div  id = stim2></div></div>","32","32","750","","test","go","39","adv","","",""
"","265","32","1112","0","test_block","poldrack-single-stim","54","95582","0.0-5.0-40.0","go-nogo","true","0","","true","<div class = centerbox><div  id = stim2></div></div>","32","32","750","","test","go","40","adv","","",""
"","271","32","1060","0","test_block","poldrack-single-stim","55","96682","0.0-5.0-41.0","go-nogo","true","0","","true","<div class = centerbox><div  id = stim2></div></div>","32","32","750","","test","go","41","adv","","",""
"","246","32","1127","0","test_block","poldrack-single-stim","56","97844","0.0-5.0-42.0","go-nogo","true","0","","true","<div class = centerbox><div  id = stim2></div></div>","32","32","750","","test","go","42","adv","","",""
"","185","32","1155","0","test_block","poldrack-single-stim","57","99039","0.0-5.0-43.0","go-nogo","true","0","","true","<div class = centerbox><div  id = stim2></div></div>","32","32","750","","test","go","43","adv","","",""
"","600","32","1471","0","test_block","poldrack-single-stim","58","100548","0.0-5.0-44.0","go-nogo","true","0","","true","<div class = centerbox><div  id = stim2></div></div>","32","32","750","","test","go","44","adv","","",""
"","236","32","1044","0","test_block","poldrack-single-stim","59","101630","0.0-5.0-45.0","go-nogo","true","0","","true","<div class = centerbox><div  id = stim2></div></div>","32","32","750","","test","go","45","adv","","",""
"","220","32","1167","0","test_block","poldrack-single-stim","60","102839","0.0-5.0-46.0","go-nogo","true","0","","true","<div class = centerbox><div  id = stim2></div></div>","32","32","750","","test","go","46","adv","","",""
"","428","32","1276","0","test_block","poldrack-single-stim","61","104149","0.0-5.0-47.0","go-nogo","true","0","","true","<div class = centerbox><div  id = stim2></div></div>","32","32","750","","test","go","47","adv","","",""
"","44","32","1296","0","test_block","poldrack-single-stim","62","105481","0.0-5.0-48.0","go-nogo","true","0","","true","<div class = centerbox><div  id = stim2></div></div>","32","32","750","","test","go","48","adv","","",""
"","270","32","1123","0","test_block","poldrack-single-stim","63","106647","0.0-5.0-49.0","go-nogo","true","0","","true","<div class = centerbox><div  id = stim2></div></div>","32","32","750","","test","go","49","adv","","",""
"","208","32","1054","0","test_block","poldrack-single-stim","64","107737","0.0-5.0-50.0","go-nogo","true","0","","true","<div class = centerbox><div  id = stim2></div></div>","32","32","750","","test","go","50","adv","","",""
"","763","32","1149","0","test_block","poldrack-single-stim","65","108921","0.0-5.0-51.0","go-nogo","true","0","","true","<div class = centerbox><div  id = stim2></div></div>","32","32","750","","test","go","51","adv","","",""
"","290","32","1045","0","test_block","poldrack-single-stim","66","110000","0.0-5.0-52.0","go-nogo","true","0","","true","<div class = centerbox><div  id = stim2></div></div>","32","32","750","","test","go","52","adv","","",""
"","194","32","1003","0","test_block","poldrack-single-stim","67","111043","0.0-5.0-53.0","go-nogo","true","0","","true","<div class = centerbox><div  id = stim2></div></div>","32","32","750","","test","go","53","adv","","",""
"","106","32","1028","0","test_block","poldrack-single-stim","68","112112","0.0-5.0-54.0","go-nogo","true","0","","true","<div class = centerbox><div  id = stim2></div></div>","32","32","750","","test","go","54","adv","","",""
"","137","32","1302","0","test_block","poldrack-single-stim","69","113445","0.0-5.0-55.0","go-nogo","true","0","","true","<div class = centerbox><div  id = stim2></div></div>","32","32","750","","test","go","55","adv","","",""
"","-1","-1","1207","0","test_block","poldrack-single-stim","70","114687","0.0-5.0-56.0","go-nogo","true","0","","false","<div class = centerbox><div  id = stim2></div></div>","32","32","750","","test","go","56","adv","","",""
"","285","32","1313","0","test_block","poldrack-single-stim","71","116037","0.0-5.0-57.0","go-nogo","true","0","","true","<div class = centerbox><div  id = stim2></div></div>","32","32","750","","test","go","57","adv","","",""
"","1","32","1311","0","test_block","poldrack-single-stim","72","117384","0.0-5.0-58.0","go-nogo","true","0","","true","<div class = centerbox><div  id = stim2></div></div>","32","32","750","","test","go","58","adv","","",""
"","-1","-1","1184","0","test_block","poldrack-single-stim","73","118638","0.0-5.0-59.0","go-nogo","true","0","","false","<div class = centerbox><div  id = stim2></div></div>","32","32","750","","test","go","59","adv","","",""
"","158","32","1164","0","test_block","poldrack-single-stim","74","119833","0.0-5.0-60.0","go-nogo","true","0","","true","<div class = centerbox><div  id = stim2></div></div>","32","32","750","","test","go","60","adv","","",""
"","454","32","1393","0","test_block","poldrack-single-stim","75","121257","0.0-5.0-61.0","go-nogo","true","0","","true","<div class = centerbox><div  id = stim2></div></div>","32","32","750","","test","go","61","adv","","",""
"","274","32","1050","0","test_block","poldrack-single-stim","76","122338","0.0-5.0-62.0","go-nogo","true","0","","true","<div class = centerbox><div  id = stim2></div></div>","32","32","750","","test","go","62","adv","","",""
"","187","32","1251","0","test_block","poldrack-single-stim","77","123621","0.0-5.0-63.0","go-nogo","true","0","","true","<div class = centerbox><div  id = stim2></div></div>","32","32","750","","test","go","63","adv","","",""
"","997","32","1479","0","test_block","poldrack-single-stim","78","125139","0.0-5.0-64.0","go-nogo","true","0","","true","<div class = centerbox><div  id = stim2></div></div>","32","32","750","","test","go","64","adv","","",""
"","672","32","1036","0","test_block","poldrack-single-stim","79","126218","0.0-5.0-65.0","go-nogo","true","0","","true","<div class = centerbox><div  id = stim2></div></div>","32","32","750","","test","go","65","adv","","",""
"","264","32","1214","0","test_block","poldrack-single-stim","80","127462","0.0-5.0-66.0","go-nogo","true","0","","true","<div class = centerbox><div  id = stim2></div></div>","32","32","750","","test","go","66","adv","","",""
"","248","32","1370","0","test_block","poldrack-single-stim","81","128865","0.0-5.0-67.0","go-nogo","true","0","","true","<div class = centerbox><div  id = stim2></div></div>","32","32","750","","test","go","67","adv","","",""
"","556","32","1336","0","test_block","poldrack-single-stim","82","130238","0.0-5.0-68.0","go-nogo","true","0","","true","<div class = centerbox><div  id = stim2></div></div>","32","32","750","","test","go","68","adv","","",""
"","193","32","1491","0","test_block","poldrack-single-stim","83","131755","0.0-5.0-69.0","go-nogo","true","0","","true","<div class = centerbox><div  id = stim2></div></div>","32","32","750","","test","go","69","adv","","",""
"","871","32","1116","0","test_block","poldrack-single-stim","84","132906","0.0-5.0-70.0","go-nogo","true","0","","true","<div class = centerbox><div  id = stim2></div></div>","32","32","750","","test","go","70","adv","","",""
"","-1","-1","1259","0","test_block","poldrack-single-stim","85","134197","0.0-5.0-71.0","go-nogo","true","0","","false","<div class = centerbox><div  id = stim2></div></div>","32","32","750","","test","go","71","adv","","",""
"","320","32","1361","0","test_block","poldrack-single-stim","86","135593","0.0-5.0-72.0","go-nogo","true","0","","true","<div class = centerbox><div  id = stim2></div></div>","32","32","750","","test","go","72","adv","","",""
"","122","32","1356","0","test_block","poldrack-single-stim","87","136978","0.0-5.0-73.0","go-nogo","true","0","","true","<div class = centerbox><div  id = stim2></div></div>","32","32","750","","test","go","73","adv","","",""
"","-1","-1","1437","0","test_block","poldrack-single-stim","88","138449","0.0-5.0-74.0","go-nogo","true","0","","false","<div class = centerbox><div  id = stim2></div></div>","32","32","750","","test","go","74","adv","","",""
"","-1","-1","1345","0","test_block","poldrack-single-stim","89","139826","0.0-5.0-75.0","go-nogo","true","0","","false","<div class = centerbox><div  id = stim2></div></div>","32","32","750","","test","go","75","adv","","",""
"","-1","-1","1195","0","test_block","poldrack-single-stim","90","141050","0.0-5.0-76.0","go-nogo","true","0","","false","<div class = centerbox><div  id = stim2></div></div>","32","32","750","","test","go","76","adv","","",""
"","845","32","1391","0","test_block","poldrack-single-stim","91","142477","0.0-5.0-77.0","go-nogo","true","0","","true","<div class = centerbox><div  id = stim2></div></div>","32","32","750","","test","go","77","adv","","",""
"","-1","-1","1392","0","test_block","poldrack-single-stim","92","143902","0.0-5.0-78.0","go-nogo","true","0","","true","<div class = centerbox><div  id = stim1></div></div>","-1","32","750","","test","nogo","78","adv","","",""
"","388","32","1495","0","test_block","poldrack-single-stim","93","145430","0.0-5.0-79.0","go-nogo","true","0","","true","<div class = centerbox><div  id = stim2></div></div>","32","32","750","","test","go","79","adv","","",""
"","303","32","1235","0","test_block","poldrack-single-stim","94","146718","0.0-5.0-80.0","go-nogo","true","0","","false","<div class = centerbox><div  id = stim1></div></div>","-1","32","750","","test","nogo","80","adv","","",""
"","-1","-1","1463","0","test_block","poldrack-single-stim","95","148214","0.0-5.0-81.0","go-nogo","true","0","","true","<div class = centerbox><div  id = stim1></div></div>","-1","32","750","","test","nogo","81","adv","","",""
"","454","32","1393","0","test_block","poldrack-single-stim","96","149629","0.0-5.0-82.0","go-nogo","true","0","","true","<div class = centerbox><div  id = stim2></div></div>","32","32","750","","test","go","82","adv","","",""
"","734","32","1162","0","test_block","poldrack-single-stim","97","150821","0.0-5.0-83.0","go-nogo","true","0","","true","<div class = centerbox><div  id = stim2></div></div>","32","32","750","","test","go","83","adv","","",""
"","698","32","1379","0","test_block","poldrack-single-stim","98","152229","0.0-5.0-84.0","go-nogo","true","0","","true","<div class = centerbox><div  id = stim2></div></div>","32","32","750","","test","go","84","adv","","",""
"","351","32","1397","0","test_block","poldrack-single-stim","99","153650","0.0-5.0-85.0","go-nogo","true","0","","true","<div class = centerbox><div  id = stim2></div></div>","32","32","750","","test","go","85","adv","","",""
"","-1","-1","1399","0","test_block","poldrack-single-stim","100","155104","0.0-5.0-86.0","go-nogo","true","0","","false","<div class = centerbox><div  id = stim2></div></div>","32","32","750","","test","go","86","adv","","",""
"","53","32","1006","0","test_block","poldrack-single-stim","101","156131","0.0-5.0-87.0","go-nogo","true","0","","true","<div class = centerbox><div  id = stim2></div></div>","32","32","750","","test","go","87","adv","","",""
"","359","32","1024","0","test_block","poldrack-single-stim","102","157186","0.0-5.0-88.0","go-nogo","true","0","","true","<div class = centerbox><div  id = stim2></div></div>","32","32","750","","test","go","88","adv","","",""
"","503","32","1029","0","test_block","poldrack-single-stim","103","158232","0.0-5.0-89.0","go-nogo","true","0","","true","<div class = centerbox><div  id = stim2></div></div>","32","32","750","","test","go","89","adv","","",""
"","-1","-1","1455","0","test_block","poldrack-single-stim","104","159706","0.0-5.0-90.0","go-nogo","true","0","","false","<div class = centerbox><div  id = stim2></div></div>","32","32","750","","test","go","90","adv","","",""
"","338","32","1462","0","test_block","poldrack-single-stim","105","161197","0.0-5.0-91.0","go-nogo","true","0","","true","<div class = centerbox><div  id = stim2></div></div>","32","32","750","","test","go","91","adv","","",""
"","321","32","1182","0","test_block","poldrack-single-stim","106","162403","0.0-5.0-92.0","go-nogo","true","0","","true","<div class = centerbox><div  id = stim2></div></div>","32","32","750","","test","go","92","adv","","",""
"","279","32","1403","0","test_block","poldrack-single-stim","107","163860","0.0-5.0-93.0","go-nogo","true","0","","true","<div class = centerbox><div  id = stim2></div></div>","32","32","750","","test","go","93","adv","","",""
"","256","32","1253","0","test_block","poldrack-single-stim","108","165142","0.0-5.0-94.0","go-nogo","true","0","","true","<div class = centerbox><div  id = stim2></div></div>","32","32","750","","test","go","94","adv","","",""
"","316","32","1189","0","test_block","poldrack-single-stim","109","166375","0.0-5.0-95.0","go-nogo","true","0","","true","<div class = centerbox><div  id = stim2></div></div>","32","32","750","","test","go","95","adv","","",""
"","336","32","1213","0","test_block","poldrack-single-stim","110","167655","0.0-5.0-96.0","go-nogo","true","0","","true","<div class = centerbox><div  id = stim2></div></div>","32","32","750","","test","go","96","adv","","",""
"","219","32","1470","0","test_block","poldrack-single-stim","111","169152","0.0-5.0-97.0","go-nogo","true","0","","true","<div class = centerbox><div  id = stim2></div></div>","32","32","750","","test","go","97","adv","","",""
"","0","32","1092","0","test_block","poldrack-single-stim","112","170273","0.0-5.0-98.0","go-nogo","true","0","","true","<div class = centerbox><div  id = stim2></div></div>","32","32","750","","test","go","98","adv","","",""
"","265","32","1075","0","test_block","poldrack-single-stim","113","171382","0.0-5.0-99.0","go-nogo","true","0","","true","<div class = centerbox><div  id = stim2></div></div>","32","32","750","","test","go","99","adv","","",""
"","148","32","1227","0","test_block","poldrack-single-stim","114","172669","0.0-5.0-100.0","go-nogo","true","0","","true","<div class = centerbox><div  id = stim2></div></div>","32","32","750","","test","go","100","adv","","",""
"","1226","32","1326","0","test_block","poldrack-single-stim","115","174022","0.0-5.0-101.0","go-nogo","true","0","","true","<div class = centerbox><div  id = stim2></div></div>","32","32","750","","test","go","101","adv","","",""
"","-1","-1","1076","0","test_block","poldrack-single-stim","116","175127","0.0-5.0-102.0","go-nogo","true","0","","false","<div class = centerbox><div  id = stim2></div></div>","32","32","750","","test","go","102","adv","","",""
"","216","32","1391","0","test_block","poldrack-single-stim","117","176549","0.0-5.0-103.0","go-nogo","true","0","","true","<div class = centerbox><div  id = stim2></div></div>","32","32","750","","test","go","103","adv","","",""
"","-1","-1","1479","0","test_block","poldrack-single-stim","118","178055","0.0-5.0-104.0","go-nogo","true","0","","false","<div class = centerbox><div  id = stim2></div></div>","32","32","750","","test","go","104","adv","","",""
"","1","32","1045","0","test_block","poldrack-single-stim","119","179127","0.0-5.0-105.0","go-nogo","true","0","","true","<div class = centerbox><div  id = stim2></div></div>","32","32","750","","test","go","105","adv","","",""
"","171","32","1052","0","test_block","poldrack-single-stim","120","180205","0.0-5.0-106.0","go-nogo","true","0","","true","<div class = centerbox><div  id = stim2></div></div>","32","32","750","","test","go","106","adv","","",""
"","177","32","1334","0","test_block","poldrack-single-stim","121","181561","0.0-5.0-107.0","go-nogo","true","0","","true","<div class = centerbox><div  id = stim2></div></div>","32","32","750","","test","go","107","adv","","",""
"","1335","32","1382","0","test_block","poldrack-single-stim","122","182975","0.0-5.0-108.0","go-nogo","true","0","","true","<div class = centerbox><div  id = stim2></div></div>","32","32","750","","test","go","108","adv","","",""
"","-1","-1","1216","0","test_block","poldrack-single-stim","123","184220","0.0-5.0-109.0","go-nogo","true","0","","false","<div class = centerbox><div  id = stim2></div></div>","32","32","750","","test","go","109","adv","","",""
"","817","32","1013","0","test_block","poldrack-single-stim","124","185254","0.0-5.0-110.0","go-nogo","true","0","","true","<div class = centerbox><div  id = stim2></div></div>","32","32","750","","test","go","110","adv","","",""
"","816","32","1109","0","test_block","poldrack-single-stim","125","186390","0.0-5.0-111.0","go-nogo","true","0","","true","<div class = centerbox><div  id = stim2></div></div>","32","32","750","","test","go","111","adv","","",""
"","310","32","1268","0","test_block","poldrack-single-stim","126","187683","0.0-5.0-112.0","go-nogo","true","0","","true","<div class = centerbox><div  id = stim2></div></div>","32","32","750","","test","go","112","adv","","",""
"","21","32","1246","0","test_block","poldrack-single-stim","127","188958","0.0-5.0-113.0","go-nogo","true","0","","true","<div class = centerbox><div  id = stim2></div></div>","32","32","750","","test","go","113","adv","","",""
"","1293","32","1354","0","test_block","poldrack-single-stim","128","190338","0.0-5.0-114.0","go-nogo","true","0","","true","<div class = centerbox><div  id = stim2></div></div>","32","32","750","","test","go","114","adv","","",""
"","-1","-1","1191","0","test_block","poldrack-single-stim","129","191587","0.0-5.0-115.0","go-nogo","true","0","","false","<div class = centerbox><div  id = stim2></div></div>","32","32","750","","test","go","115","adv","","",""
"","28","32","1413","0","test_block","poldrack-single-stim","130","193027","0.0-5.0-116.0","go-nogo","true","0","","true","<div class = centerbox><div  id = stim2></div></div>","32","32","750","","test","go","116","adv","","",""
"","-1","-1","1155","0","test_block","poldrack-single-stim","131","194205","0.0-5.0-117.0","go-nogo","true","0","","false","<div class = centerbox><div  id = stim2></div></div>","32","32","750","","test","go","117","adv","","",""
"","482","32","1246","0","test_block","poldrack-single-stim","132","195474","0.0-5.0-118.0","go-nogo","true","0","","true","<div class = centerbox><div  id = stim2></div></div>","32","32","750","","test","go","118","adv","","",""
"","395","32","1344","0","test_block","poldrack-single-stim","133","196864","0.0-5.0-119.0","go-nogo","true","0","","true","<div class = centerbox><div  id = stim2></div></div>","32","32","750","","test","go","119","adv","","",""
"","110","32","1411","0","test_block","poldrack-single-stim","134","198298","0.0-5.0-120.0","go-nogo","true","0","","true","<div class = centerbox><div  id = stim2></div></div>","32","32","750","","test","go","120","adv","","",""
"","-1","-1","1246","0","test_block","poldrack-single-stim","135","199591","0.0-5.0-121.0","go-nogo","true","0","","false","<div class = centerbox><div  id = stim2></div></div>","32","32","750","","test","go","121","adv","","",""
"","-1","-1","1244","0","test_block","poldrack-single-stim","136","200865","0.0-5.0-122.0","go-nogo","true","0","","false","<div class = centerbox><div  id = stim2></div></div>","32","32","750","","test","go","122","adv","","",""
"","-1","-1","1158","0","test_block","poldrack-single-stim","137","202048","0.0-5.0-123.0","go-nogo","true","0","","false","<div class = centerbox><div  id = stim2></div></div>","32","32","750","","test","go","123","adv","","",""
"","-1","-1","1399","0","test_block","poldrack-single-stim","138","203469","0.0-5.0-124.0","go-nogo","true","0","","false","<div class = centerbox><div  id = stim2></div></div>","32","32","750","","test","go","124","adv","","",""
"","-1","-1","1455","0","test_block","poldrack-single-stim","139","204958","0.0-5.0-125.0","go-nogo","true","0","","false","<div class = centerbox><div  id = stim2></div></div>","32","32","750","","test","go","125","adv","","",""
"","-1","-1","1498","0","test_block","poldrack-single-stim","140","206507","0.0-5.0-126.0","go-nogo","true","0","","false","<div class = centerbox><div  id = stim2></div></div>","32","32","750","","test","go","126","adv","","",""
"","-1","-1","1161","0","test_block","poldrack-single-stim","141","207700","0.0-5.0-127.0","go-nogo","true","0","","false","<div class = centerbox><div  id = stim2></div></div>","32","32","750","","test","go","127","adv","","",""
"","-1","-1","1436","0","test_block","poldrack-single-stim","142","209177","0.0-5.0-128.0","go-nogo","true","0","","false","<div class = centerbox><div  id = stim2></div></div>","32","32","750","","test","go","128","adv","","",""
"","-1","-1","1321","0","test_block","poldrack-single-stim","143","210519","0.0-5.0-129.0","go-nogo","true","0","","false","<div class = centerbox><div  id = stim2></div></div>","32","32","750","","test","go","129","adv","","",""
"","-1","-1","1469","0","test_block","poldrack-single-stim","144","212053","0.0-5.0-130.0","go-nogo","true","0","","false","<div class = centerbox><div  id = stim2></div></div>","32","32","750","","test","go","130","adv","","",""
"","-1","-1","1300","0","test_block","poldrack-single-stim","145","213393","0.0-5.0-131.0","go-nogo","true","0","","false","<div class = centerbox><div  id = stim2></div></div>","32","32","750","","test","go","131","adv","","",""
"","-1","-1","1167","0","test_block","poldrack-single-stim","146","214613","0.0-5.0-132.0","go-nogo","true","0","","false","<div class = centerbox><div  id = stim2></div></div>","32","32","750","","test","go","132","adv","","",""
"","-1","-1","1071","0","test_block","poldrack-single-stim","147","215708","0.0-5.0-133.0","go-nogo","true","0","","false","<div class = centerbox><div  id = stim2></div></div>","32","32","750","","test","go","133","adv","","",""
"","-1","-1","1231","0","test_block","poldrack-single-stim","148","216982","0.0-5.0-134.0","go-nogo","true","0","","false","<div class = centerbox><div  id = stim2></div></div>","32","32","750","","test","go","134","adv","","",""
"","-1","-1","1234","0","test_block","poldrack-single-stim","149","218241","0.0-5.0-135.0","go-nogo","true","0","","false","<div class = centerbox><div  id = stim2></div></div>","32","32","750","","test","go","135","adv","","",""
"","-1","-1","1485","0","test_block","poldrack-single-stim","150","219750","0.0-5.0-136.0","go-nogo","true","0","","false","<div class = centerbox><div  id = stim2></div></div>","32","32","750","","test","go","136","adv","","",""
"","-1","-1","1416","0","test_block","poldrack-single-stim","151","221184","0.0-5.0-137.0","go-nogo","true","0","","false","<div class = centerbox><div  id = stim2></div></div>","32","32","750","","test","go","137","adv","","",""
"","-1","-1","1451","0","test_block","poldrack-single-stim","152","222652","0.0-5.0-138.0","go-nogo","true","0","","false","<div class = centerbox><div  id = stim2></div></div>","32","32","750","","test","go","138","adv","","",""
"","-1","-1","1350","0","test_block","poldrack-single-stim","153","224030","0.0-5.0-139.0","go-nogo","true","0","","false","<div class = centerbox><div  id = stim2></div></div>","32","32","750","","test","go","139","adv","","",""
"","-1","-1","1188","0","test_block","poldrack-single-stim","154","225244","0.0-5.0-140.0","go-nogo","true","0","","false","<div class = centerbox><div  id = stim2></div></div>","32","32","750","","test","go","140","adv","","",""
"","-1","-1","1004","0","test_block","poldrack-single-stim","155","226271","0.0-5.0-141.0","go-nogo","true","0","","false","<div class = centerbox><div  id = stim2></div></div>","32","32","750","","test","go","141","adv","","",""
"","-1","-1","1246","0","test_block","poldrack-single-stim","156","227548","0.0-5.0-142.0","go-nogo","true","0","","false","<div class = centerbox><div  id = stim2></div></div>","32","32","750","","test","go","142","adv","","",""
"","-1","-1","1498","0","test_block","poldrack-single-stim","157","229091","0.0-5.0-143.0","go-nogo","true","0","","false","<div class = centerbox><div  id = stim2></div></div>","32","32","750","","test","go","143","adv","","",""
"","-1","-1","1457","0","test_block","poldrack-single-stim","158","230576","0.0-5.0-144.0","go-nogo","true","0","","false","<div class = centerbox><div  id = stim2></div></div>","32","32","750","","test","go","144","adv","","",""
"","-1","-1","1326","0","test_block","poldrack-single-stim","159","231940","0.0-5.0-145.0","go-nogo","true","0","","false","<div class = centerbox><div  id = stim2></div></div>","32","32","750","","test","go","145","adv","","",""
"","-1","-1","1351","0","test_block","poldrack-single-stim","160","233319","0.0-5.0-146.0","go-nogo","true","0","","false","<div class = centerbox><div  id = stim2></div></div>","32","32","750","","test","go","146","adv","","",""
"","-1","-1","1061","0","test_block","poldrack-single-stim","161","234402","0.0-5.0-147.0","go-nogo","true","0","","false","<div class = centerbox><div  id = stim2></div></div>","32","32","750","","test","go","147","adv","","",""
"","-1","-1","1361","0","test_block","poldrack-single-stim","162","235813","0.0-5.0-148.0","go-nogo","true","0","","false","<div class = centerbox><div  id = stim2></div></div>","32","32","750","","test","go","148","adv","","",""
"","-1","-1","1007","0","test_block","poldrack-single-stim","163","236845","0.0-5.0-149.0","go-nogo","true","0","","false","<div class = centerbox><div  id = stim2></div></div>","32","32","750","","test","go","149","adv","","",""
"","-1","-1","1140","0","test_block","poldrack-single-stim","164","238017","0.0-5.0-150.0","go-nogo","true","0","","false","<div class = centerbox><div  id = stim2></div></div>","32","32","750","","test","go","150","adv","","",""
"","-1","-1","1474","0","test_block","poldrack-single-stim","165","239543","0.0-5.0-151.0","go-nogo","true","0","","false","<div class = centerbox><div  id = stim2></div></div>","32","32","750","","test","go","151","adv","","",""
"","-1","-1","1487","0","test_block","poldrack-single-stim","166","241083","0.0-5.0-152.0","go-nogo","true","0","","false","<div class = centerbox><div  id = stim2></div></div>","32","32","750","","test","go","152","adv","","",""
"","87","32","1406","0","test_block","poldrack-single-stim","167","242523","0.0-5.0-153.0","go-nogo","true","0","","true","<div class = centerbox><div  id = stim2></div></div>","32","32","750","","test","go","153","adv","","",""
"","244","32","1298","0","test_block","poldrack-single-stim","168","243867","0.0-5.0-154.0","go-nogo","true","0","","false","<div class = centerbox><div  id = stim1></div></div>","-1","32","750","","test","nogo","154","adv","","",""
"","-1","-1","1392","0","test_block","poldrack-single-stim","169","245280","0.0-5.0-155.0","go-nogo","true","0","","true","<div class = centerbox><div  id = stim1></div></div>","-1","32","750","","test","nogo","155","adv","","",""
"","311","32","1025","0","test_block","poldrack-single-stim","170","246329","0.0-5.0-156.0","go-nogo","true","0","","true","<div class = centerbox><div  id = stim2></div></div>","32","32","750","","test","go","156","adv","","",""
"","309","32","1349","0","test_block","poldrack-single-stim","171","247701","0.0-5.0-157.0","go-nogo","true","0","","true","<div class = centerbox><div  id = stim2></div></div>","32","32","750","","test","go","157","adv","","",""
"","228","32","1462","0","test_block","poldrack-single-stim","172","249187","0.0-5.0-158.0","go-nogo","true","0","","true","<div class = centerbox><div  id = stim2></div></div>","32","32","750","","test","go","158","adv","","",""
"","280","32","1131","0","test_block","poldrack-single-stim","173","250337","0.0-5.0-159.0","go-nogo","true","0","","true","<div class = centerbox><div  id = stim2></div></div>","32","32","750","","test","go","159","adv","","",""
"","282","32","1405","0","test_block","poldrack-single-stim","174","251766","0.0-5.0-160.0","go-nogo","true","0","","true","<div class = centerbox><div  id = stim2></div></div>","32","32","750","","test","go","160","adv","","",""
"","268","32","1115","0","test_block","poldrack-single-stim","175","252905","0.0-5.0-161.0","go-nogo","true","0","","true","<div class = centerbox><div  id = stim2></div></div>","32","32","750","","test","go","161","adv","","",""
"","296","32","1319","0","test_block","poldrack-single-stim","176","254253","0.0-5.0-162.0","go-nogo","true","0","","true","<div class = centerbox><div  id = stim2></div></div>","32","32","750","","test","go","162","adv","","",""
"","255","32","1159","0","test_block","poldrack-single-stim","177","255433","0.0-5.0-163.0","go-nogo","true","0","","true","<div class = centerbox><div  id = stim2></div></div>","32","32","750","","test","go","163","adv","","",""
"","266","32","1010","0","test_block","poldrack-single-stim","178","256499","0.0-5.0-164.0","go-nogo","true","0","","true","<div class = centerbox><div  id = stim2></div></div>","32","32","750","","test","go","164","adv","","",""
"","272","32","1027","0","test_block","poldrack-single-stim","179","257550","0.0-5.0-165.0","go-nogo","true","0","","true","<div class = centerbox><div  id = stim2></div></div>","32","32","750","","test","go","165","adv","","",""
"","301","32","1035","0","test_block","poldrack-single-stim","180","258607","0.0-5.0-166.0","go-nogo","true","0","","true","<div class = centerbox><div  id = stim2></div></div>","32","32","750","","test","go","166","adv","","",""
"","294","32","1175","0","test_block","poldrack-single-stim","181","259832","0.0-5.0-167.0","go-nogo","true","0","","true","<div class = centerbox><div  id = stim2></div></div>","32","32","750","","test","go","167","adv","","",""
"","232","32","1370","0","test_block","poldrack-single-stim","182","261224","0.0-5.0-168.0","go-nogo","true","0","","true","<div class = centerbox><div  id = stim2></div></div>","32","32","750","","test","go","168","adv","","",""
"","256","32","1453","0","test_block","poldrack-single-stim","183","262692","0.0-5.0-169.0","go-nogo","true","0","","true","<div class = centerbox><div  id = stim2></div></div>","32","32","750","","test","go","169","adv","","",""
"","268","32","1345","0","test_block","poldrack-single-stim","184","264063","0.0-5.0-170.0","go-nogo","true","0","","true","<div class = centerbox><div  id = stim2></div></div>","32","32","750","","test","go","170","adv","","",""
"","264","32","1307","0","test_block","poldrack-single-stim","185","265406","0.0-5.0-171.0","go-nogo","true","0","","true","<div class = centerbox><div  id = stim2></div></div>","32","32","750","","test","go","171","adv","","",""
"","262","32","1466","0","test_block","poldrack-single-stim","186","266903","0.0-5.0-172.0","go-nogo","true","0","","true","<div class = centerbox><div  id = stim2></div></div>","32","32","750","","test","go","172","adv","","",""
"","237","32","1481","0","test_block","poldrack-single-stim","187","268405","0.0-5.0-173.0","go-nogo","true","0","","true","<div class = centerbox><div  id = stim2></div></div>","32","32","750","","test","go","173","adv","","",""
"","312","32","1329","0","test_block","poldrack-single-stim","188","269760","0.0-5.0-174.0","go-nogo","true","0","","true","<div class = centerbox><div  id = stim2></div></div>","32","32","750","","test","go","174","adv","","",""
"","252","32","1402","0","test_block","poldrack-single-stim","189","271184","0.0-5.0-175.0","go-nogo","true","0","","true","<div class = centerbox><div  id = stim2></div></div>","32","32","750","","test","go","175","adv","","",""
"","221","32","1497","0","test_block","poldrack-single-stim","190","272702","0.0-5.0-176.0","go-nogo","true","0","","true","<div class = centerbox><div  id = stim2></div></div>","32","32","750","","test","go","176","adv","","",""
"","555","32","1432","0","test_block","poldrack-single-stim","191","274189","0.0-5.0-177.0","go-nogo","true","0","","true","<div class = centerbox><div  id = stim2></div></div>","32","32","750","","test","go","177","adv","","",""
"","304","32","1127","0","test_block","poldrack-single-stim","192","275337","0.0-5.0-178.0","go-nogo","true","0","","true","<div class = centerbox><div  id = stim2></div></div>","32","32","750","","test","go","178","adv","","",""
"","240","32","1005","0","test_block","poldrack-single-stim","193","276360","0.0-5.0-179.0","go-nogo","true","0","","true","<div class = centerbox><div  id = stim2></div></div>","32","32","750","","test","go","179","adv","","",""
"","255","32","1050","0","test_block","poldrack-single-stim","194","277464","0.0-5.0-180.0","go-nogo","true","0","","true","<div class = centerbox><div  id = stim2></div></div>","32","32","750","","test","go","180","adv","","",""
"","236","32","1050","0","test_block","poldrack-single-stim","195","278535","0.0-5.0-181.0","go-nogo","true","0","","true","<div class = centerbox><div  id = stim2></div></div>","32","32","750","","test","go","181","adv","","",""
"","198","32","1139","0","test_block","poldrack-single-stim","196","279696","0.0-5.0-182.0","go-nogo","true","0","","true","<div class = centerbox><div  id = stim2></div></div>","32","32","750","","test","go","182","adv","","",""
"","283","32","1492","0","test_block","poldrack-single-stim","197","281209","0.0-5.0-183.0","go-nogo","true","0","","true","<div class = centerbox><div  id = stim2></div></div>","32","32","750","","test","go","183","adv","","",""
"","0","32","1011","0","test_block","poldrack-single-stim","198","282242","0.0-5.0-184.0","go-nogo","true","0","","true","<div class = centerbox><div  id = stim2></div></div>","32","32","750","","test","go","184","adv","","",""
"","294","32","1137","0","test_block","poldrack-single-stim","199","283396","0.0-5.0-185.0","go-nogo","true","0","","true","<div class = centerbox><div  id = stim2></div></div>","32","32","750","","test","go","185","adv","","",""
"","246","32","1291","0","test_block","poldrack-single-stim","200","284731","0.0-5.0-186.0","go-nogo","true","0","","true","<div class = centerbox><div  id = stim2></div></div>","32","32","750","","test","go","186","adv","","",""
"","300","32","1473","0","test_block","poldrack-single-stim","201","286221","0.0-5.0-187.0","go-nogo","true","0","","true","<div class = centerbox><div  id = stim2></div></div>","32","32","750","","test","go","187","adv","","",""
"","513","32","1011","0","test_block","poldrack-single-stim","202","287249","0.0-5.0-188.0","go-nogo","true","0","","true","<div class = centerbox><div  id = stim2></div></div>","32","32","750","","test","go","188","adv","","",""
"","406","32","1401","0","test_block","poldrack-single-stim","203","288667","0.0-5.0-189.0","go-nogo","true","0","","true","<div class = centerbox><div  id = stim2></div></div>","32","32","750","","test","go","189","adv","","",""
"","309","32","1426","0","test_block","poldrack-single-stim","204","290117","0.0-5.0-190.0","go-nogo","true","0","","true","<div class = centerbox><div  id = stim2></div></div>","32","32","750","","test","go","190","adv","","",""
"","587","32","1464","0","test_block","poldrack-single-stim","205","291603","0.0-5.0-191.0","go-nogo","true","0","","true","<div class = centerbox><div  id = stim2></div></div>","32","32","750","","test","go","191","adv","","",""
"","322","32","1417","0","test_block","poldrack-single-stim","206","293049","0.0-5.0-192.0","go-nogo","true","0","","true","<div class = centerbox><div  id = stim2></div></div>","32","32","750","","test","go","192","adv","","",""
"","516","32","1177","0","test_block","poldrack-single-stim","207","294248","0.0-5.0-193.0","go-nogo","true","0","","true","<div class = centerbox><div  id = stim2></div></div>","32","32","750","","test","go","193","adv","","",""
"","233","32","1369","0","test_block","poldrack-single-stim","208","295636","0.0-5.0-194.0","go-nogo","true","0","","true","<div class = centerbox><div  id = stim2></div></div>","32","32","750","","test","go","194","adv","","",""
"","476","32","1049","0","test_block","poldrack-single-stim","209","296712","0.0-5.0-195.0","go-nogo","true","0","","true","<div class = centerbox><div  id = stim2></div></div>","32","32","750","","test","go","195","adv","","",""
"","258","32","1367","0","test_block","poldrack-single-stim","210","298105","0.0-5.0-196.0","go-nogo","true","0","","true","<div class = centerbox><div  id = stim2></div></div>","32","32","750","","test","go","196","adv","","",""
"","136","32","1377","0","test_block","poldrack-single-stim","211","299504","0.0-5.0-197.0","go-nogo","true","0","","true","<div class = centerbox><div  id = stim2></div></div>","32","32","750","","test","go","197","adv","","",""
"","121","32","1306","0","test_block","poldrack-single-stim","212","300851","0.0-5.0-198.0","go-nogo","true","0","","true","<div class = centerbox><div  id = stim2></div></div>","32","32","750","","test","go","198","adv","","",""
"","168","32","1070","0","test_block","poldrack-single-stim","213","301954","0.0-5.0-199.0","go-nogo","true","0","","true","<div class = centerbox><div  id = stim2></div></div>","32","32","750","","test","go","199","adv","","",""
"","247","32","1421","0","test_block","poldrack-single-stim","214","303397","0.0-5.0-200.0","go-nogo","true","0","","true","<div class = centerbox><div  id = stim2></div></div>","32","32","750","","test","go","200","adv","","",""
"","427","32","1158","0","test_block","poldrack-single-stim","215","304580","0.0-5.0-201.0","go-nogo","true","0","","true","<div class = centerbox><div  id = stim2></div></div>","32","32","750","","test","go","201","adv","","",""
"","250","32","1141","0","test_block","poldrack-single-stim","216","305779","0.0-5.0-202.0","go-nogo","true","0","","true","<div class = centerbox><div  id = stim2></div></div>","32","32","750","","test","go","202","adv","","",""
"","216","32","1107","0","test_block","poldrack-single-stim","217","306905","0.0-5.0-203.0","go-nogo","true","0","","true","<div class = centerbox><div  id = stim2></div></div>","32","32","750","","test","go","203","adv","","",""
"","200","32","1038","0","test_block","poldrack-single-stim","218","307964","0.0-5.0-204.0","go-nogo","true","0","","true","<div class = centerbox><div  id = stim2></div></div>","32","32","750","","test","go","204","adv","","",""
"","234","32","1377","0","test_block","poldrack-single-stim","219","309369","0.0-5.0-205.0","go-nogo","true","0","","true","<div class = centerbox><div  id = stim2></div></div>","32","32","750","","test","go","205","adv","","",""
"","13","32","1447","0","test_block","poldrack-single-stim","220","310855","0.0-5.0-206.0","go-nogo","true","0","","true","<div class = centerbox><div  id = stim2></div></div>","32","32","750","","test","go","206","adv","","",""
"","261","32","1185","0","test_block","poldrack-single-stim","221","312064","0.0-5.0-207.0","go-nogo","true","0","","true","<div class = centerbox><div  id = stim2></div></div>","32","32","750","","test","go","207","adv","","",""
"","219","32","1386","0","test_block","poldrack-single-stim","222","313471","0.0-5.0-208.0","go-nogo","true","0","","true","<div class = centerbox><div  id = stim2></div></div>","32","32","750","","test","go","208","adv","","",""
"","414","32","1285","0","test_block","poldrack-single-stim","223","314807","0.0-5.0-209.0","go-nogo","true","0","","true","<div class = centerbox><div  id = stim2></div></div>","32","32","750","","test","go","209","adv","","",""
"","0","32","1071","0","test_block","poldrack-single-stim","224","315900","0.0-5.0-210.0","go-nogo","true","0","","true","<div class = centerbox><div  id = stim2></div></div>","32","32","750","","test","go","210","adv","","",""
"","240","32","1225","0","test_block","poldrack-single-stim","225","317152","0.0-5.0-211.0","go-nogo","true","0","","true","<div class = centerbox><div  id = stim2></div></div>","32","32","750","","test","go","211","adv","","",""
"","113","32","1150","0","test_block","poldrack-single-stim","226","318326","0.0-5.0-212.0","go-nogo","true","0","","true","<div class = centerbox><div  id = stim2></div></div>","32","32","750","","test","go","212","adv","","",""
"","352","32","1286","0","test_block","poldrack-single-stim","227","319633","0.0-5.0-213.0","go-nogo","true","0","","true","<div class = centerbox><div  id = stim2></div></div>","32","32","750","","test","go","213","adv","","",""
"","287","32","1225","0","test_block","poldrack-single-stim","228","320889","0.0-5.0-214.0","go-nogo","true","0","","true","<div class = centerbox><div  id = stim2></div></div>","32","32","750","","test","go","214","adv","","",""
"","220","32","1483","0","test_block","poldrack-single-stim","229","322393","0.0-5.0-215.0","go-nogo","true","0","","true","<div class = centerbox><div  id = stim2></div></div>","32","32","750","","test","go","215","adv","","",""
"","305","32","1238","0","test_block","poldrack-single-stim","230","323654","0.0-5.0-216.0","go-nogo","true","0","","true","<div class = centerbox><div  id = stim2></div></div>","32","32","750","","test","go","216","adv","","",""
"","0","32","1163","0","test_block","poldrack-single-stim","231","324846","0.0-5.0-217.0","go-nogo","true","0","","true","<div class = centerbox><div  id = stim2></div></div>","32","32","750","","test","go","217","adv","","",""
"","167","32","1149","0","test_block","poldrack-single-stim","232","326017","0.0-5.0-218.0","go-nogo","true","0","","true","<div class = centerbox><div  id = stim2></div></div>","32","32","750","","test","go","218","adv","","",""
"","155","32","1175","0","test_block","poldrack-single-stim","233","327223","0.0-5.0-219.0","go-nogo","true","0","","true","<div class = centerbox><div  id = stim2></div></div>","32","32","750","","test","go","219","adv","","",""
"","55","32","1104","0","test_block","poldrack-single-stim","234","328344","0.0-5.0-220.0","go-nogo","true","0","","true","<div class = centerbox><div  id = stim2></div></div>","32","32","750","","test","go","220","adv","","",""
"","122","32","1468","0","test_block","poldrack-single-stim","235","329849","0.0-5.0-221.0","go-nogo","true","0","","true","<div class = centerbox><div  id = stim2></div></div>","32","32","750","","test","go","221","adv","","",""
"","52","32","1273","0","test_block","poldrack-single-stim","236","331146","0.0-5.0-222.0","go-nogo","true","0","","true","<div class = centerbox><div  id = stim2></div></div>","32","32","750","","test","go","222","adv","","",""
"","82","32","1072","0","test_block","poldrack-single-stim","237","332254","0.0-5.0-223.0","go-nogo","true","0","","true","<div class = centerbox><div  id = stim2></div></div>","32","32","750","","test","go","223","adv","","",""
"","223","32","1163","0","test_block","poldrack-single-stim","238","333436","0.0-5.0-224.0","go-nogo","true","0","","true","<div class = centerbox><div  id = stim2></div></div>","32","32","750","","test","go","224","adv","","",""
"","165","32","1392","0","test_block","poldrack-single-stim","239","334850","0.0-5.0-225.0","go-nogo","true","0","","true","<div class = centerbox><div  id = stim2></div></div>","32","32","750","","test","go","225","adv","","",""
"","170","32","1213","0","test_block","poldrack-single-stim","240","336085","0.0-5.0-226.0","go-nogo","true","0","","true","<div class = centerbox><div  id = stim2></div></div>","32","32","750","","test","go","226","adv","","",""
"","66","32","1121","0","test_block","poldrack-single-stim","241","337228","0.0-5.0-227.0","go-nogo","true","0","","true","<div class = centerbox><div  id = stim2></div></div>","32","32","750","","test","go","227","adv","","",""
"","142","32","1335","0","test_block","poldrack-single-stim","242","338580","0.0-5.0-228.0","go-nogo","true","0","","true","<div class = centerbox><div  id = stim2></div></div>","32","32","750","","test","go","228","adv","","",""
"","474","32","1422","0","test_block","poldrack-single-stim","243","340025","0.0-5.0-229.0","go-nogo","true","0","","true","<div class = centerbox><div  id = stim2></div></div>","32","32","750","","test","go","229","adv","","",""
"","16","32","1392","0","test_block","poldrack-single-stim","244","341437","0.0-5.0-230.0","go-nogo","true","0","","true","<div class = centerbox><div  id = stim2></div></div>","32","32","750","","test","go","230","adv","","",""
"","38","32","1073","0","test_block","poldrack-single-stim","245","342531","0.0-5.0-231.0","go-nogo","true","0","","true","<div class = centerbox><div  id = stim2></div></div>","32","32","750","","test","go","231","adv","","",""
"","354","32","1025","0","test_block","poldrack-single-stim","246","343603","0.0-5.0-232.0","go-nogo","true","0","","true","<div class = centerbox><div  id = stim2></div></div>","32","32","750","","test","go","232","adv","","",""
"","18","32","1328","0","test_block","poldrack-single-stim","247","344956","0.0-5.0-233.0","go-nogo","true","0","","true","<div class = centerbox><div  id = stim2></div></div>","32","32","750","","test","go","233","adv","","",""
"","37","32","1179","0","test_block","poldrack-single-stim","248","346163","0.0-5.0-234.0","go-nogo","true","0","","true","<div class = centerbox><div  id = stim2></div></div>","32","32","750","","test","go","234","adv","","",""
"","0","32","1402","0","test_block","poldrack-single-stim","249","347589","0.0-5.0-235.0","go-nogo","true","0","","true","<div class = centerbox><div  id = stim2></div></div>","32","32","750","","test","go","235","adv","","",""
"","39","32","1003","0","test_block","poldrack-single-stim","250","348617","0.0-5.0-236.0","go-nogo","true","0","","true","<div class = centerbox><div  id = stim2></div></div>","32","32","750","","test","go","236","adv","","",""
"","341","32","1090","0","test_block","poldrack-single-stim","251","349727","0.0-5.0-237.0","go-nogo","true","0","","true","<div class = centerbox><div  id = stim2></div></div>","32","32","750","","test","go","237","adv","","",""
"","899","32","1442","0","test_block","poldrack-single-stim","252","351191","0.0-5.0-238.0","go-nogo","true","0","","true","<div class = centerbox><div  id = stim2></div></div>","32","32","750","","test","go","238","adv","","",""
"","-1","-1","1345","0","test_block","poldrack-single-stim","253","352557","0.0-5.0-239.0","go-nogo","true","0","","false","<div class = centerbox><div  id = stim2></div></div>","32","32","750","","test","go","239","adv","","",""
"","346","32","1418","0","test_block","poldrack-single-stim","254","353994","0.0-5.0-240.0","go-nogo","true","0","","true","<div class = centerbox><div  id = stim2></div></div>","32","32","750","","test","go","240","adv","","",""
"","254","32","1040","0","test_block","poldrack-single-stim","255","355072","0.0-5.0-241.0","go-nogo","true","0","","false","<div class = centerbox><div  id = stim1></div></div>","-1","32","750","","test","nogo","241","adv","","",""
"","-1","-1","1120","0","test_block","poldrack-single-stim","256","356211","0.0-5.0-242.0","go-nogo","true","0","","true","<div class = centerbox><div  id = stim1></div></div>","-1","32","750","","test","nogo","242","adv","","",""
"","417","32","1012","0","test_block","poldrack-single-stim","257","357241","0.0-5.0-243.0","go-nogo","true","0","","true","<div class = centerbox><div  id = stim2></div></div>","32","32","750","","test","go","243","adv","","",""
"","562","32","1080","0","test_block","poldrack-single-stim","258","358344","0.0-5.0-244.0","go-nogo","true","0","","true","<div class = centerbox><div  id = stim2></div></div>","32","32","750","","test","go","244","adv","","",""
"","314","32","1267","0","test_block","poldrack-single-stim","259","359641","0.0-5.0-245.0","go-nogo","true","0","","true","<div class = centerbox><div  id = stim2></div></div>","32","32","750","","test","go","245","adv","","",""
"","256","32","1323","0","test_block","poldrack-single-stim","260","360986","0.0-5.0-246.0","go-nogo","true","0","","true","<div class = centerbox><div  id = stim2></div></div>","32","32","750","","test","go","246","adv","","",""
"","319","32","1453","0","test_block","poldrack-single-stim","261","362465","0.0-5.0-247.0","go-nogo","true","0","","true","<div class = centerbox><div  id = stim2></div></div>","32","32","750","","test","go","247","adv","","",""
"","294","32","1020","0","test_block","poldrack-single-stim","262","363513","0.0-5.0-248.0","go-nogo","true","0","","true","<div class = centerbox><div  id = stim2></div></div>","32","32","750","","test","go","248","adv","","",""
"","455","32","1454","0","test_block","poldrack-single-stim","263","364999","0.0-5.0-249.0","go-nogo","true","0","","true","<div class = centerbox><div  id = stim2></div></div>","32","32","750","","test","go","249","adv","","",""
"","242","32","1296","0","test_block","poldrack-single-stim","264","366321","0.0-5.0-250.0","go-nogo","true","0","","true","<div class = centerbox><div  id = stim2></div></div>","32","32","750","","test","go","250","adv","","",""
"","0","32","1300","0","test_block","poldrack-single-stim","265","367651","0.0-5.0-251.0","go-nogo","true","0","","true","<div class = centerbox><div  id = stim2></div></div>","32","32","750","","test","go","251","adv","","",""
"","280","32","1044","0","test_block","poldrack-single-stim","266","368717","0.0-5.0-252.0","go-nogo","true","0","","true","<div class = centerbox><div  id = stim2></div></div>","32","32","750","","test","go","252","adv","","",""
"","269","32","1359","0","test_block","poldrack-single-stim","267","370101","0.0-5.0-253.0","go-nogo","true","0","","true","<div class = centerbox><div  id = stim2></div></div>","32","32","750","","test","go","253","adv","","",""
"","263","32","1034","0","test_block","poldrack-single-stim","268","371157","0.0-5.0-254.0","go-nogo","true","0","","true","<div class = centerbox><div  id = stim2></div></div>","32","32","750","","test","go","254","adv","","",""
"","327","32","1225","0","test_block","poldrack-single-stim","269","372407","0.0-5.0-255.0","go-nogo","true","0","","true","<div class = centerbox><div  id = stim2></div></div>","32","32","750","","test","go","255","adv","","",""
"","243","32","1024","0","test_block","poldrack-single-stim","270","373475","0.0-5.0-256.0","go-nogo","true","0","","true","<div class = centerbox><div  id = stim2></div></div>","32","32","750","","test","go","256","adv","","",""
"","267","32","1114","0","test_block","poldrack-single-stim","271","374625","0.0-5.0-257.0","go-nogo","true","0","","true","<div class = centerbox><div  id = stim2></div></div>","32","32","750","","test","go","257","adv","","",""
"","219","32","1436","0","test_block","poldrack-single-stim","272","376099","0.0-5.0-258.0","go-nogo","true","0","","true","<div class = centerbox><div  id = stim2></div></div>","32","32","750","","test","go","258","adv","","",""
"","303","32","1425","0","test_block","poldrack-single-stim","273","377546","0.0-5.0-259.0","go-nogo","true","0","","true","<div class = centerbox><div  id = stim2></div></div>","32","32","750","","test","go","259","adv","","",""
"","2","32","1080","0","test_block","poldrack-single-stim","274","378668","0.0-5.0-260.0","go-nogo","true","0","","true","<div class = centerbox><div  id = stim2></div></div>","32","32","750","","test","go","260","adv","","",""
"","128","32","1212","0","test_block","poldrack-single-stim","275","379909","0.0-5.0-261.0","go-nogo","true","0","","true","<div class = centerbox><div  id = stim2></div></div>","32","32","750","","test","go","261","adv","","",""
"","374","32","1462","0","test_block","poldrack-single-stim","276","381398","0.0-5.0-262.0","go-nogo","true","0","","true","<div class = centerbox><div  id = stim2></div></div>","32","32","750","","test","go","262","adv","","",""
"","351","32","1267","0","test_block","poldrack-single-stim","277","382706","0.0-5.0-263.0","go-nogo","true","0","","true","<div class = centerbox><div  id = stim2></div></div>","32","32","750","","test","go","263","adv","","",""
"","235","32","1138","0","test_block","poldrack-single-stim","278","383872","0.0-5.0-264.0","go-nogo","true","0","","true","<div class = centerbox><div  id = stim2></div></div>","32","32","750","","test","go","264","adv","","",""
"","231","32","1431","0","test_block","poldrack-single-stim","279","385323","0.0-5.0-265.0","go-nogo","true","0","","true","<div class = centerbox><div  id = stim2></div></div>","32","32","750","","test","go","265","adv","","",""
"","37","32","1244","0","test_block","poldrack-single-stim","280","386601","0.0-5.0-266.0","go-nogo","true","0","","true","<div class = centerbox><div  id = stim2></div></div>","32","32","750","","test","go","266","adv","","",""
"","245","32","1409","0","test_block","poldrack-single-stim","281","388032","0.0-5.0-267.0","go-nogo","true","0","","true","<div class = centerbox><div  id = stim2></div></div>","32","32","750","","test","go","267","adv","","",""
"","185","32","1438","0","test_block","poldrack-single-stim","282","389496","0.0-5.0-268.0","go-nogo","true","0","","true","<div class = centerbox><div  id = stim2></div></div>","32","32","750","","test","go","268","adv","","",""
"","154","32","1233","0","test_block","poldrack-single-stim","283","390747","0.0-5.0-269.0","go-nogo","true","0","","true","<div class = centerbox><div  id = stim2></div></div>","32","32","750","","test","go","269","adv","","",""
"","250","32","1060","0","test_block","poldrack-single-stim","284","391839","0.0-5.0-270.0","go-nogo","true","0","","true","<div class = centerbox><div  id = stim2></div></div>","32","32","750","","test","go","270","adv","","",""
"","22","32","1242","0","test_block","poldrack-single-stim","285","393104","0.0-5.0-271.0","go-nogo","true","0","","true","<div class = centerbox><div  id = stim2></div></div>","32","32","750","","test","go","271","adv","","",""
"","208","32","1282","0","test_block","poldrack-single-stim","286","394410","0.0-5.0-272.0","go-nogo","true","0","","true","<div class = centerbox><div  id = stim2></div></div>","32","32","750","","test","go","272","adv","","",""
"","0","32","1173","0","test_block","poldrack-single-stim","287","395626","0.0-5.0-273.0","go-nogo","true","0","","true","<div class = centerbox><div  id = stim2></div></div>","32","32","750","","test","go","273","adv","","",""
"","1","32","1354","0","test_block","poldrack-single-stim","288","397003","0.0-5.0-274.0","go-nogo","true","0","","true","<div class = centerbox><div  id = stim2></div></div>","32","32","750","","test","go","274","adv","","",""
"","220","32","1029","0","test_block","poldrack-single-stim","289","398054","0.0-5.0-275.0","go-nogo","true","0","","true","<div class = centerbox><div  id = stim2></div></div>","32","32","750","","test","go","275","adv","","",""
"","294","32","1393","0","test_block","poldrack-single-stim","290","399470","0.0-5.0-276.0","go-nogo","true","0","","true","<div class = centerbox><div  id = stim2></div></div>","32","32","750","","test","go","276","adv","","",""
"","13","32","1448","0","test_block","poldrack-single-stim","291","400952","0.0-5.0-277.0","go-nogo","true","0","","true","<div class = centerbox><div  id = stim2></div></div>","32","32","750","","test","go","277","adv","","",""
"","175","32","1293","0","test_block","poldrack-single-stim","292","402264","0.0-5.0-278.0","go-nogo","true","0","","true","<div class = centerbox><div  id = stim2></div></div>","32","32","750","","test","go","278","adv","","",""
"","289","32","1233","0","test_block","poldrack-single-stim","293","403522","0.0-5.0-279.0","go-nogo","true","0","","true","<div class = centerbox><div  id = stim2></div></div>","32","32","750","","test","go","279","adv","","",""
"","552","32","1335","0","test_block","poldrack-single-stim","294","404882","0.0-5.0-280.0","go-nogo","true","0","","true","<div class = centerbox><div  id = stim2></div></div>","32","32","750","","test","go","280","adv","","",""
"","399","32","1259","0","test_block","poldrack-single-stim","295","406164","0.0-5.0-281.0","go-nogo","true","0","","true","<div class = centerbox><div  id = stim2></div></div>","32","32","750","","test","go","281","adv","","",""
"","293","32","1216","0","test_block","poldrack-single-stim","296","407405","0.0-5.0-282.0","go-nogo","true","0","","true","<div class = centerbox><div  id = stim2></div></div>","32","32","750","","test","go","282","adv","","",""
"","340","32","1115","0","test_block","poldrack-single-stim","297","408564","0.0-5.0-283.0","go-nogo","true","0","","true","<div class = centerbox><div  id = stim2></div></div>","32","32","750","","test","go","283","adv","","",""
"","287","32","1118","0","test_block","poldrack-single-stim","298","409709","0.0-5.0-284.0","go-nogo","true","0","","true","<div class = centerbox><div  id = stim2></div></div>","32","32","750","","test","go","284","adv","","",""
"","330","32","1142","0","test_block","poldrack-single-stim","299","410875","0.0-5.0-285.0","go-nogo","true","0","","true","<div class = centerbox><div  id = stim2></div></div>","32","32","750","","test","go","285","adv","","",""
"","319","32","1114","0","test_block","poldrack-single-stim","300","412013","0.0-5.0-286.0","go-nogo","true","0","","true","<div class = centerbox><div  id = stim2></div></div>","32","32","750","","test","go","286","adv","","",""
"","232","32","1390","0","test_block","poldrack-single-stim","301","413425","0.0-5.0-287.0","go-nogo","true","0","","true","<div class = centerbox><div  id = stim2></div></div>","32","32","750","","test","go","287","adv","","",""
"","337","32","1411","0","test_block","poldrack-single-stim","302","414870","0.0-5.0-288.0","go-nogo","true","0","","true","<div class = centerbox><div  id = stim2></div></div>","32","32","750","","test","go","288","adv","","",""
"","181","32","1233","0","test_block","poldrack-single-stim","303","416125","0.0-5.0-289.0","go-nogo","true","0","","true","<div class = centerbox><div  id = stim2></div></div>","32","32","750","","test","go","289","adv","","",""
"","274","32","1426","0","test_block","poldrack-single-stim","304","417577","0.0-5.0-290.0","go-nogo","true","0","","true","<div class = centerbox><div  id = stim2></div></div>","32","32","750","","test","go","290","adv","","",""
"","469","32","1073","0","test_block","poldrack-single-stim","305","418673","0.0-5.0-291.0","go-nogo","true","0","","true","<div class = centerbox><div  id = stim2></div></div>","32","32","750","","test","go","291","adv","","",""
"","281","32","1374","0","test_block","poldrack-single-stim","306","420078","0.0-5.0-292.0","go-nogo","true","0","","true","<div class = centerbox><div  id = stim2></div></div>","32","32","750","","test","go","292","adv","","",""
"","0","32","1120","0","test_block","poldrack-single-stim","307","421224","0.0-5.0-293.0","go-nogo","true","0","","true","<div class = centerbox><div  id = stim2></div></div>","32","32","750","","test","go","293","adv","","",""
"","282","32","1194","0","test_block","poldrack-single-stim","308","422438","0.0-5.0-294.0","go-nogo","true","0","","true","<div class = centerbox><div  id = stim2></div></div>","32","32","750","","test","go","294","adv","","",""
"","139","32","1083","0","test_block","poldrack-single-stim","309","423562","0.0-5.0-295.0","go-nogo","true","0","","true","<div class = centerbox><div  id = stim2></div></div>","32","32","750","","test","go","295","adv","","",""
"","194","32","1457","0","test_block","poldrack-single-stim","310","425040","0.0-5.0-296.0","go-nogo","true","0","","true","<div class = centerbox><div  id = stim2></div></div>","32","32","750","","test","go","296","adv","","",""
"","59","32","1017","0","test_block","poldrack-single-stim","311","426085","0.0-5.0-297.0","go-nogo","true","0","","true","<div class = centerbox><div  id = stim2></div></div>","32","32","750","","test","go","297","adv","","",""
"","329","32","1057","0","test_block","poldrack-single-stim","312","427164","0.0-5.0-298.0","go-nogo","true","0","","true","<div class = centerbox><div  id = stim2></div></div>","32","32","750","","test","go","298","adv","","",""
"","243","32","1015","0","test_block","poldrack-single-stim","313","428201","0.0-5.0-299.0","go-nogo","true","0","","true","<div class = centerbox><div  id = stim2></div></div>","32","32","750","","test","go","299","adv","","",""
"","257","32","1139","0","test_block","poldrack-single-stim","314","429358","0.0-5.0-300.0","go-nogo","true","0","","true","<div class = centerbox><div  id = stim2></div></div>","32","32","750","","test","go","300","adv","","",""
"","135","32","1117","0","test_block","poldrack-single-stim","315","430531","0.0-5.0-301.0","go-nogo","true","0","","true","<div class = centerbox><div  id = stim2></div></div>","32","32","750","","test","go","301","adv","","",""
"","263","32","1125","0","test_block","poldrack-single-stim","316","431680","0.0-5.0-302.0","go-nogo","true","0","","true","<div class = centerbox><div  id = stim2></div></div>","32","32","750","","test","go","302","adv","","",""
"","254","32","1093","0","test_block","poldrack-single-stim","317","432796","0.0-5.0-303.0","go-nogo","true","0","","true","<div class = centerbox><div  id = stim2></div></div>","32","32","750","","test","go","303","adv","","",""
"","506","32","1132","0","test_block","poldrack-single-stim","318","433953","0.0-5.0-304.0","go-nogo","true","0","","true","<div class = centerbox><div  id = stim2></div></div>","32","32","750","","test","go","304","adv","","",""
"","407","32","1149","0","test_block","poldrack-single-stim","319","435124","0.0-5.0-305.0","go-nogo","true","0","","true","<div class = centerbox><div  id = stim2></div></div>","32","32","750","","test","go","305","adv","","",""
"","276","32","1419","0","test_block","poldrack-single-stim","320","436592","0.0-5.0-306.0","go-nogo","true","0","","true","<div class = centerbox><div  id = stim2></div></div>","32","32","750","","test","go","306","adv","","",""
"","3","32","1273","0","test_block","poldrack-single-stim","321","437886","0.0-5.0-307.0","go-nogo","true","0","","true","<div class = centerbox><div  id = stim2></div></div>","32","32","750","","test","go","307","adv","","",""
"","335","32","1228","0","test_block","poldrack-single-stim","322","439143","0.0-5.0-308.0","go-nogo","true","0","","false","<div class = centerbox><div  id = stim1></div></div>","-1","32","750","","test","nogo","308","adv","","",""
"","859","32","1214","0","test_block","poldrack-single-stim","323","440379","0.0-5.0-309.0","go-nogo","true","0","","true","<div class = centerbox><div  id = stim2></div></div>","32","32","750","","test","go","309","adv","","",""
"","868","32","1113","0","test_block","poldrack-single-stim","324","441541","0.0-5.0-310.0","go-nogo","true","0","","true","<div class = centerbox><div  id = stim2></div></div>","32","32","750","","test","go","310","adv","","",""
"","-1","-1","1249","0","test_block","poldrack-single-stim","325","442806","0.0-5.0-311.0","go-nogo","true","0","","true","<div class = centerbox><div  id = stim1></div></div>","-1","32","750","","test","nogo","311","adv","","",""
"","296","32","1197","0","test_block","poldrack-single-stim","326","444026","0.0-5.0-312.0","go-nogo","true","0","","true","<div class = centerbox><div  id = stim2></div></div>","32","32","750","","test","go","312","adv","","",""
"","400","32","1169","0","test_block","poldrack-single-stim","327","445217","0.0-5.0-313.0","go-nogo","true","0","","true","<div class = centerbox><div  id = stim2></div></div>","32","32","750","","test","go","313","adv","","",""
"","352","32","1071","0","test_block","poldrack-single-stim","328","446307","0.0-5.0-314.0","go-nogo","true","0","","true","<div class = centerbox><div  id = stim2></div></div>","32","32","750","","test","go","314","adv","","",""
"","670","32","1004","0","test_block","poldrack-single-stim","329","447369","0.0-5.0-315.0","go-nogo","true","0","","true","<div class = centerbox><div  id = stim2></div></div>","32","32","750","","test","go","315","adv","","",""
"","-1","-1","1036","0","test_block","poldrack-single-stim","330","448441","0.0-5.0-316.0","go-nogo","true","0","","true","<div class = centerbox><div  id = stim1></div></div>","-1","32","750","","test","nogo","316","adv","","",""
"","512","32","1079","0","test_block","poldrack-single-stim","331","449565","0.0-5.0-317.0","go-nogo","true","0","","true","<div class = centerbox><div  id = stim2></div></div>","32","32","750","","test","go","317","adv","","",""
"","633","32","1137","0","test_block","poldrack-single-stim","332","450719","0.0-5.0-318.0","go-nogo","true","0","","true","<div class = centerbox><div  id = stim2></div></div>","32","32","750","","test","go","318","adv","","",""
"","675","32","1013","0","test_block","poldrack-single-stim","333","451753","0.0-5.0-319.0","go-nogo","true","0","","true","<div class = centerbox><div  id = stim2></div></div>","32","32","750","","test","go","319","adv","","",""
"","1003","32","1232","0","test_block","poldrack-single-stim","334","453005","0.0-5.0-320.0","go-nogo","true","0","","true","<div class = centerbox><div  id = stim2></div></div>","32","32","750","","test","go","320","adv","","",""
"","212","32","1477","0","test_block","poldrack-single-stim","335","454505","0.0-5.0-321.0","go-nogo","true","0","","true","<div class = centerbox><div  id = stim2></div></div>","32","32","750","","test","go","321","adv","","",""
"","309","32","1410","0","test_block","poldrack-single-stim","336","455936","0.0-5.0-322.0","go-nogo","true","0","","true","<div class = centerbox><div  id = stim2></div></div>","32","32","750","","test","go","322","adv","","",""
"","707","32","1327","0","test_block","poldrack-single-stim","337","457285","0.0-5.0-323.0","go-nogo","true","0","","true","<div class = centerbox><div  id = stim2></div></div>","32","32","750","","test","go","323","adv","","",""
"","383","32","1049","0","test_block","poldrack-single-stim","338","458373","0.0-5.0-324.0","go-nogo","true","0","","true","<div class = centerbox><div  id = stim2></div></div>","32","32","750","","test","go","324","adv","","",""
"","511","32","1382","0","test_block","poldrack-single-stim","339","459781","0.0-5.0-325.0","go-nogo","true","0","","true","<div class = centerbox><div  id = stim2></div></div>","32","32","750","","test","go","325","adv","","",""
"","608","32","1115","0","test_block","poldrack-single-stim","340","460923","0.0-5.0-326.0","go-nogo","true","0","","true","<div class = centerbox><div  id = stim2></div></div>","32","32","750","","test","go","326","adv","","",""
"","657","32","1033","0","test_block","poldrack-single-stim","341","461977","0.0-5.0-327.0","go-nogo","true","0","","true","<div class = centerbox><div  id = stim2></div></div>","32","32","750","","test","go","327","adv","","",""
"","-1","-1","1128","0","test_block","poldrack-single-stim","342","463128","0.0-5.0-328.0","go-nogo","true","0","","false","<div class = centerbox><div  id = stim2></div></div>","32","32","750","","test","go","328","adv","","",""
"","248","32","1209","0","test_block","poldrack-single-stim","343","464358","0.0-5.0-329.0","go-nogo","true","0","","true","<div class = centerbox><div  id = stim2></div></div>","32","32","750","","test","go","329","adv","","",""
"","250","32","1421","0","test_block","poldrack-single-stim","344","465800","0.0-5.0-330.0","go-nogo","true","0","","false","<div class = centerbox><div  id = stim1></div></div>","-1","32","750","","test","nogo","330","adv","","",""
"","254","32","1377","0","test_block","poldrack-single-stim","345","467200","0.0-5.0-331.0","go-nogo","true","0","","false","<div class = centerbox><div  id = stim1></div></div>","-1","32","750","","test","nogo","331","adv","","",""
"","-1","-1","1089","0","test_block","poldrack-single-stim","346","468306","0.0-5.0-332.0","go-nogo","true","0","","true","<div class = centerbox><div  id = stim1></div></div>","-1","32","750","","test","nogo","332","adv","","",""
"","-1","-1","1202","0","test_block","poldrack-single-stim","347","469551","0.0-5.0-333.0","go-nogo","true","0","","true","<div class = centerbox><div  id = stim1></div></div>","-1","32","750","","test","nogo","333","adv","","",""
"","-1","-1","1138","0","test_block","poldrack-single-stim","348","470710","0.0-5.0-334.0","go-nogo","true","0","","true","<div class = centerbox><div  id = stim1></div></div>","-1","32","750","","test","nogo","334","adv","","",""
"","-1","-1","1033","0","test_block","poldrack-single-stim","349","471766","0.0-5.0-335.0","go-nogo","true","0","","true","<div class = centerbox><div  id = stim1></div></div>","-1","32","750","","test","nogo","335","adv","","",""
"","-1","-1","1367","0","test_block","poldrack-single-stim","350","473157","0.0-5.0-336.0","go-nogo","true","0","","true","<div class = centerbox><div  id = stim1></div></div>","-1","32","750","","test","nogo","336","adv","","",""
"","-1","-1","1058","0","test_block","poldrack-single-stim","351","474238","0.0-5.0-337.0","go-nogo","true","0","","true","<div class = centerbox><div  id = stim1></div></div>","-1","32","750","","test","nogo","337","adv","","",""
"","-1","-1","1445","0","test_block","poldrack-single-stim","352","475701","0.0-5.0-338.0","go-nogo","true","0","","true","<div class = centerbox><div  id = stim1></div></div>","-1","32","750","","test","nogo","338","adv","","",""
"","-1","-1","1320","0","test_block","poldrack-single-stim","353","477053","0.0-5.0-339.0","go-nogo","true","0","","true","<div class = centerbox><div  id = stim1></div></div>","-1","32","750","","test","nogo","339","adv","","",""
"","-1","-1","1384","0","test_block","poldrack-single-stim","354","478462","0.0-5.0-340.0","go-nogo","true","0","","true","<div class = centerbox><div  id = stim1></div></div>","-1","32","750","","test","nogo","340","adv","","",""
"","-1","-1","1191","0","test_block","poldrack-single-stim","355","479694","0.0-5.0-341.0","go-nogo","true","0","","true","<div class = centerbox><div  id = stim1></div></div>","-1","32","750","","test","nogo","341","adv","","",""
"","-1","-1","1362","0","test_block","poldrack-single-stim","356","481079","0.0-5.0-342.0","go-nogo","true","0","","true","<div class = centerbox><div  id = stim1></div></div>","-1","32","750","","test","nogo","342","adv","","",""
"","-1","-1","1155","0","test_block","poldrack-single-stim","357","482263","0.0-5.0-343.0","go-nogo","true","0","","true","<div class = centerbox><div  id = stim1></div></div>","-1","32","750","","test","nogo","343","adv","","",""
"","-1","-1","1353","0","test_block","poldrack-single-stim","358","483634","0.0-5.0-344.0","go-nogo","true","0","","true","<div class = centerbox><div  id = stim1></div></div>","-1","32","750","","test","nogo","344","adv","","",""
"","668","32","1209","0","test_block","poldrack-single-stim","359","484882","0.0-5.0-345.0","go-nogo","true","0","","false","<div class = centerbox><div  id = stim1></div></div>","-1","32","750","","test","nogo","345","adv","","",""
"","-1","-1","1097","0","test_block","poldrack-single-stim","360","486003","0.0-5.0-346.0","go-nogo","true","0","","true","<div class = centerbox><div  id = stim1></div></div>","-1","32","750","","test","nogo","346","adv","","",""
"","-1","-1","1403","0","test_block","poldrack-single-stim","361","487433","0.0-5.0-347.0","go-nogo","true","0","","true","<div class = centerbox><div  id = stim1></div></div>","-1","32","750","","test","nogo","347","adv","","",""
"","-1","-1","1100","0","test_block","poldrack-single-stim","362","488574","0.0-5.0-348.0","go-nogo","true","0","","true","<div class = centerbox><div  id = stim1></div></div>","-1","32","750","","test","nogo","348","adv","","",""
"","-1","-1","1092","0","test_block","poldrack-single-stim","363","489699","0.0-5.0-349.0","go-nogo","true","0","","true","<div class = centerbox><div  id = stim1></div></div>","-1","32","750","","test","nogo","349","adv","","",""
"","26161","","","","post task questions","survey-text","364","515901","0.0-7.0","go-nogo","true","0","","","","","","","","","","","","{""Q0"":""Click on the space bar for every blue box and ignore for every orange."",""Q1"":""Sorry my computer froze for about 1 minute in this task""}","",""
"<div class = centerbox><p class = center-block-text>Thanks for completing this task!</p><p class = center-block-text>Insert the following code to collect your payment at Amazon Mechanical Turk:</p><p class = center-block-text>319290317</p><p class = center-block-text>Press <strong>enter</strong> to continue.</p></div>","5481","13","5481","0","end","poldrack-text","365","522383","0.0-8.0","go-nogo","true","0","","","","","","","","","","","","","319290317","true"
