"text","rt","key_press","block_duration","timing_post_trial","trial_id","trial_type","trial_index","time_elapsed","internal_node_id","exp_id","full_screen","focus_shifts","view_history","correct","stimulus","correct_response","possible_responses","stim_duration","feedback_duration","exp_stage","condition","trial_num","mode","responses","payment_id","credit_var"
"<div class = centerbox><p class = center-block-text>Welcome to the experiment. This task will take around 10 minutes. Press <strong>enter</strong> to begin.</p></div>","5882","13","5882","0","instruction","poldrack-text","0","5888","0.0-0.0-0.0","go-nogo","true","0","","","","","","","","","","","","","",""
"","1973","","","","instruction","poldrack-instructions","1","7866","0.0-0.0-1.0","go-nogo","true","0","[{""page_index"":0,""viewing_time"":1971}]","","","","","","","","","","","","",""
"","1114","32","1432","250","practice","poldrack-categorize","2","11333","0.0-1.0-0.0","go-nogo","true","0","","false","<div class = centerbox><div id = stim1></div></div>","-1","32","750","1000","practice","nogo","0","random","","",""
"","361","32","1239","250","practice","poldrack-categorize","3","13850","0.0-1.0-1.0","go-nogo","true","0","","false","<div class = centerbox><div id = stim1></div></div>","-1","32","750","1000","practice","nogo","1","random","","",""
"","-1","-1","1164","250","practice","poldrack-categorize","4","16300","0.0-1.0-2.0","go-nogo","true","0","","false","<div class = centerbox><div  id = stim2></div></div>","32","32","750","1000","practice","go","2","random","","",""
"","-1","-1","1270","250","practice","poldrack-categorize","5","18842","0.0-1.0-3.0","go-nogo","true","0","","false","<div class = centerbox><div  id = stim2></div></div>","32","32","750","1000","practice","go","3","random","","",""
"","-1","-1","1161","250","practice","poldrack-categorize","6","21270","0.0-1.0-4.0","go-nogo","true","0","","true","<div class = centerbox><div id = stim1></div></div>","-1","32","750","1000","practice","nogo","4","random","","",""
"","778","32","1009","250","practice","poldrack-categorize","7","23545","0.0-1.0-5.0","go-nogo","true","0","","true","<div class = centerbox><div  id = stim2></div></div>","32","32","750","1000","practice","go","5","random","","",""
"","933","32","1157","250","practice","poldrack-categorize","8","25958","0.0-1.0-6.0","go-nogo","true","0","","false","<div class = centerbox><div id = stim1></div></div>","-1","32","750","1000","practice","nogo","6","random","","",""
"","1008","32","1471","250","practice","poldrack-categorize","9","28684","0.0-1.0-7.0","go-nogo","true","0","","true","<div class = centerbox><div  id = stim2></div></div>","32","32","750","1000","practice","go","7","random","","",""
"","601","32","1137","250","practice","poldrack-categorize","10","31079","0.0-1.0-8.0","go-nogo","true","0","","true","<div class = centerbox><div  id = stim2></div></div>","32","32","750","1000","practice","go","8","random","","",""
"","-1","-1","1433","250","practice","poldrack-categorize","11","33768","0.0-1.0-9.0","go-nogo","true","0","","true","<div class = centerbox><div id = stim1></div></div>","-1","32","750","1000","practice","nogo","9","random","","",""
"","","","","","reset_trial","call-function","12","34020","0.0-3.0","go-nogo","true","0","","","","","","","","","","","","","",""
"<div class = centerbox><p class = block-text>Practice is over, we will now begin the experiment. You will no longer get feedback about your responses.</p><p class = block-text>Remember, if you see the <font color=""blue"">blue</font> square you should <strong> respond by pressing the spacebar as quickly as possible</strong>. If you see the <font color=""orange"">orange</font> square you should <strong> not respond</strong>. Press <strong>enter</strong> to begin.</p></div>","13061","13","13061","1000","test_intro","poldrack-text","13","47083","0.0-4.0","go-nogo","true","0","","","","","","","","","","","","","",""
"","419","32","1207","0","test_block","poldrack-single-stim","14","49296","0.0-5.0-0.0","go-nogo","true","0","","true","<div class = centerbox><div  id = stim2></div></div>","32","32","750","","test","go","0","random","","",""
"","535","32","1193","0","test_block","poldrack-single-stim","15","50645","0.0-5.0-1.0","go-nogo","true","0","","true","<div class = centerbox><div  id = stim2></div></div>","32","32","750","","test","go","1","random","","",""
"","378","32","1307","0","test_block","poldrack-single-stim","16","52051","0.0-5.0-2.0","go-nogo","true","0","","true","<div class = centerbox><div  id = stim2></div></div>","32","32","750","","test","go","2","random","","",""
"","319","32","1216","0","test_block","poldrack-single-stim","17","53324","0.0-5.0-3.0","go-nogo","true","0","","true","<div class = centerbox><div  id = stim2></div></div>","32","32","750","","test","go","3","random","","",""
"","342","32","1424","0","test_block","poldrack-single-stim","18","54846","0.0-5.0-4.0","go-nogo","true","0","","true","<div class = centerbox><div  id = stim2></div></div>","32","32","750","","test","go","4","random","","",""
"","348","32","1367","0","test_block","poldrack-single-stim","19","56270","0.0-5.0-5.0","go-nogo","true","0","","true","<div class = centerbox><div  id = stim2></div></div>","32","32","750","","test","go","5","random","","",""
"","379","32","1277","0","test_block","poldrack-single-stim","20","57613","0.0-5.0-6.0","go-nogo","true","0","","true","<div class = centerbox><div  id = stim2></div></div>","32","32","750","","test","go","6","random","","",""
"","326","32","1223","0","test_block","poldrack-single-stim","21","58941","0.0-5.0-7.0","go-nogo","true","0","","true","<div class = centerbox><div  id = stim2></div></div>","32","32","750","","test","go","7","random","","",""
"","329","32","1085","0","test_block","poldrack-single-stim","22","60120","0.0-5.0-8.0","go-nogo","true","0","","true","<div class = centerbox><div  id = stim2></div></div>","32","32","750","","test","go","8","random","","",""
"","313","32","1377","0","test_block","poldrack-single-stim","23","61547","0.0-5.0-9.0","go-nogo","true","0","","true","<div class = centerbox><div  id = stim2></div></div>","32","32","750","","test","go","9","random","","",""
"","311","32","1250","0","test_block","poldrack-single-stim","24","62919","0.0-5.0-10.0","go-nogo","true","0","","true","<div class = centerbox><div  id = stim2></div></div>","32","32","750","","test","go","10","random","","",""
"","317","32","1328","0","test_block","poldrack-single-stim","25","64302","0.0-5.0-11.0","go-nogo","true","0","","true","<div class = centerbox><div  id = stim2></div></div>","32","32","750","","test","go","11","random","","",""
"","287","32","1183","0","test_block","poldrack-single-stim","26","65530","0.0-5.0-12.0","go-nogo","true","0","","true","<div class = centerbox><div  id = stim2></div></div>","32","32","750","","test","go","12","random","","",""
"","313","32","1230","0","test_block","poldrack-single-stim","27","66858","0.0-5.0-13.0","go-nogo","true","0","","true","<div class = centerbox><div  id = stim2></div></div>","32","32","750","","test","go","13","random","","",""
"","301","32","1104","0","test_block","poldrack-single-stim","28","68071","0.0-5.0-14.0","go-nogo","true","0","","true","<div class = centerbox><div  id = stim2></div></div>","32","32","750","","test","go","14","random","","",""
"","316","32","1206","0","test_block","poldrack-single-stim","29","69373","0.0-5.0-15.0","go-nogo","true","0","","true","<div class = centerbox><div  id = stim2></div></div>","32","32","750","","test","go","15","random","","",""
"","323","32","1316","0","test_block","poldrack-single-stim","30","70804","0.0-5.0-16.0","go-nogo","true","0","","true","<div class = centerbox><div  id = stim2></div></div>","32","32","750","","test","go","16","random","","",""
"","284","32","1475","0","test_block","poldrack-single-stim","31","72389","0.0-5.0-17.0","go-nogo","true","0","","true","<div class = centerbox><div  id = stim2></div></div>","32","32","750","","test","go","17","random","","",""
"","319","32","1244","0","test_block","poldrack-single-stim","32","73778","0.0-5.0-18.0","go-nogo","true","0","","true","<div class = centerbox><div  id = stim2></div></div>","32","32","750","","test","go","18","random","","",""
"","291","32","1093","0","test_block","poldrack-single-stim","33","74928","0.0-5.0-19.0","go-nogo","true","0","","true","<div class = centerbox><div  id = stim2></div></div>","32","32","750","","test","go","19","random","","",""
"","291","32","1185","0","test_block","poldrack-single-stim","34","76226","0.0-5.0-20.0","go-nogo","true","0","","true","<div class = centerbox><div  id = stim2></div></div>","32","32","750","","test","go","20","random","","",""
"","304","32","1095","0","test_block","poldrack-single-stim","35","77468","0.0-5.0-21.0","go-nogo","true","0","","true","<div class = centerbox><div  id = stim2></div></div>","32","32","750","","test","go","21","random","","",""
"","233","32","1170","0","test_block","poldrack-single-stim","36","78774","0.0-5.0-22.0","go-nogo","true","0","","true","<div class = centerbox><div  id = stim2></div></div>","32","32","750","","test","go","22","random","","",""
"","275","32","1277","0","test_block","poldrack-single-stim","37","80158","0.0-5.0-23.0","go-nogo","true","0","","true","<div class = centerbox><div  id = stim2></div></div>","32","32","750","","test","go","23","random","","",""
"","340","32","1149","0","test_block","poldrack-single-stim","38","81413","0.0-5.0-24.0","go-nogo","true","0","","true","<div class = centerbox><div  id = stim2></div></div>","32","32","750","","test","go","24","random","","",""
"","330","32","1432","0","test_block","poldrack-single-stim","39","82897","0.0-5.0-25.0","go-nogo","true","0","","true","<div class = centerbox><div  id = stim2></div></div>","32","32","750","","test","go","25","random","","",""
"","150","32","1288","0","test_block","poldrack-single-stim","40","84278","0.0-5.0-26.0","go-nogo","true","0","","true","<div class = centerbox><div  id = stim2></div></div>","32","32","750","","test","go","26","random","","",""
"","23","32","1215","0","test_block","poldrack-single-stim","41","85620","0.0-5.0-27.0","go-nogo","true","0","","true","<div class = centerbox><div  id = stim2></div></div>","32","32","750","","test","go","27","random","","",""
"","348","32","1018","0","test_block","poldrack-single-stim","42","86729","0.0-5.0-28.0","go-nogo","true","0","","true","<div class = centerbox><div  id = stim2></div></div>","32","32","750","","test","go","28","random","","",""
"","352","32","1149","0","test_block","poldrack-single-stim","43","87993","0.0-5.0-29.0","go-nogo","true","0","","true","<div class = centerbox><div  id = stim2></div></div>","32","32","750","","test","go","29","random","","",""
"","324","32","1053","0","test_block","poldrack-single-stim","44","89143","0.0-5.0-30.0","go-nogo","true","0","","true","<div class = centerbox><div  id = stim2></div></div>","32","32","750","","test","go","30","random","","",""
"","319","32","1149","0","test_block","poldrack-single-stim","45","90370","0.0-5.0-31.0","go-nogo","true","0","","false","<div class = centerbox><div  id = stim1></div></div>","-1","32","750","","test","nogo","31","random","","",""
"","778","32","1455","0","test_block","poldrack-single-stim","46","91912","0.0-5.0-32.0","go-nogo","true","0","","true","<div class = centerbox><div  id = stim2></div></div>","32","32","750","","test","go","32","random","","",""
"","-1","-1","1282","0","test_block","poldrack-single-stim","47","93268","0.0-5.0-33.0","go-nogo","true","0","","true","<div class = centerbox><div  id = stim1></div></div>","-1","32","750","","test","nogo","33","random","","",""
"","319","32","1425","0","test_block","poldrack-single-stim","48","94758","0.0-5.0-34.0","go-nogo","true","0","","true","<div class = centerbox><div  id = stim2></div></div>","32","32","750","","test","go","34","random","","",""
"","1121","32","1318","0","test_block","poldrack-single-stim","49","96121","0.0-5.0-35.0","go-nogo","true","0","","false","<div class = centerbox><div  id = stim1></div></div>","-1","32","750","","test","nogo","35","random","","",""
"","496","32","1087","0","test_block","poldrack-single-stim","50","97292","0.0-5.0-36.0","go-nogo","true","0","","true","<div class = centerbox><div  id = stim2></div></div>","32","32","750","","test","go","36","random","","",""
"","519","32","1188","0","test_block","poldrack-single-stim","51","98521","0.0-5.0-37.0","go-nogo","true","0","","true","<div class = centerbox><div  id = stim2></div></div>","32","32","750","","test","go","37","random","","",""
"","350","32","1150","0","test_block","poldrack-single-stim","52","99740","0.0-5.0-38.0","go-nogo","true","0","","true","<div class = centerbox><div  id = stim2></div></div>","32","32","750","","test","go","38","random","","",""
"","320","32","1124","0","test_block","poldrack-single-stim","53","100904","0.0-5.0-39.0","go-nogo","true","0","","true","<div class = centerbox><div  id = stim2></div></div>","32","32","750","","test","go","39","random","","",""
"","312","32","1320","0","test_block","poldrack-single-stim","54","102268","0.0-5.0-40.0","go-nogo","true","0","","true","<div class = centerbox><div  id = stim2></div></div>","32","32","750","","test","go","40","random","","",""
"","256","32","1288","0","test_block","poldrack-single-stim","55","103604","0.0-5.0-41.0","go-nogo","true","0","","true","<div class = centerbox><div  id = stim2></div></div>","32","32","750","","test","go","41","random","","",""
"","329","32","1068","0","test_block","poldrack-single-stim","56","104719","0.0-5.0-42.0","go-nogo","true","0","","true","<div class = centerbox><div  id = stim2></div></div>","32","32","750","","test","go","42","random","","",""
"","356","32","1282","0","test_block","poldrack-single-stim","57","106043","0.0-5.0-43.0","go-nogo","true","0","","true","<div class = centerbox><div  id = stim2></div></div>","32","32","750","","test","go","43","random","","",""
"","291","32","1481","0","test_block","poldrack-single-stim","58","107569","0.0-5.0-44.0","go-nogo","true","0","","true","<div class = centerbox><div  id = stim2></div></div>","32","32","750","","test","go","44","random","","",""
"","274","32","1080","0","test_block","poldrack-single-stim","59","108721","0.0-5.0-45.0","go-nogo","true","0","","true","<div class = centerbox><div  id = stim2></div></div>","32","32","750","","test","go","45","random","","",""
"","301","32","1143","0","test_block","poldrack-single-stim","60","109910","0.0-5.0-46.0","go-nogo","true","0","","true","<div class = centerbox><div  id = stim2></div></div>","32","32","750","","test","go","46","random","","",""
"","335","32","1440","0","test_block","poldrack-single-stim","61","111429","0.0-5.0-47.0","go-nogo","true","0","","true","<div class = centerbox><div  id = stim2></div></div>","32","32","750","","test","go","47","random","","",""
"","281","32","1184","0","test_block","poldrack-single-stim","62","112658","0.0-5.0-48.0","go-nogo","true","0","","true","<div class = centerbox><div  id = stim2></div></div>","32","32","750","","test","go","48","random","","",""
"","-1","-1","1101","0","test_block","poldrack-single-stim","63","113805","0.0-5.0-49.0","go-nogo","true","0","","true","<div class = centerbox><div  id = stim1></div></div>","-1","32","750","","test","nogo","49","random","","",""
"","339","32","1462","0","test_block","poldrack-single-stim","64","115335","0.0-5.0-50.0","go-nogo","true","0","","true","<div class = centerbox><div  id = stim2></div></div>","32","32","750","","test","go","50","random","","",""
"","570","32","1062","0","test_block","poldrack-single-stim","65","116438","0.0-5.0-51.0","go-nogo","true","0","","true","<div class = centerbox><div  id = stim2></div></div>","32","32","750","","test","go","51","random","","",""
"","552","32","1139","0","test_block","poldrack-single-stim","66","117638","0.0-5.0-52.0","go-nogo","true","0","","true","<div class = centerbox><div  id = stim2></div></div>","32","32","750","","test","go","52","random","","",""
"","356","32","1372","0","test_block","poldrack-single-stim","67","119051","0.0-5.0-53.0","go-nogo","true","0","","true","<div class = centerbox><div  id = stim2></div></div>","32","32","750","","test","go","53","random","","",""
"","368","32","1415","0","test_block","poldrack-single-stim","68","120529","0.0-5.0-54.0","go-nogo","true","0","","true","<div class = centerbox><div  id = stim2></div></div>","32","32","750","","test","go","54","random","","",""
"","331","32","1296","0","test_block","poldrack-single-stim","69","121889","0.0-5.0-55.0","go-nogo","true","0","","true","<div class = centerbox><div  id = stim2></div></div>","32","32","750","","test","go","55","random","","",""
"","380","32","1145","0","test_block","poldrack-single-stim","70","123080","0.0-5.0-56.0","go-nogo","true","0","","true","<div class = centerbox><div  id = stim2></div></div>","32","32","750","","test","go","56","random","","",""
"","336","32","1059","0","test_block","poldrack-single-stim","71","124198","0.0-5.0-57.0","go-nogo","true","0","","true","<div class = centerbox><div  id = stim2></div></div>","32","32","750","","test","go","57","random","","",""
"","332","32","1164","0","test_block","poldrack-single-stim","72","125436","0.0-5.0-58.0","go-nogo","true","0","","true","<div class = centerbox><div  id = stim2></div></div>","32","32","750","","test","go","58","random","","",""
"","366","32","1140","0","test_block","poldrack-single-stim","73","126618","0.0-5.0-59.0","go-nogo","true","0","","true","<div class = centerbox><div  id = stim2></div></div>","32","32","750","","test","go","59","random","","",""
"","354","32","1113","0","test_block","poldrack-single-stim","74","127802","0.0-5.0-60.0","go-nogo","true","0","","true","<div class = centerbox><div  id = stim2></div></div>","32","32","750","","test","go","60","random","","",""
"","365","32","1123","0","test_block","poldrack-single-stim","75","128962","0.0-5.0-61.0","go-nogo","true","0","","true","<div class = centerbox><div  id = stim2></div></div>","32","32","750","","test","go","61","random","","",""
"","352","32","1121","0","test_block","poldrack-single-stim","76","130124","0.0-5.0-62.0","go-nogo","true","0","","true","<div class = centerbox><div  id = stim2></div></div>","32","32","750","","test","go","62","random","","",""
"","316","32","1455","0","test_block","poldrack-single-stim","77","131637","0.0-5.0-63.0","go-nogo","true","0","","true","<div class = centerbox><div  id = stim2></div></div>","32","32","750","","test","go","63","random","","",""
"","348","32","1054","0","test_block","poldrack-single-stim","78","132750","0.0-5.0-64.0","go-nogo","true","0","","true","<div class = centerbox><div  id = stim2></div></div>","32","32","750","","test","go","64","random","","",""
"","361","32","1397","0","test_block","poldrack-single-stim","79","134209","0.0-5.0-65.0","go-nogo","true","0","","true","<div class = centerbox><div  id = stim2></div></div>","32","32","750","","test","go","65","random","","",""
"","385","32","1453","0","test_block","poldrack-single-stim","80","135703","0.0-5.0-66.0","go-nogo","true","0","","true","<div class = centerbox><div  id = stim2></div></div>","32","32","750","","test","go","66","random","","",""
"","167","32","1088","0","test_block","poldrack-single-stim","81","136853","0.0-5.0-67.0","go-nogo","true","0","","true","<div class = centerbox><div  id = stim2></div></div>","32","32","750","","test","go","67","random","","",""
"","312","32","1294","0","test_block","poldrack-single-stim","82","138210","0.0-5.0-68.0","go-nogo","true","0","","true","<div class = centerbox><div  id = stim2></div></div>","32","32","750","","test","go","68","random","","",""
"","168","32","1146","0","test_block","poldrack-single-stim","83","139413","0.0-5.0-69.0","go-nogo","true","0","","true","<div class = centerbox><div  id = stim2></div></div>","32","32","750","","test","go","69","random","","",""
"","291","32","1221","0","test_block","poldrack-single-stim","84","140677","0.0-5.0-70.0","go-nogo","true","0","","true","<div class = centerbox><div  id = stim2></div></div>","32","32","750","","test","go","70","random","","",""
"","-1","-1","1228","0","test_block","poldrack-single-stim","85","141948","0.0-5.0-71.0","go-nogo","true","0","","true","<div class = centerbox><div  id = stim1></div></div>","-1","32","750","","test","nogo","71","random","","",""
"","575","32","1447","0","test_block","poldrack-single-stim","86","143452","0.0-5.0-72.0","go-nogo","true","0","","true","<div class = centerbox><div  id = stim2></div></div>","32","32","750","","test","go","72","random","","",""
"","397","32","1468","0","test_block","poldrack-single-stim","87","144986","0.0-5.0-73.0","go-nogo","true","0","","true","<div class = centerbox><div  id = stim2></div></div>","32","32","750","","test","go","73","random","","",""
"","329","32","1301","0","test_block","poldrack-single-stim","88","146326","0.0-5.0-74.0","go-nogo","true","0","","true","<div class = centerbox><div  id = stim2></div></div>","32","32","750","","test","go","74","random","","",""
"","349","32","1036","0","test_block","poldrack-single-stim","89","147402","0.0-5.0-75.0","go-nogo","true","0","","true","<div class = centerbox><div  id = stim2></div></div>","32","32","750","","test","go","75","random","","",""
"","346","32","1186","0","test_block","poldrack-single-stim","90","148627","0.0-5.0-76.0","go-nogo","true","0","","true","<div class = centerbox><div  id = stim2></div></div>","32","32","750","","test","go","76","random","","",""
"","240","32","1447","0","test_block","poldrack-single-stim","91","150138","0.0-5.0-77.0","go-nogo","true","0","","true","<div class = centerbox><div  id = stim2></div></div>","32","32","750","","test","go","77","random","","",""
"","782","32","1075","0","test_block","poldrack-single-stim","92","151272","0.0-5.0-78.0","go-nogo","true","0","","true","<div class = centerbox><div  id = stim2></div></div>","32","32","750","","test","go","78","random","","",""
"","377","32","1353","0","test_block","poldrack-single-stim","93","152682","0.0-5.0-79.0","go-nogo","true","0","","true","<div class = centerbox><div  id = stim2></div></div>","32","32","750","","test","go","79","random","","",""
"","406","32","1242","0","test_block","poldrack-single-stim","94","153959","0.0-5.0-80.0","go-nogo","true","0","","true","<div class = centerbox><div  id = stim2></div></div>","32","32","750","","test","go","80","random","","",""
"","361","32","1251","0","test_block","poldrack-single-stim","95","155254","0.0-5.0-81.0","go-nogo","true","0","","true","<div class = centerbox><div  id = stim2></div></div>","32","32","750","","test","go","81","random","","",""
"","346","32","1256","0","test_block","poldrack-single-stim","96","156553","0.0-5.0-82.0","go-nogo","true","0","","true","<div class = centerbox><div  id = stim2></div></div>","32","32","750","","test","go","82","random","","",""
"","330","32","1144","0","test_block","poldrack-single-stim","97","157737","0.0-5.0-83.0","go-nogo","true","0","","true","<div class = centerbox><div  id = stim2></div></div>","32","32","750","","test","go","83","random","","",""
"","315","32","1063","0","test_block","poldrack-single-stim","98","158839","0.0-5.0-84.0","go-nogo","true","0","","true","<div class = centerbox><div  id = stim2></div></div>","32","32","750","","test","go","84","random","","",""
"","349","32","1324","0","test_block","poldrack-single-stim","99","160202","0.0-5.0-85.0","go-nogo","true","0","","true","<div class = centerbox><div  id = stim2></div></div>","32","32","750","","test","go","85","random","","",""
"","-1","-1","1071","0","test_block","poldrack-single-stim","100","161315","0.0-5.0-86.0","go-nogo","true","0","","true","<div class = centerbox><div  id = stim1></div></div>","-1","32","750","","test","nogo","86","random","","",""
"","393","32","1212","0","test_block","poldrack-single-stim","101","162574","0.0-5.0-87.0","go-nogo","true","0","","true","<div class = centerbox><div  id = stim2></div></div>","32","32","750","","test","go","87","random","","",""
"","359","32","1025","0","test_block","poldrack-single-stim","102","163660","0.0-5.0-88.0","go-nogo","true","0","","true","<div class = centerbox><div  id = stim2></div></div>","32","32","750","","test","go","88","random","","",""
"","355","32","1352","0","test_block","poldrack-single-stim","103","165049","0.0-5.0-89.0","go-nogo","true","0","","true","<div class = centerbox><div  id = stim2></div></div>","32","32","750","","test","go","89","random","","",""
"","114","32","1234","0","test_block","poldrack-single-stim","104","166322","0.0-5.0-90.0","go-nogo","true","0","","false","<div class = centerbox><div  id = stim1></div></div>","-1","32","750","","test","nogo","90","random","","",""
"","432","32","1172","0","test_block","poldrack-single-stim","105","167535","0.0-5.0-91.0","go-nogo","true","0","","true","<div class = centerbox><div  id = stim2></div></div>","32","32","750","","test","go","91","random","","",""
"","392","32","1203","0","test_block","poldrack-single-stim","106","168773","0.0-5.0-92.0","go-nogo","true","0","","true","<div class = centerbox><div  id = stim2></div></div>","32","32","750","","test","go","92","random","","",""
"","348","32","1416","0","test_block","poldrack-single-stim","107","170231","0.0-5.0-93.0","go-nogo","true","0","","true","<div class = centerbox><div  id = stim2></div></div>","32","32","750","","test","go","93","random","","",""
"","347","32","1160","0","test_block","poldrack-single-stim","108","171448","0.0-5.0-94.0","go-nogo","true","0","","true","<div class = centerbox><div  id = stim2></div></div>","32","32","750","","test","go","94","random","","",""
"","372","32","1401","0","test_block","poldrack-single-stim","109","172913","0.0-5.0-95.0","go-nogo","true","0","","true","<div class = centerbox><div  id = stim2></div></div>","32","32","750","","test","go","95","random","","",""
"","333","32","1143","0","test_block","poldrack-single-stim","110","174102","0.0-5.0-96.0","go-nogo","true","0","","true","<div class = centerbox><div  id = stim2></div></div>","32","32","750","","test","go","96","random","","",""
"","369","32","1060","0","test_block","poldrack-single-stim","111","175199","0.0-5.0-97.0","go-nogo","true","0","","true","<div class = centerbox><div  id = stim2></div></div>","32","32","750","","test","go","97","random","","",""
"","-1","-1","1006","0","test_block","poldrack-single-stim","112","176244","0.0-5.0-98.0","go-nogo","true","0","","true","<div class = centerbox><div  id = stim1></div></div>","-1","32","750","","test","nogo","98","random","","",""
"","83","32","1380","0","test_block","poldrack-single-stim","113","177667","0.0-5.0-99.0","go-nogo","true","0","","false","<div class = centerbox><div  id = stim1></div></div>","-1","32","750","","test","nogo","99","random","","",""
"","344","32","1314","0","test_block","poldrack-single-stim","114","179037","0.0-5.0-100.0","go-nogo","true","0","","true","<div class = centerbox><div  id = stim2></div></div>","32","32","750","","test","go","100","random","","",""
"","331","32","1029","0","test_block","poldrack-single-stim","115","180125","0.0-5.0-101.0","go-nogo","true","0","","true","<div class = centerbox><div  id = stim2></div></div>","32","32","750","","test","go","101","random","","",""
"","398","32","1227","0","test_block","poldrack-single-stim","116","181393","0.0-5.0-102.0","go-nogo","true","0","","true","<div class = centerbox><div  id = stim2></div></div>","32","32","750","","test","go","102","random","","",""
"","309","32","1230","0","test_block","poldrack-single-stim","117","182755","0.0-5.0-103.0","go-nogo","true","0","","true","<div class = centerbox><div  id = stim2></div></div>","32","32","750","","test","go","103","random","","",""
"","350","32","1497","0","test_block","poldrack-single-stim","118","184295","0.0-5.0-104.0","go-nogo","true","0","","false","<div class = centerbox><div  id = stim1></div></div>","-1","32","750","","test","nogo","104","random","","",""
"","-1","-1","1424","0","test_block","poldrack-single-stim","119","185763","0.0-5.0-105.0","go-nogo","true","0","","true","<div class = centerbox><div  id = stim1></div></div>","-1","32","750","","test","nogo","105","random","","",""
"","432","32","1097","0","test_block","poldrack-single-stim","120","186901","0.0-5.0-106.0","go-nogo","true","0","","true","<div class = centerbox><div  id = stim2></div></div>","32","32","750","","test","go","106","random","","",""
"","451","32","1045","0","test_block","poldrack-single-stim","121","187989","0.0-5.0-107.0","go-nogo","true","0","","true","<div class = centerbox><div  id = stim2></div></div>","32","32","750","","test","go","107","random","","",""
"","356","32","1423","0","test_block","poldrack-single-stim","122","189455","0.0-5.0-108.0","go-nogo","true","0","","true","<div class = centerbox><div  id = stim2></div></div>","32","32","750","","test","go","108","random","","",""
"","-1","-1","1128","0","test_block","poldrack-single-stim","123","190644","0.0-5.0-109.0","go-nogo","true","0","","true","<div class = centerbox><div  id = stim1></div></div>","-1","32","750","","test","nogo","109","random","","",""
"","314","32","1369","0","test_block","poldrack-single-stim","124","192082","0.0-5.0-110.0","go-nogo","true","0","","true","<div class = centerbox><div  id = stim2></div></div>","32","32","750","","test","go","110","random","","",""
"","332","32","1140","0","test_block","poldrack-single-stim","125","193283","0.0-5.0-111.0","go-nogo","true","0","","true","<div class = centerbox><div  id = stim2></div></div>","32","32","750","","test","go","111","random","","",""
"","319","32","1111","0","test_block","poldrack-single-stim","126","194434","0.0-5.0-112.0","go-nogo","true","0","","true","<div class = centerbox><div  id = stim2></div></div>","32","32","750","","test","go","112","random","","",""
"","232","32","1117","0","test_block","poldrack-single-stim","127","195608","0.0-5.0-113.0","go-nogo","true","0","","false","<div class = centerbox><div  id = stim1></div></div>","-1","32","750","","test","nogo","113","random","","",""
"","390","32","1245","0","test_block","poldrack-single-stim","128","196914","0.0-5.0-114.0","go-nogo","true","0","","true","<div class = centerbox><div  id = stim2></div></div>","32","32","750","","test","go","114","random","","",""
"","335","32","1012","0","test_block","poldrack-single-stim","129","197985","0.0-5.0-115.0","go-nogo","true","0","","true","<div class = centerbox><div  id = stim2></div></div>","32","32","750","","test","go","115","random","","",""
"","342","32","1349","0","test_block","poldrack-single-stim","130","199371","0.0-5.0-116.0","go-nogo","true","0","","true","<div class = centerbox><div  id = stim2></div></div>","32","32","750","","test","go","116","random","","",""
"","337","32","1225","0","test_block","poldrack-single-stim","131","200635","0.0-5.0-117.0","go-nogo","true","0","","true","<div class = centerbox><div  id = stim2></div></div>","32","32","750","","test","go","117","random","","",""
"","313","32","1477","0","test_block","poldrack-single-stim","132","202151","0.0-5.0-118.0","go-nogo","true","0","","true","<div class = centerbox><div  id = stim2></div></div>","32","32","750","","test","go","118","random","","",""
"","235","32","1091","0","test_block","poldrack-single-stim","133","203283","0.0-5.0-119.0","go-nogo","true","0","","true","<div class = centerbox><div  id = stim2></div></div>","32","32","750","","test","go","119","random","","",""
"","225","32","1258","0","test_block","poldrack-single-stim","134","204580","0.0-5.0-120.0","go-nogo","true","0","","true","<div class = centerbox><div  id = stim2></div></div>","32","32","750","","test","go","120","random","","",""
"","65","32","1003","0","test_block","poldrack-single-stim","135","205645","0.0-5.0-121.0","go-nogo","true","0","","true","<div class = centerbox><div  id = stim2></div></div>","32","32","750","","test","go","121","random","","",""
"","-1","-1","1350","0","test_block","poldrack-single-stim","136","207040","0.0-5.0-122.0","go-nogo","true","0","","true","<div class = centerbox><div  id = stim1></div></div>","-1","32","750","","test","nogo","122","random","","",""
"","429","32","1304","0","test_block","poldrack-single-stim","137","208408","0.0-5.0-123.0","go-nogo","true","0","","true","<div class = centerbox><div  id = stim2></div></div>","32","32","750","","test","go","123","random","","",""
"","339","32","1472","0","test_block","poldrack-single-stim","138","209920","0.0-5.0-124.0","go-nogo","true","0","","true","<div class = centerbox><div  id = stim2></div></div>","32","32","750","","test","go","124","random","","",""
"","372","32","1134","0","test_block","poldrack-single-stim","139","211119","0.0-5.0-125.0","go-nogo","true","0","","true","<div class = centerbox><div  id = stim2></div></div>","32","32","750","","test","go","125","random","","",""
"","375","32","1204","0","test_block","poldrack-single-stim","140","212359","0.0-5.0-126.0","go-nogo","true","0","","true","<div class = centerbox><div  id = stim2></div></div>","32","32","750","","test","go","126","random","","",""
"","332","32","1477","0","test_block","poldrack-single-stim","141","213877","0.0-5.0-127.0","go-nogo","true","0","","true","<div class = centerbox><div  id = stim2></div></div>","32","32","750","","test","go","127","random","","",""
"","336","32","1234","0","test_block","poldrack-single-stim","142","215151","0.0-5.0-128.0","go-nogo","true","0","","true","<div class = centerbox><div  id = stim2></div></div>","32","32","750","","test","go","128","random","","",""
"","363","32","1306","0","test_block","poldrack-single-stim","143","216497","0.0-5.0-129.0","go-nogo","true","0","","true","<div class = centerbox><div  id = stim2></div></div>","32","32","750","","test","go","129","random","","",""
"","533","32","1298","0","test_block","poldrack-single-stim","144","217864","0.0-5.0-130.0","go-nogo","true","0","","true","<div class = centerbox><div  id = stim2></div></div>","32","32","750","","test","go","130","random","","",""
"","327","32","1108","0","test_block","poldrack-single-stim","145","219016","0.0-5.0-131.0","go-nogo","true","0","","true","<div class = centerbox><div  id = stim2></div></div>","32","32","750","","test","go","131","random","","",""
"","360","32","1409","0","test_block","poldrack-single-stim","146","220468","0.0-5.0-132.0","go-nogo","true","0","","true","<div class = centerbox><div  id = stim2></div></div>","32","32","750","","test","go","132","random","","",""
"","330","32","1032","0","test_block","poldrack-single-stim","147","221560","0.0-5.0-133.0","go-nogo","true","0","","true","<div class = centerbox><div  id = stim2></div></div>","32","32","750","","test","go","133","random","","",""
"","313","32","1282","0","test_block","poldrack-single-stim","148","222884","0.0-5.0-134.0","go-nogo","true","0","","true","<div class = centerbox><div  id = stim2></div></div>","32","32","750","","test","go","134","random","","",""
"","312","32","1108","0","test_block","poldrack-single-stim","149","224031","0.0-5.0-135.0","go-nogo","true","0","","false","<div class = centerbox><div  id = stim1></div></div>","-1","32","750","","test","nogo","135","random","","",""
"","375","32","1189","0","test_block","poldrack-single-stim","150","225256","0.0-5.0-136.0","go-nogo","true","0","","true","<div class = centerbox><div  id = stim2></div></div>","32","32","750","","test","go","136","random","","",""
"","317","32","1067","0","test_block","poldrack-single-stim","151","226362","0.0-5.0-137.0","go-nogo","true","0","","true","<div class = centerbox><div  id = stim2></div></div>","32","32","750","","test","go","137","random","","",""
"","293","32","1166","0","test_block","poldrack-single-stim","152","227573","0.0-5.0-138.0","go-nogo","true","0","","true","<div class = centerbox><div  id = stim2></div></div>","32","32","750","","test","go","138","random","","",""
"","316","32","1476","0","test_block","poldrack-single-stim","153","229082","0.0-5.0-139.0","go-nogo","true","0","","true","<div class = centerbox><div  id = stim2></div></div>","32","32","750","","test","go","139","random","","",""
"","361","32","1107","0","test_block","poldrack-single-stim","154","230230","0.0-5.0-140.0","go-nogo","true","0","","true","<div class = centerbox><div  id = stim2></div></div>","32","32","750","","test","go","140","random","","",""
"","-1","-1","1491","0","test_block","poldrack-single-stim","155","231780","0.0-5.0-141.0","go-nogo","true","0","","true","<div class = centerbox><div  id = stim1></div></div>","-1","32","750","","test","nogo","141","random","","",""
"","330","32","1058","0","test_block","poldrack-single-stim","156","232901","0.0-5.0-142.0","go-nogo","true","0","","true","<div class = centerbox><div  id = stim2></div></div>","32","32","750","","test","go","142","random","","",""
"","-1","-1","1185","0","test_block","poldrack-single-stim","157","234129","0.0-5.0-143.0","go-nogo","true","0","","true","<div class = centerbox><div  id = stim1></div></div>","-1","32","750","","test","nogo","143","random","","",""
"","452","32","1220","0","test_block","poldrack-single-stim","158","235412","0.0-5.0-144.0","go-nogo","true","0","","true","<div class = centerbox><div  id = stim2></div></div>","32","32","750","","test","go","144","random","","",""
"","455","32","1447","0","test_block","poldrack-single-stim","159","236899","0.0-5.0-145.0","go-nogo","true","0","","true","<div class = centerbox><div  id = stim2></div></div>","32","32","750","","test","go","145","random","","",""
"","321","32","1014","0","test_block","poldrack-single-stim","160","237978","0.0-5.0-146.0","go-nogo","true","0","","true","<div class = centerbox><div  id = stim2></div></div>","32","32","750","","test","go","146","random","","",""
"","339","32","1128","0","test_block","poldrack-single-stim","161","239145","0.0-5.0-147.0","go-nogo","true","0","","true","<div class = centerbox><div  id = stim2></div></div>","32","32","750","","test","go","147","random","","",""
"","-1","-1","1068","0","test_block","poldrack-single-stim","162","240277","0.0-5.0-148.0","go-nogo","true","0","","true","<div class = centerbox><div  id = stim1></div></div>","-1","32","750","","test","nogo","148","random","","",""
"","310","32","1304","0","test_block","poldrack-single-stim","163","241638","0.0-5.0-149.0","go-nogo","true","0","","true","<div class = centerbox><div  id = stim2></div></div>","32","32","750","","test","go","149","random","","",""
"","-1","-1","1002","0","test_block","poldrack-single-stim","164","242698","0.0-5.0-150.0","go-nogo","true","0","","true","<div class = centerbox><div  id = stim1></div></div>","-1","32","750","","test","nogo","150","random","","",""
"","345","32","1234","0","test_block","poldrack-single-stim","165","243972","0.0-5.0-151.0","go-nogo","true","0","","true","<div class = centerbox><div  id = stim2></div></div>","32","32","750","","test","go","151","random","","",""
"","360","32","1430","0","test_block","poldrack-single-stim","166","245442","0.0-5.0-152.0","go-nogo","true","0","","true","<div class = centerbox><div  id = stim2></div></div>","32","32","750","","test","go","152","random","","",""
"","311","32","1132","0","test_block","poldrack-single-stim","167","246615","0.0-5.0-153.0","go-nogo","true","0","","true","<div class = centerbox><div  id = stim2></div></div>","32","32","750","","test","go","153","random","","",""
"","315","32","1316","0","test_block","poldrack-single-stim","168","247988","0.0-5.0-154.0","go-nogo","true","0","","true","<div class = centerbox><div  id = stim2></div></div>","32","32","750","","test","go","154","random","","",""
"","318","32","1062","0","test_block","poldrack-single-stim","169","249092","0.0-5.0-155.0","go-nogo","true","0","","true","<div class = centerbox><div  id = stim2></div></div>","32","32","750","","test","go","155","random","","",""
"","322","32","1355","0","test_block","poldrack-single-stim","170","250507","0.0-5.0-156.0","go-nogo","true","0","","true","<div class = centerbox><div  id = stim2></div></div>","32","32","750","","test","go","156","random","","",""
"","274","32","1344","0","test_block","poldrack-single-stim","171","251914","0.0-5.0-157.0","go-nogo","true","0","","true","<div class = centerbox><div  id = stim2></div></div>","32","32","750","","test","go","157","random","","",""
"","324","32","1352","0","test_block","poldrack-single-stim","172","253303","0.0-5.0-158.0","go-nogo","true","0","","true","<div class = centerbox><div  id = stim2></div></div>","32","32","750","","test","go","158","random","","",""
"","302","32","1347","0","test_block","poldrack-single-stim","173","254713","0.0-5.0-159.0","go-nogo","true","0","","true","<div class = centerbox><div  id = stim2></div></div>","32","32","750","","test","go","159","random","","",""
"","315","32","1443","0","test_block","poldrack-single-stim","174","256212","0.0-5.0-160.0","go-nogo","true","0","","true","<div class = centerbox><div  id = stim2></div></div>","32","32","750","","test","go","160","random","","",""
"","353","32","1472","0","test_block","poldrack-single-stim","175","257754","0.0-5.0-161.0","go-nogo","true","0","","true","<div class = centerbox><div  id = stim2></div></div>","32","32","750","","test","go","161","random","","",""
"","336","32","1330","0","test_block","poldrack-single-stim","176","259142","0.0-5.0-162.0","go-nogo","true","0","","true","<div class = centerbox><div  id = stim2></div></div>","32","32","750","","test","go","162","random","","",""
"","324","32","1327","0","test_block","poldrack-single-stim","177","260509","0.0-5.0-163.0","go-nogo","true","0","","true","<div class = centerbox><div  id = stim2></div></div>","32","32","750","","test","go","163","random","","",""
"","314","32","1031","0","test_block","poldrack-single-stim","178","261601","0.0-5.0-164.0","go-nogo","true","0","","true","<div class = centerbox><div  id = stim2></div></div>","32","32","750","","test","go","164","random","","",""
"","349","32","1256","0","test_block","poldrack-single-stim","179","262925","0.0-5.0-165.0","go-nogo","true","0","","true","<div class = centerbox><div  id = stim2></div></div>","32","32","750","","test","go","165","random","","",""
"","331","32","1003","0","test_block","poldrack-single-stim","180","263964","0.0-5.0-166.0","go-nogo","true","0","","true","<div class = centerbox><div  id = stim2></div></div>","32","32","750","","test","go","166","random","","",""
"","251","32","1388","0","test_block","poldrack-single-stim","181","265388","0.0-5.0-167.0","go-nogo","true","0","","true","<div class = centerbox><div  id = stim2></div></div>","32","32","750","","test","go","167","random","","",""
"","205","32","1156","0","test_block","poldrack-single-stim","182","266586","0.0-5.0-168.0","go-nogo","true","0","","true","<div class = centerbox><div  id = stim2></div></div>","32","32","750","","test","go","168","random","","",""
"","3","32","1474","0","test_block","poldrack-single-stim","183","268099","0.0-5.0-169.0","go-nogo","true","0","","true","<div class = centerbox><div  id = stim2></div></div>","32","32","750","","test","go","169","random","","",""
"","9","32","1286","0","test_block","poldrack-single-stim","184","269424","0.0-5.0-170.0","go-nogo","true","0","","true","<div class = centerbox><div  id = stim2></div></div>","32","32","750","","test","go","170","random","","",""
"","676","32","1254","0","test_block","poldrack-single-stim","185","270741","0.0-5.0-171.0","go-nogo","true","0","","true","<div class = centerbox><div  id = stim2></div></div>","32","32","750","","test","go","171","random","","",""
"","315","32","1088","0","test_block","poldrack-single-stim","186","271874","0.0-5.0-172.0","go-nogo","true","0","","true","<div class = centerbox><div  id = stim2></div></div>","32","32","750","","test","go","172","random","","",""
"","98","32","1399","0","test_block","poldrack-single-stim","187","273346","0.0-5.0-173.0","go-nogo","true","0","","true","<div class = centerbox><div  id = stim2></div></div>","32","32","750","","test","go","173","random","","",""
"","373","32","1273","0","test_block","poldrack-single-stim","188","274663","0.0-5.0-174.0","go-nogo","true","0","","true","<div class = centerbox><div  id = stim2></div></div>","32","32","750","","test","go","174","random","","",""
"","185","32","1050","0","test_block","poldrack-single-stim","189","275771","0.0-5.0-175.0","go-nogo","true","0","","true","<div class = centerbox><div  id = stim2></div></div>","32","32","750","","test","go","175","random","","",""
"","322","32","1471","0","test_block","poldrack-single-stim","190","277282","0.0-5.0-176.0","go-nogo","true","0","","true","<div class = centerbox><div  id = stim2></div></div>","32","32","750","","test","go","176","random","","",""
"","325","32","1167","0","test_block","poldrack-single-stim","191","278493","0.0-5.0-177.0","go-nogo","true","0","","true","<div class = centerbox><div  id = stim2></div></div>","32","32","750","","test","go","177","random","","",""
"","300","32","1076","0","test_block","poldrack-single-stim","192","279627","0.0-5.0-178.0","go-nogo","true","0","","true","<div class = centerbox><div  id = stim2></div></div>","32","32","750","","test","go","178","random","","",""
"","329","32","1049","0","test_block","poldrack-single-stim","193","280715","0.0-5.0-179.0","go-nogo","true","0","","true","<div class = centerbox><div  id = stim2></div></div>","32","32","750","","test","go","179","random","","",""
"","317","32","1045","0","test_block","poldrack-single-stim","194","281796","0.0-5.0-180.0","go-nogo","true","0","","true","<div class = centerbox><div  id = stim2></div></div>","32","32","750","","test","go","180","random","","",""
"","316","32","1296","0","test_block","poldrack-single-stim","195","283153","0.0-5.0-181.0","go-nogo","true","0","","true","<div class = centerbox><div  id = stim2></div></div>","32","32","750","","test","go","181","random","","",""
"","288","32","1349","0","test_block","poldrack-single-stim","196","284544","0.0-5.0-182.0","go-nogo","true","0","","true","<div class = centerbox><div  id = stim2></div></div>","32","32","750","","test","go","182","random","","",""
"","276","32","1259","0","test_block","poldrack-single-stim","197","285843","0.0-5.0-183.0","go-nogo","true","0","","true","<div class = centerbox><div  id = stim2></div></div>","32","32","750","","test","go","183","random","","",""
"","297","32","1102","0","test_block","poldrack-single-stim","198","287001","0.0-5.0-184.0","go-nogo","true","0","","true","<div class = centerbox><div  id = stim2></div></div>","32","32","750","","test","go","184","random","","",""
"","452","32","1419","0","test_block","poldrack-single-stim","199","288459","0.0-5.0-185.0","go-nogo","true","0","","true","<div class = centerbox><div  id = stim2></div></div>","32","32","750","","test","go","185","random","","",""
"","289","32","1437","0","test_block","poldrack-single-stim","200","289935","0.0-5.0-186.0","go-nogo","true","0","","false","<div class = centerbox><div  id = stim1></div></div>","-1","32","750","","test","nogo","186","random","","",""
"","299","32","1258","0","test_block","poldrack-single-stim","201","291227","0.0-5.0-187.0","go-nogo","true","0","","true","<div class = centerbox><div  id = stim2></div></div>","32","32","750","","test","go","187","random","","",""
"","368","32","1350","0","test_block","poldrack-single-stim","202","292617","0.0-5.0-188.0","go-nogo","true","0","","true","<div class = centerbox><div  id = stim2></div></div>","32","32","750","","test","go","188","random","","",""
"","318","32","1385","0","test_block","poldrack-single-stim","203","294039","0.0-5.0-189.0","go-nogo","true","0","","true","<div class = centerbox><div  id = stim2></div></div>","32","32","750","","test","go","189","random","","",""
"","337","32","1439","0","test_block","poldrack-single-stim","204","295514","0.0-5.0-190.0","go-nogo","true","0","","true","<div class = centerbox><div  id = stim2></div></div>","32","32","750","","test","go","190","random","","",""
"","340","32","1174","0","test_block","poldrack-single-stim","205","296725","0.0-5.0-191.0","go-nogo","true","0","","true","<div class = centerbox><div  id = stim2></div></div>","32","32","750","","test","go","191","random","","",""
"","342","32","1146","0","test_block","poldrack-single-stim","206","297928","0.0-5.0-192.0","go-nogo","true","0","","true","<div class = centerbox><div  id = stim2></div></div>","32","32","750","","test","go","192","random","","",""
"","321","32","1484","0","test_block","poldrack-single-stim","207","299447","0.0-5.0-193.0","go-nogo","true","0","","true","<div class = centerbox><div  id = stim2></div></div>","32","32","750","","test","go","193","random","","",""
"","340","32","1263","0","test_block","poldrack-single-stim","208","300751","0.0-5.0-194.0","go-nogo","true","0","","true","<div class = centerbox><div  id = stim2></div></div>","32","32","750","","test","go","194","random","","",""
"","290","32","1075","0","test_block","poldrack-single-stim","209","301885","0.0-5.0-195.0","go-nogo","true","0","","true","<div class = centerbox><div  id = stim2></div></div>","32","32","750","","test","go","195","random","","",""
"","331","32","1477","0","test_block","poldrack-single-stim","210","303423","0.0-5.0-196.0","go-nogo","true","0","","true","<div class = centerbox><div  id = stim2></div></div>","32","32","750","","test","go","196","random","","",""
"","329","32","1178","0","test_block","poldrack-single-stim","211","304637","0.0-5.0-197.0","go-nogo","true","0","","true","<div class = centerbox><div  id = stim2></div></div>","32","32","750","","test","go","197","random","","",""
"","335","32","1495","0","test_block","poldrack-single-stim","212","306194","0.0-5.0-198.0","go-nogo","true","0","","true","<div class = centerbox><div  id = stim2></div></div>","32","32","750","","test","go","198","random","","",""
"","298","32","1184","0","test_block","poldrack-single-stim","213","307418","0.0-5.0-199.0","go-nogo","true","0","","true","<div class = centerbox><div  id = stim2></div></div>","32","32","750","","test","go","199","random","","",""
"","324","32","1225","0","test_block","poldrack-single-stim","214","308681","0.0-5.0-200.0","go-nogo","true","0","","false","<div class = centerbox><div  id = stim1></div></div>","-1","32","750","","test","nogo","200","random","","",""
"","461","32","1267","0","test_block","poldrack-single-stim","215","310002","0.0-5.0-201.0","go-nogo","true","0","","true","<div class = centerbox><div  id = stim2></div></div>","32","32","750","","test","go","201","random","","",""
"","332","32","1004","0","test_block","poldrack-single-stim","216","311044","0.0-5.0-202.0","go-nogo","true","0","","true","<div class = centerbox><div  id = stim2></div></div>","32","32","750","","test","go","202","random","","",""
"","368","32","1359","0","test_block","poldrack-single-stim","217","312447","0.0-5.0-203.0","go-nogo","true","0","","true","<div class = centerbox><div  id = stim2></div></div>","32","32","750","","test","go","203","random","","",""
"","306","32","1443","0","test_block","poldrack-single-stim","218","313925","0.0-5.0-204.0","go-nogo","true","0","","true","<div class = centerbox><div  id = stim2></div></div>","32","32","750","","test","go","204","random","","",""
"","364","32","1025","0","test_block","poldrack-single-stim","219","315009","0.0-5.0-205.0","go-nogo","true","0","","true","<div class = centerbox><div  id = stim2></div></div>","32","32","750","","test","go","205","random","","",""
"","295","32","1480","0","test_block","poldrack-single-stim","220","316549","0.0-5.0-206.0","go-nogo","true","0","","true","<div class = centerbox><div  id = stim2></div></div>","32","32","750","","test","go","206","random","","",""
"","336","32","1068","0","test_block","poldrack-single-stim","221","317680","0.0-5.0-207.0","go-nogo","true","0","","true","<div class = centerbox><div  id = stim2></div></div>","32","32","750","","test","go","207","random","","",""
"","299","32","1482","0","test_block","poldrack-single-stim","222","319218","0.0-5.0-208.0","go-nogo","true","0","","true","<div class = centerbox><div  id = stim2></div></div>","32","32","750","","test","go","208","random","","",""
"","341","32","1066","0","test_block","poldrack-single-stim","223","320320","0.0-5.0-209.0","go-nogo","true","0","","true","<div class = centerbox><div  id = stim2></div></div>","32","32","750","","test","go","209","random","","",""
"","-1","-1","1003","0","test_block","poldrack-single-stim","224","321361","0.0-5.0-210.0","go-nogo","true","0","","true","<div class = centerbox><div  id = stim1></div></div>","-1","32","750","","test","nogo","210","random","","",""
"","318","32","1448","0","test_block","poldrack-single-stim","225","322846","0.0-5.0-211.0","go-nogo","true","0","","true","<div class = centerbox><div  id = stim2></div></div>","32","32","750","","test","go","211","random","","",""
"","280","32","1357","0","test_block","poldrack-single-stim","226","324242","0.0-5.0-212.0","go-nogo","true","0","","true","<div class = centerbox><div  id = stim2></div></div>","32","32","750","","test","go","212","random","","",""
"","-1","-1","1135","0","test_block","poldrack-single-stim","227","325414","0.0-5.0-213.0","go-nogo","true","0","","true","<div class = centerbox><div  id = stim1></div></div>","-1","32","750","","test","nogo","213","random","","",""
"","309","32","1113","0","test_block","poldrack-single-stim","228","326568","0.0-5.0-214.0","go-nogo","true","0","","true","<div class = centerbox><div  id = stim2></div></div>","32","32","750","","test","go","214","random","","",""
"","349","32","1368","0","test_block","poldrack-single-stim","229","327974","0.0-5.0-215.0","go-nogo","true","0","","true","<div class = centerbox><div  id = stim2></div></div>","32","32","750","","test","go","215","random","","",""
"","665","32","1441","0","test_block","poldrack-single-stim","230","329452","0.0-5.0-216.0","go-nogo","true","0","","true","<div class = centerbox><div  id = stim2></div></div>","32","32","750","","test","go","216","random","","",""
"","306","32","1335","0","test_block","poldrack-single-stim","231","330824","0.0-5.0-217.0","go-nogo","true","0","","true","<div class = centerbox><div  id = stim2></div></div>","32","32","750","","test","go","217","random","","",""
"","317","32","1479","0","test_block","poldrack-single-stim","232","332358","0.0-5.0-218.0","go-nogo","true","0","","true","<div class = centerbox><div  id = stim2></div></div>","32","32","750","","test","go","218","random","","",""
"","304","32","1048","0","test_block","poldrack-single-stim","233","333444","0.0-5.0-219.0","go-nogo","true","0","","true","<div class = centerbox><div  id = stim2></div></div>","32","32","750","","test","go","219","random","","",""
"","-1","-1","1327","0","test_block","poldrack-single-stim","234","334811","0.0-5.0-220.0","go-nogo","true","0","","true","<div class = centerbox><div  id = stim1></div></div>","-1","32","750","","test","nogo","220","random","","",""
"","473","32","1208","0","test_block","poldrack-single-stim","235","336075","0.0-5.0-221.0","go-nogo","true","0","","true","<div class = centerbox><div  id = stim2></div></div>","32","32","750","","test","go","221","random","","",""
"","315","32","1440","0","test_block","poldrack-single-stim","236","337553","0.0-5.0-222.0","go-nogo","true","0","","true","<div class = centerbox><div  id = stim2></div></div>","32","32","750","","test","go","222","random","","",""
"","311","32","1228","0","test_block","poldrack-single-stim","237","338817","0.0-5.0-223.0","go-nogo","true","0","","true","<div class = centerbox><div  id = stim2></div></div>","32","32","750","","test","go","223","random","","",""
"","332","32","1154","0","test_block","poldrack-single-stim","238","340026","0.0-5.0-224.0","go-nogo","true","0","","true","<div class = centerbox><div  id = stim2></div></div>","32","32","750","","test","go","224","random","","",""
"","272","32","1152","0","test_block","poldrack-single-stim","239","341212","0.0-5.0-225.0","go-nogo","true","0","","true","<div class = centerbox><div  id = stim2></div></div>","32","32","750","","test","go","225","random","","",""
"","352","32","1368","0","test_block","poldrack-single-stim","240","342619","0.0-5.0-226.0","go-nogo","true","0","","true","<div class = centerbox><div  id = stim2></div></div>","32","32","750","","test","go","226","random","","",""
"","404","32","1270","0","test_block","poldrack-single-stim","241","343926","0.0-5.0-227.0","go-nogo","true","0","","true","<div class = centerbox><div  id = stim2></div></div>","32","32","750","","test","go","227","random","","",""
"","295","32","1239","0","test_block","poldrack-single-stim","242","345205","0.0-5.0-228.0","go-nogo","true","0","","true","<div class = centerbox><div  id = stim2></div></div>","32","32","750","","test","go","228","random","","",""
"","301","32","1214","0","test_block","poldrack-single-stim","243","346460","0.0-5.0-229.0","go-nogo","true","0","","true","<div class = centerbox><div  id = stim2></div></div>","32","32","750","","test","go","229","random","","",""
"","165","32","1288","0","test_block","poldrack-single-stim","244","347783","0.0-5.0-230.0","go-nogo","true","0","","true","<div class = centerbox><div  id = stim2></div></div>","32","32","750","","test","go","230","random","","",""
"","530","32","1273","0","test_block","poldrack-single-stim","245","349091","0.0-5.0-231.0","go-nogo","true","0","","true","<div class = centerbox><div  id = stim2></div></div>","32","32","750","","test","go","231","random","","",""
"","285","32","1451","0","test_block","poldrack-single-stim","246","350577","0.0-5.0-232.0","go-nogo","true","0","","true","<div class = centerbox><div  id = stim2></div></div>","32","32","750","","test","go","232","random","","",""
"","157","32","1159","0","test_block","poldrack-single-stim","247","351774","0.0-5.0-233.0","go-nogo","true","0","","true","<div class = centerbox><div  id = stim2></div></div>","32","32","750","","test","go","233","random","","",""
"","448","32","1298","0","test_block","poldrack-single-stim","248","353127","0.0-5.0-234.0","go-nogo","true","0","","true","<div class = centerbox><div  id = stim2></div></div>","32","32","750","","test","go","234","random","","",""
"","507","32","1335","0","test_block","poldrack-single-stim","249","354496","0.0-5.0-235.0","go-nogo","true","0","","true","<div class = centerbox><div  id = stim2></div></div>","32","32","750","","test","go","235","random","","",""
"","567","32","1483","0","test_block","poldrack-single-stim","250","356031","0.0-5.0-236.0","go-nogo","true","0","","true","<div class = centerbox><div  id = stim2></div></div>","32","32","750","","test","go","236","random","","",""
"","530","32","1260","0","test_block","poldrack-single-stim","251","357326","0.0-5.0-237.0","go-nogo","true","0","","true","<div class = centerbox><div  id = stim2></div></div>","32","32","750","","test","go","237","random","","",""
"","569","32","1253","0","test_block","poldrack-single-stim","252","358623","0.0-5.0-238.0","go-nogo","true","0","","true","<div class = centerbox><div  id = stim2></div></div>","32","32","750","","test","go","238","random","","",""
"","533","32","1164","0","test_block","poldrack-single-stim","253","359843","0.0-5.0-239.0","go-nogo","true","0","","true","<div class = centerbox><div  id = stim2></div></div>","32","32","750","","test","go","239","random","","",""
"","419","32","1077","0","test_block","poldrack-single-stim","254","360957","0.0-5.0-240.0","go-nogo","true","0","","true","<div class = centerbox><div  id = stim2></div></div>","32","32","750","","test","go","240","random","","",""
"","642","32","1320","0","test_block","poldrack-single-stim","255","362328","0.0-5.0-241.0","go-nogo","true","0","","true","<div class = centerbox><div  id = stim2></div></div>","32","32","750","","test","go","241","random","","",""
"","470","32","1250","0","test_block","poldrack-single-stim","256","363614","0.0-5.0-242.0","go-nogo","true","0","","true","<div class = centerbox><div  id = stim2></div></div>","32","32","750","","test","go","242","random","","",""
"","372","32","1005","0","test_block","poldrack-single-stim","257","364661","0.0-5.0-243.0","go-nogo","true","0","","true","<div class = centerbox><div  id = stim2></div></div>","32","32","750","","test","go","243","random","","",""
"","399","32","1339","0","test_block","poldrack-single-stim","258","366040","0.0-5.0-244.0","go-nogo","true","0","","true","<div class = centerbox><div  id = stim2></div></div>","32","32","750","","test","go","244","random","","",""
"","309","32","1459","0","test_block","poldrack-single-stim","259","367537","0.0-5.0-245.0","go-nogo","true","0","","true","<div class = centerbox><div  id = stim2></div></div>","32","32","750","","test","go","245","random","","",""
"","336","32","1211","0","test_block","poldrack-single-stim","260","368806","0.0-5.0-246.0","go-nogo","true","0","","true","<div class = centerbox><div  id = stim2></div></div>","32","32","750","","test","go","246","random","","",""
"","347","32","1134","0","test_block","poldrack-single-stim","261","369976","0.0-5.0-247.0","go-nogo","true","0","","true","<div class = centerbox><div  id = stim2></div></div>","32","32","750","","test","go","247","random","","",""
"","392","32","1017","0","test_block","poldrack-single-stim","262","371030","0.0-5.0-248.0","go-nogo","true","0","","true","<div class = centerbox><div  id = stim2></div></div>","32","32","750","","test","go","248","random","","",""
"","363","32","1220","0","test_block","poldrack-single-stim","263","372286","0.0-5.0-249.0","go-nogo","true","0","","true","<div class = centerbox><div  id = stim2></div></div>","32","32","750","","test","go","249","random","","",""
"","311","32","1227","0","test_block","poldrack-single-stim","264","373551","0.0-5.0-250.0","go-nogo","true","0","","true","<div class = centerbox><div  id = stim2></div></div>","32","32","750","","test","go","250","random","","",""
"","304","32","1308","0","test_block","poldrack-single-stim","265","374897","0.0-5.0-251.0","go-nogo","true","0","","true","<div class = centerbox><div  id = stim2></div></div>","32","32","750","","test","go","251","random","","",""
"","310","32","1072","0","test_block","poldrack-single-stim","266","376006","0.0-5.0-252.0","go-nogo","true","0","","false","<div class = centerbox><div  id = stim1></div></div>","-1","32","750","","test","nogo","252","random","","",""
"","408","32","1051","0","test_block","poldrack-single-stim","267","377096","0.0-5.0-253.0","go-nogo","true","0","","true","<div class = centerbox><div  id = stim2></div></div>","32","32","750","","test","go","253","random","","",""
"","334","32","1235","0","test_block","poldrack-single-stim","268","378384","0.0-5.0-254.0","go-nogo","true","0","","true","<div class = centerbox><div  id = stim2></div></div>","32","32","750","","test","go","254","random","","",""
"","335","32","1272","0","test_block","poldrack-single-stim","269","379691","0.0-5.0-255.0","go-nogo","true","0","","true","<div class = centerbox><div  id = stim2></div></div>","32","32","750","","test","go","255","random","","",""
"","300","32","1318","0","test_block","poldrack-single-stim","270","381062","0.0-5.0-256.0","go-nogo","true","0","","false","<div class = centerbox><div  id = stim1></div></div>","-1","32","750","","test","nogo","256","random","","",""
"","317","32","1492","0","test_block","poldrack-single-stim","271","382595","0.0-5.0-257.0","go-nogo","true","0","","true","<div class = centerbox><div  id = stim2></div></div>","32","32","750","","test","go","257","random","","",""
"","934","32","1386","0","test_block","poldrack-single-stim","272","384022","0.0-5.0-258.0","go-nogo","true","0","","true","<div class = centerbox><div  id = stim2></div></div>","32","32","750","","test","go","258","random","","",""
"","355","32","1183","0","test_block","poldrack-single-stim","273","385247","0.0-5.0-259.0","go-nogo","true","0","","true","<div class = centerbox><div  id = stim2></div></div>","32","32","750","","test","go","259","random","","",""
"","292","32","1387","0","test_block","poldrack-single-stim","274","386675","0.0-5.0-260.0","go-nogo","true","0","","true","<div class = centerbox><div  id = stim2></div></div>","32","32","750","","test","go","260","random","","",""
"","307","32","1033","0","test_block","poldrack-single-stim","275","387763","0.0-5.0-261.0","go-nogo","true","0","","true","<div class = centerbox><div  id = stim2></div></div>","32","32","750","","test","go","261","random","","",""
"","317","32","1123","0","test_block","poldrack-single-stim","276","388947","0.0-5.0-262.0","go-nogo","true","0","","true","<div class = centerbox><div  id = stim2></div></div>","32","32","750","","test","go","262","random","","",""
"","276","32","1225","0","test_block","poldrack-single-stim","277","390210","0.0-5.0-263.0","go-nogo","true","0","","true","<div class = centerbox><div  id = stim2></div></div>","32","32","750","","test","go","263","random","","",""
"","398","32","1103","0","test_block","poldrack-single-stim","278","391348","0.0-5.0-264.0","go-nogo","true","0","","true","<div class = centerbox><div  id = stim2></div></div>","32","32","750","","test","go","264","random","","",""
"","478","32","1073","0","test_block","poldrack-single-stim","279","392463","0.0-5.0-265.0","go-nogo","true","0","","true","<div class = centerbox><div  id = stim2></div></div>","32","32","750","","test","go","265","random","","",""
"","373","32","1111","0","test_block","poldrack-single-stim","280","393612","0.0-5.0-266.0","go-nogo","true","0","","true","<div class = centerbox><div  id = stim2></div></div>","32","32","750","","test","go","266","random","","",""
"","416","32","1491","0","test_block","poldrack-single-stim","281","395143","0.0-5.0-267.0","go-nogo","true","0","","true","<div class = centerbox><div  id = stim2></div></div>","32","32","750","","test","go","267","random","","",""
"","384","32","1049","0","test_block","poldrack-single-stim","282","396228","0.0-5.0-268.0","go-nogo","true","0","","true","<div class = centerbox><div  id = stim2></div></div>","32","32","750","","test","go","268","random","","",""
"","377","32","1125","0","test_block","poldrack-single-stim","283","397391","0.0-5.0-269.0","go-nogo","true","0","","true","<div class = centerbox><div  id = stim2></div></div>","32","32","750","","test","go","269","random","","",""
"","378","32","1161","0","test_block","poldrack-single-stim","284","398587","0.0-5.0-270.0","go-nogo","true","0","","true","<div class = centerbox><div  id = stim2></div></div>","32","32","750","","test","go","270","random","","",""
"","313","32","1003","0","test_block","poldrack-single-stim","285","399630","0.0-5.0-271.0","go-nogo","true","0","","true","<div class = centerbox><div  id = stim2></div></div>","32","32","750","","test","go","271","random","","",""
"","365","32","1480","0","test_block","poldrack-single-stim","286","401149","0.0-5.0-272.0","go-nogo","true","0","","true","<div class = centerbox><div  id = stim2></div></div>","32","32","750","","test","go","272","random","","",""
"","392","32","1422","0","test_block","poldrack-single-stim","287","402610","0.0-5.0-273.0","go-nogo","true","0","","true","<div class = centerbox><div  id = stim2></div></div>","32","32","750","","test","go","273","random","","",""
"","321","32","1248","0","test_block","poldrack-single-stim","288","403915","0.0-5.0-274.0","go-nogo","true","0","","true","<div class = centerbox><div  id = stim2></div></div>","32","32","750","","test","go","274","random","","",""
"","322","32","1181","0","test_block","poldrack-single-stim","289","405135","0.0-5.0-275.0","go-nogo","true","0","","true","<div class = centerbox><div  id = stim2></div></div>","32","32","750","","test","go","275","random","","",""
"","-1","-1","1494","0","test_block","poldrack-single-stim","290","406663","0.0-5.0-276.0","go-nogo","true","0","","true","<div class = centerbox><div  id = stim1></div></div>","-1","32","750","","test","nogo","276","random","","",""
"","356","32","1499","0","test_block","poldrack-single-stim","291","408218","0.0-5.0-277.0","go-nogo","true","0","","true","<div class = centerbox><div  id = stim2></div></div>","32","32","750","","test","go","277","random","","",""
"","309","32","1230","0","test_block","poldrack-single-stim","292","409485","0.0-5.0-278.0","go-nogo","true","0","","true","<div class = centerbox><div  id = stim2></div></div>","32","32","750","","test","go","278","random","","",""
"","-1","-1","1271","0","test_block","poldrack-single-stim","293","410817","0.0-5.0-279.0","go-nogo","true","0","","true","<div class = centerbox><div  id = stim1></div></div>","-1","32","750","","test","nogo","279","random","","",""
"","374","32","1487","0","test_block","poldrack-single-stim","294","412341","0.0-5.0-280.0","go-nogo","true","0","","true","<div class = centerbox><div  id = stim2></div></div>","32","32","750","","test","go","280","random","","",""
"","402","32","1327","0","test_block","poldrack-single-stim","295","413706","0.0-5.0-281.0","go-nogo","true","0","","true","<div class = centerbox><div  id = stim2></div></div>","32","32","750","","test","go","281","random","","",""
"","345","32","1233","0","test_block","poldrack-single-stim","296","414996","0.0-5.0-282.0","go-nogo","true","0","","true","<div class = centerbox><div  id = stim2></div></div>","32","32","750","","test","go","282","random","","",""
"","352","32","1271","0","test_block","poldrack-single-stim","297","416307","0.0-5.0-283.0","go-nogo","true","0","","true","<div class = centerbox><div  id = stim2></div></div>","32","32","750","","test","go","283","random","","",""
"","296","32","1125","0","test_block","poldrack-single-stim","298","417473","0.0-5.0-284.0","go-nogo","true","0","","true","<div class = centerbox><div  id = stim2></div></div>","32","32","750","","test","go","284","random","","",""
"","-1","-1","1078","0","test_block","poldrack-single-stim","299","418605","0.0-5.0-285.0","go-nogo","true","0","","true","<div class = centerbox><div  id = stim1></div></div>","-1","32","750","","test","nogo","285","random","","",""
"","302","32","1318","0","test_block","poldrack-single-stim","300","419980","0.0-5.0-286.0","go-nogo","true","0","","true","<div class = centerbox><div  id = stim2></div></div>","32","32","750","","test","go","286","random","","",""
"","324","32","1330","0","test_block","poldrack-single-stim","301","421370","0.0-5.0-287.0","go-nogo","true","0","","true","<div class = centerbox><div  id = stim2></div></div>","32","32","750","","test","go","287","random","","",""
"","-1","-1","1121","0","test_block","poldrack-single-stim","302","422535","0.0-5.0-288.0","go-nogo","true","0","","true","<div class = centerbox><div  id = stim1></div></div>","-1","32","750","","test","nogo","288","random","","",""
"","316","32","1379","0","test_block","poldrack-single-stim","303","423971","0.0-5.0-289.0","go-nogo","true","0","","true","<div class = centerbox><div  id = stim2></div></div>","32","32","750","","test","go","289","random","","",""
"","397","32","1390","0","test_block","poldrack-single-stim","304","425397","0.0-5.0-290.0","go-nogo","true","0","","true","<div class = centerbox><div  id = stim2></div></div>","32","32","750","","test","go","290","random","","",""
"","323","32","1085","0","test_block","poldrack-single-stim","305","426517","0.0-5.0-291.0","go-nogo","true","0","","true","<div class = centerbox><div  id = stim2></div></div>","32","32","750","","test","go","291","random","","",""
"","328","32","1362","0","test_block","poldrack-single-stim","306","427934","0.0-5.0-292.0","go-nogo","true","0","","true","<div class = centerbox><div  id = stim2></div></div>","32","32","750","","test","go","292","random","","",""
"","319","32","1127","0","test_block","poldrack-single-stim","307","429099","0.0-5.0-293.0","go-nogo","true","0","","true","<div class = centerbox><div  id = stim2></div></div>","32","32","750","","test","go","293","random","","",""
"","317","32","1285","0","test_block","poldrack-single-stim","308","430420","0.0-5.0-294.0","go-nogo","true","0","","true","<div class = centerbox><div  id = stim2></div></div>","32","32","750","","test","go","294","random","","",""
"","419","32","1340","0","test_block","poldrack-single-stim","309","431795","0.0-5.0-295.0","go-nogo","true","0","","true","<div class = centerbox><div  id = stim2></div></div>","32","32","750","","test","go","295","random","","",""
"","430","32","1013","0","test_block","poldrack-single-stim","310","432867","0.0-5.0-296.0","go-nogo","true","0","","true","<div class = centerbox><div  id = stim2></div></div>","32","32","750","","test","go","296","random","","",""
"","333","32","1061","0","test_block","poldrack-single-stim","311","433988","0.0-5.0-297.0","go-nogo","true","0","","true","<div class = centerbox><div  id = stim2></div></div>","32","32","750","","test","go","297","random","","",""
"","309","32","1333","0","test_block","poldrack-single-stim","312","435356","0.0-5.0-298.0","go-nogo","true","0","","true","<div class = centerbox><div  id = stim2></div></div>","32","32","750","","test","go","298","random","","",""
"","321","32","1077","0","test_block","poldrack-single-stim","313","436488","0.0-5.0-299.0","go-nogo","true","0","","true","<div class = centerbox><div  id = stim2></div></div>","32","32","750","","test","go","299","random","","",""
"","299","32","1263","0","test_block","poldrack-single-stim","314","437799","0.0-5.0-300.0","go-nogo","true","0","","true","<div class = centerbox><div  id = stim2></div></div>","32","32","750","","test","go","300","random","","",""
"","150","32","1322","0","test_block","poldrack-single-stim","315","439176","0.0-5.0-301.0","go-nogo","true","0","","true","<div class = centerbox><div  id = stim2></div></div>","32","32","750","","test","go","301","random","","",""
"","142","32","1196","0","test_block","poldrack-single-stim","316","440426","0.0-5.0-302.0","go-nogo","true","0","","true","<div class = centerbox><div  id = stim2></div></div>","32","32","750","","test","go","302","random","","",""
"","685","32","1234","0","test_block","poldrack-single-stim","317","441697","0.0-5.0-303.0","go-nogo","true","0","","true","<div class = centerbox><div  id = stim2></div></div>","32","32","750","","test","go","303","random","","",""
"","319","32","1350","0","test_block","poldrack-single-stim","318","443107","0.0-5.0-304.0","go-nogo","true","0","","true","<div class = centerbox><div  id = stim2></div></div>","32","32","750","","test","go","304","random","","",""
"","5","32","1287","0","test_block","poldrack-single-stim","319","444428","0.0-5.0-305.0","go-nogo","true","0","","true","<div class = centerbox><div  id = stim2></div></div>","32","32","750","","test","go","305","random","","",""
"","342","32","1088","0","test_block","poldrack-single-stim","320","445558","0.0-5.0-306.0","go-nogo","true","0","","true","<div class = centerbox><div  id = stim2></div></div>","32","32","750","","test","go","306","random","","",""
"","306","32","1424","0","test_block","poldrack-single-stim","321","447018","0.0-5.0-307.0","go-nogo","true","0","","true","<div class = centerbox><div  id = stim2></div></div>","32","32","750","","test","go","307","random","","",""
"","157","32","1346","0","test_block","poldrack-single-stim","322","448401","0.0-5.0-308.0","go-nogo","true","0","","true","<div class = centerbox><div  id = stim2></div></div>","32","32","750","","test","go","308","random","","",""
"","347","32","1365","0","test_block","poldrack-single-stim","323","449805","0.0-5.0-309.0","go-nogo","true","0","","true","<div class = centerbox><div  id = stim2></div></div>","32","32","750","","test","go","309","random","","",""
"","53","32","1050","0","test_block","poldrack-single-stim","324","450912","0.0-5.0-310.0","go-nogo","true","0","","true","<div class = centerbox><div  id = stim2></div></div>","32","32","750","","test","go","310","random","","",""
"","334","32","1371","0","test_block","poldrack-single-stim","325","452345","0.0-5.0-311.0","go-nogo","true","0","","true","<div class = centerbox><div  id = stim2></div></div>","32","32","750","","test","go","311","random","","",""
"","309","32","1387","0","test_block","poldrack-single-stim","326","453770","0.0-5.0-312.0","go-nogo","true","0","","false","<div class = centerbox><div  id = stim1></div></div>","-1","32","750","","test","nogo","312","random","","",""
"","321","32","1146","0","test_block","poldrack-single-stim","327","454957","0.0-5.0-313.0","go-nogo","true","0","","true","<div class = centerbox><div  id = stim2></div></div>","32","32","750","","test","go","313","random","","",""
"","321","32","1217","0","test_block","poldrack-single-stim","328","456211","0.0-5.0-314.0","go-nogo","true","0","","true","<div class = centerbox><div  id = stim2></div></div>","32","32","750","","test","go","314","random","","",""
"","298","32","1469","0","test_block","poldrack-single-stim","329","457728","0.0-5.0-315.0","go-nogo","true","0","","true","<div class = centerbox><div  id = stim2></div></div>","32","32","750","","test","go","315","random","","",""
"","117","32","1393","0","test_block","poldrack-single-stim","330","459183","0.0-5.0-316.0","go-nogo","true","0","","true","<div class = centerbox><div  id = stim2></div></div>","32","32","750","","test","go","316","random","","",""
"","340","32","1137","0","test_block","poldrack-single-stim","331","460361","0.0-5.0-317.0","go-nogo","true","0","","true","<div class = centerbox><div  id = stim2></div></div>","32","32","750","","test","go","317","random","","",""
"","334","32","1181","0","test_block","poldrack-single-stim","332","461579","0.0-5.0-318.0","go-nogo","true","0","","true","<div class = centerbox><div  id = stim2></div></div>","32","32","750","","test","go","318","random","","",""
"","305","32","1082","0","test_block","poldrack-single-stim","333","462717","0.0-5.0-319.0","go-nogo","true","0","","true","<div class = centerbox><div  id = stim2></div></div>","32","32","750","","test","go","319","random","","",""
"","349","32","1148","0","test_block","poldrack-single-stim","334","463907","0.0-5.0-320.0","go-nogo","true","0","","true","<div class = centerbox><div  id = stim2></div></div>","32","32","750","","test","go","320","random","","",""
"","322","32","1095","0","test_block","poldrack-single-stim","335","465041","0.0-5.0-321.0","go-nogo","true","0","","true","<div class = centerbox><div  id = stim2></div></div>","32","32","750","","test","go","321","random","","",""
"","294","32","1478","0","test_block","poldrack-single-stim","336","466555","0.0-5.0-322.0","go-nogo","true","0","","true","<div class = centerbox><div  id = stim2></div></div>","32","32","750","","test","go","322","random","","",""
"","-1","-1","1141","0","test_block","poldrack-single-stim","337","467736","0.0-5.0-323.0","go-nogo","true","0","","true","<div class = centerbox><div  id = stim1></div></div>","-1","32","750","","test","nogo","323","random","","",""
"","369","32","1097","0","test_block","poldrack-single-stim","338","468868","0.0-5.0-324.0","go-nogo","true","0","","true","<div class = centerbox><div  id = stim2></div></div>","32","32","750","","test","go","324","random","","",""
"","462","32","1158","0","test_block","poldrack-single-stim","339","470083","0.0-5.0-325.0","go-nogo","true","0","","true","<div class = centerbox><div  id = stim2></div></div>","32","32","750","","test","go","325","random","","",""
"","-1","-1","1061","0","test_block","poldrack-single-stim","340","471198","0.0-5.0-326.0","go-nogo","true","0","","true","<div class = centerbox><div  id = stim1></div></div>","-1","32","750","","test","nogo","326","random","","",""
"","343","32","1017","0","test_block","poldrack-single-stim","341","472253","0.0-5.0-327.0","go-nogo","true","0","","true","<div class = centerbox><div  id = stim2></div></div>","32","32","750","","test","go","327","random","","",""
"","396","32","1340","0","test_block","poldrack-single-stim","342","473636","0.0-5.0-328.0","go-nogo","true","0","","true","<div class = centerbox><div  id = stim2></div></div>","32","32","750","","test","go","328","random","","",""
"","302","32","1298","0","test_block","poldrack-single-stim","343","474975","0.0-5.0-329.0","go-nogo","true","0","","true","<div class = centerbox><div  id = stim2></div></div>","32","32","750","","test","go","329","random","","",""
"","311","32","1236","0","test_block","poldrack-single-stim","344","476248","0.0-5.0-330.0","go-nogo","true","0","","true","<div class = centerbox><div  id = stim2></div></div>","32","32","750","","test","go","330","random","","",""
"","313","32","1417","0","test_block","poldrack-single-stim","345","477700","0.0-5.0-331.0","go-nogo","true","0","","true","<div class = centerbox><div  id = stim2></div></div>","32","32","750","","test","go","331","random","","",""
"","314","32","1422","0","test_block","poldrack-single-stim","346","479159","0.0-5.0-332.0","go-nogo","true","0","","true","<div class = centerbox><div  id = stim2></div></div>","32","32","750","","test","go","332","random","","",""
"","351","32","1279","0","test_block","poldrack-single-stim","347","480475","0.0-5.0-333.0","go-nogo","true","0","","true","<div class = centerbox><div  id = stim2></div></div>","32","32","750","","test","go","333","random","","",""
"","338","32","1455","0","test_block","poldrack-single-stim","348","481968","0.0-5.0-334.0","go-nogo","true","0","","true","<div class = centerbox><div  id = stim2></div></div>","32","32","750","","test","go","334","random","","",""
"","296","32","1253","0","test_block","poldrack-single-stim","349","483273","0.0-5.0-335.0","go-nogo","true","0","","true","<div class = centerbox><div  id = stim2></div></div>","32","32","750","","test","go","335","random","","",""
"","-1","-1","1254","0","test_block","poldrack-single-stim","350","484562","0.0-5.0-336.0","go-nogo","true","0","","true","<div class = centerbox><div  id = stim1></div></div>","-1","32","750","","test","nogo","336","random","","",""
"","345","32","1301","0","test_block","poldrack-single-stim","351","485920","0.0-5.0-337.0","go-nogo","true","0","","true","<div class = centerbox><div  id = stim2></div></div>","32","32","750","","test","go","337","random","","",""
"","340","32","1419","0","test_block","poldrack-single-stim","352","487404","0.0-5.0-338.0","go-nogo","true","0","","true","<div class = centerbox><div  id = stim2></div></div>","32","32","750","","test","go","338","random","","",""
"","333","32","1437","0","test_block","poldrack-single-stim","353","488900","0.0-5.0-339.0","go-nogo","true","0","","true","<div class = centerbox><div  id = stim2></div></div>","32","32","750","","test","go","339","random","","",""
"","345","32","1237","0","test_block","poldrack-single-stim","354","490175","0.0-5.0-340.0","go-nogo","true","0","","true","<div class = centerbox><div  id = stim2></div></div>","32","32","750","","test","go","340","random","","",""
"","313","32","1382","0","test_block","poldrack-single-stim","355","491594","0.0-5.0-341.0","go-nogo","true","0","","true","<div class = centerbox><div  id = stim2></div></div>","32","32","750","","test","go","341","random","","",""
"","18","32","1416","0","test_block","poldrack-single-stim","356","493049","0.0-5.0-342.0","go-nogo","true","0","","true","<div class = centerbox><div  id = stim2></div></div>","32","32","750","","test","go","342","random","","",""
"","-1","-1","1357","0","test_block","poldrack-single-stim","357","494443","0.0-5.0-343.0","go-nogo","true","0","","true","<div class = centerbox><div  id = stim1></div></div>","-1","32","750","","test","nogo","343","random","","",""
"","275","32","1483","0","test_block","poldrack-single-stim","358","495965","0.0-5.0-344.0","go-nogo","true","0","","true","<div class = centerbox><div  id = stim2></div></div>","32","32","750","","test","go","344","random","","",""
"","370","32","1273","0","test_block","poldrack-single-stim","359","497274","0.0-5.0-345.0","go-nogo","true","0","","true","<div class = centerbox><div  id = stim2></div></div>","32","32","750","","test","go","345","random","","",""
"","352","32","1313","0","test_block","poldrack-single-stim","360","498622","0.0-5.0-346.0","go-nogo","true","0","","true","<div class = centerbox><div  id = stim2></div></div>","32","32","750","","test","go","346","random","","",""
"","468","32","1468","0","test_block","poldrack-single-stim","361","500132","0.0-5.0-347.0","go-nogo","true","0","","true","<div class = centerbox><div  id = stim2></div></div>","32","32","750","","test","go","347","random","","",""
"","335","32","1261","0","test_block","poldrack-single-stim","362","501450","0.0-5.0-348.0","go-nogo","true","0","","true","<div class = centerbox><div  id = stim2></div></div>","32","32","750","","test","go","348","random","","",""
"","318","32","1093","0","test_block","poldrack-single-stim","363","502578","0.0-5.0-349.0","go-nogo","true","0","","true","<div class = centerbox><div  id = stim2></div></div>","32","32","750","","test","go","349","random","","",""
"","108725","","","","post task questions","survey-text","364","611352","0.0-7.0","go-nogo","true","0","","","","","","","","","","","","{""Q0"":""if i see the blue color box,click the space par button if i see the orange color box click the the is no click"",""Q1"":""nothing""}","",""
"<div class = centerbox><p class = center-block-text>Thanks for completing this task!</p><p class = center-block-text>Insert the following code to collect your payment at Amazon Mechanical Turk:</p><p class = center-block-text>760147317</p><p class = center-block-text>Press <strong>enter</strong> to continue.</p></div>","19153","13","19153","0","end","poldrack-text","365","631508","0.0-8.0","go-nogo","true","2","","","","","","","","","","","","","760147317","true"
