"text","rt","key_press","block_duration","timing_post_trial","trial_id","trial_type","trial_index","time_elapsed","internal_node_id","exp_id","full_screen","focus_shifts","view_history","correct","stimulus","correct_response","possible_responses","stim_duration","feedback_duration","exp_stage","condition","trial_num","mode","responses","payment_id","credit_var"
"<div class = centerbox><p class = center-block-text>Welcome to the experiment. This task will take around 10 minutes. Press <strong>enter</strong> to begin.</p></div>","4718","13","4718","0","instruction","poldrack-text","0","4720","0.0-0.0-0.0","go-nogo","true","0","","","","","","","","","","","","","",""
"","12463","","","","instruction","poldrack-instructions","1","17183","0.0-0.0-1.0","go-nogo","true","0","[{""page_index"":0,""viewing_time"":12462}]","","","","","","","","","","","","",""
"","-1","-1","1189","250","practice","poldrack-categorize","2","20398","0.0-1.0-0.0","go-nogo","true","0","","true","<div class = centerbox><div id = stim1></div></div>","-1","32","750","1000","practice","nogo","0","random","","",""
"","346","32","1297","250","practice","poldrack-categorize","3","22967","0.0-1.0-1.0","go-nogo","true","0","","true","<div class = centerbox><div  id = stim2></div></div>","32","32","750","1000","practice","go","1","random","","",""
"","-1","-1","1070","250","practice","poldrack-categorize","4","25306","0.0-1.0-2.0","go-nogo","true","0","","true","<div class = centerbox><div id = stim1></div></div>","-1","32","750","1000","practice","nogo","2","random","","",""
"","270","32","1174","250","practice","poldrack-categorize","5","27754","0.0-1.0-3.0","go-nogo","true","0","","true","<div class = centerbox><div  id = stim2></div></div>","32","32","750","1000","practice","go","3","random","","",""
"","-1","-1","1458","250","practice","poldrack-categorize","6","30483","0.0-1.0-4.0","go-nogo","true","0","","true","<div class = centerbox><div id = stim1></div></div>","-1","32","750","1000","practice","nogo","4","random","","",""
"","353","32","1340","250","practice","poldrack-categorize","7","33103","0.0-1.0-5.0","go-nogo","true","0","","true","<div class = centerbox><div  id = stim2></div></div>","32","32","750","1000","practice","go","5","random","","",""
"","-1","-1","1113","250","practice","poldrack-categorize","8","35481","0.0-1.0-6.0","go-nogo","true","0","","true","<div class = centerbox><div id = stim1></div></div>","-1","32","750","1000","practice","nogo","6","random","","",""
"","-1","-1","1076","250","practice","poldrack-categorize","9","37827","0.0-1.0-7.0","go-nogo","true","0","","true","<div class = centerbox><div id = stim1></div></div>","-1","32","750","1000","practice","nogo","7","random","","",""
"","275","32","1008","250","practice","poldrack-categorize","10","40103","0.0-1.0-8.0","go-nogo","true","0","","true","<div class = centerbox><div  id = stim2></div></div>","32","32","750","1000","practice","go","8","random","","",""
"","325","32","1318","250","practice","poldrack-categorize","11","42683","0.0-1.0-9.0","go-nogo","true","0","","true","<div class = centerbox><div  id = stim2></div></div>","32","32","750","1000","practice","go","9","random","","",""
"","","","","","reset_trial","call-function","12","42942","0.0-3.0","go-nogo","true","0","","","","","","","","","","","","","",""
"<div class = centerbox><p class = block-text>Practice is over, we will now begin the experiment. You will no longer get feedback about your responses.</p><p class = block-text>Remember, if you see the <font color=""blue"">blue</font> square you should <strong> respond by pressing the spacebar as quickly as possible</strong>. If you see the <font color=""orange"">orange</font> square you should <strong> not respond</strong>. Press <strong>enter</strong> to begin.</p></div>","5736","13","5736","1000","test_intro","poldrack-text","13","48681","0.0-4.0","go-nogo","true","0","","","","","","","","","","","","","",""
"","497","32","1018","0","test_block","poldrack-single-stim","14","50712","0.0-5.0-0.0","go-nogo","true","0","","true","<div class = centerbox><div  id = stim2></div></div>","32","32","750","","test","go","0","random","","",""
"","250","32","1269","0","test_block","poldrack-single-stim","15","52084","0.0-5.0-1.0","go-nogo","true","0","","true","<div class = centerbox><div  id = stim2></div></div>","32","32","750","","test","go","1","random","","",""
"","228","32","1463","0","test_block","poldrack-single-stim","16","53597","0.0-5.0-2.0","go-nogo","true","0","","true","<div class = centerbox><div  id = stim2></div></div>","32","32","750","","test","go","2","random","","",""
"","271","32","1364","0","test_block","poldrack-single-stim","17","55006","0.0-5.0-3.0","go-nogo","true","0","","true","<div class = centerbox><div  id = stim2></div></div>","32","32","750","","test","go","3","random","","",""
"","219","32","1357","0","test_block","poldrack-single-stim","18","56410","0.0-5.0-4.0","go-nogo","true","0","","true","<div class = centerbox><div  id = stim2></div></div>","32","32","750","","test","go","4","random","","",""
"","246","32","1496","0","test_block","poldrack-single-stim","19","57950","0.0-5.0-5.0","go-nogo","true","0","","true","<div class = centerbox><div  id = stim2></div></div>","32","32","750","","test","go","5","random","","",""
"","260","32","1286","0","test_block","poldrack-single-stim","20","59306","0.0-5.0-6.0","go-nogo","true","0","","true","<div class = centerbox><div  id = stim2></div></div>","32","32","750","","test","go","6","random","","",""
"","285","32","1092","0","test_block","poldrack-single-stim","21","60448","0.0-5.0-7.0","go-nogo","true","0","","true","<div class = centerbox><div  id = stim2></div></div>","32","32","750","","test","go","7","random","","",""
"","252","32","1267","0","test_block","poldrack-single-stim","22","61765","0.0-5.0-8.0","go-nogo","true","0","","true","<div class = centerbox><div  id = stim2></div></div>","32","32","750","","test","go","8","random","","",""
"","229","32","1067","0","test_block","poldrack-single-stim","23","62885","0.0-5.0-9.0","go-nogo","true","0","","true","<div class = centerbox><div  id = stim2></div></div>","32","32","750","","test","go","9","random","","",""
"","232","32","1348","0","test_block","poldrack-single-stim","24","64275","0.0-5.0-10.0","go-nogo","true","0","","true","<div class = centerbox><div  id = stim2></div></div>","32","32","750","","test","go","10","random","","",""
"","7","32","1296","0","test_block","poldrack-single-stim","25","65615","0.0-5.0-11.0","go-nogo","true","0","","true","<div class = centerbox><div  id = stim2></div></div>","32","32","750","","test","go","11","random","","",""
"","246","32","1058","0","test_block","poldrack-single-stim","26","66712","0.0-5.0-12.0","go-nogo","true","0","","true","<div class = centerbox><div  id = stim2></div></div>","32","32","750","","test","go","12","random","","",""
"","299","32","1383","0","test_block","poldrack-single-stim","27","68136","0.0-5.0-13.0","go-nogo","true","0","","true","<div class = centerbox><div  id = stim2></div></div>","32","32","750","","test","go","13","random","","",""
"","275","32","1216","0","test_block","poldrack-single-stim","28","69383","0.0-5.0-14.0","go-nogo","true","0","","true","<div class = centerbox><div  id = stim2></div></div>","32","32","750","","test","go","14","random","","",""
"","190","32","1411","0","test_block","poldrack-single-stim","29","70825","0.0-5.0-15.0","go-nogo","true","0","","false","<div class = centerbox><div  id = stim1></div></div>","-1","32","750","","test","nogo","15","random","","",""
"","240","32","1419","0","test_block","poldrack-single-stim","30","72276","0.0-5.0-16.0","go-nogo","true","0","","true","<div class = centerbox><div  id = stim2></div></div>","32","32","750","","test","go","16","random","","",""
"","274","32","1455","0","test_block","poldrack-single-stim","31","73767","0.0-5.0-17.0","go-nogo","false","0","","true","<div class = centerbox><div  id = stim2></div></div>","32","32","750","","test","go","17","random","","",""
"","319","32","1413","0","test_block","poldrack-single-stim","32","75216","0.0-5.0-18.0","go-nogo","false","0","","true","<div class = centerbox><div  id = stim2></div></div>","32","32","750","","test","go","18","random","","",""
"","-1","-1","1382","0","test_block","poldrack-single-stim","33","76631","0.0-5.0-19.0","go-nogo","false","0","","true","<div class = centerbox><div  id = stim1></div></div>","-1","32","750","","test","nogo","19","random","","",""
"","-1","-1","1141","0","test_block","poldrack-single-stim","34","77836","0.0-5.0-20.0","go-nogo","false","0","","true","<div class = centerbox><div  id = stim1></div></div>","-1","32","750","","test","nogo","20","random","","",""
"","360","32","1432","0","test_block","poldrack-single-stim","35","79301","0.0-5.0-21.0","go-nogo","false","0","","true","<div class = centerbox><div  id = stim2></div></div>","32","32","750","","test","go","21","random","","",""
"","243","32","1269","0","test_block","poldrack-single-stim","36","80605","0.0-5.0-22.0","go-nogo","false","0","","true","<div class = centerbox><div  id = stim2></div></div>","32","32","750","","test","go","22","random","","",""
"","280","32","1185","0","test_block","poldrack-single-stim","37","81828","0.0-5.0-23.0","go-nogo","false","0","","true","<div class = centerbox><div  id = stim2></div></div>","32","32","750","","test","go","23","random","","",""
"","262","32","1376","0","test_block","poldrack-single-stim","38","83236","0.0-5.0-24.0","go-nogo","false","0","","true","<div class = centerbox><div  id = stim2></div></div>","32","32","750","","test","go","24","random","","",""
"","260","32","1123","0","test_block","poldrack-single-stim","39","84385","0.0-5.0-25.0","go-nogo","false","0","","true","<div class = centerbox><div  id = stim2></div></div>","32","32","750","","test","go","25","random","","",""
"","357","32","1407","0","test_block","poldrack-single-stim","40","85824","0.0-5.0-26.0","go-nogo","false","0","","true","<div class = centerbox><div  id = stim2></div></div>","32","32","750","","test","go","26","random","","",""
"","264","32","1045","0","test_block","poldrack-single-stim","41","86904","0.0-5.0-27.0","go-nogo","false","0","","true","<div class = centerbox><div  id = stim2></div></div>","32","32","750","","test","go","27","random","","",""
"","417","32","1266","0","test_block","poldrack-single-stim","42","88196","0.0-5.0-28.0","go-nogo","false","0","","true","<div class = centerbox><div  id = stim2></div></div>","32","32","750","","test","go","28","random","","",""
"","229","32","1331","0","test_block","poldrack-single-stim","43","89555","0.0-5.0-29.0","go-nogo","false","0","","true","<div class = centerbox><div  id = stim2></div></div>","32","32","750","","test","go","29","random","","",""
"","244","32","1173","0","test_block","poldrack-single-stim","44","90761","0.0-5.0-30.0","go-nogo","false","0","","true","<div class = centerbox><div  id = stim2></div></div>","32","32","750","","test","go","30","random","","",""
"","269","32","1372","0","test_block","poldrack-single-stim","45","92164","0.0-5.0-31.0","go-nogo","false","0","","false","<div class = centerbox><div  id = stim1></div></div>","-1","32","750","","test","nogo","31","random","","",""
"","309","32","1366","0","test_block","poldrack-single-stim","46","93564","0.0-5.0-32.0","go-nogo","false","0","","true","<div class = centerbox><div  id = stim2></div></div>","32","32","750","","test","go","32","random","","",""
"","363","32","1063","0","test_block","poldrack-single-stim","47","94654","0.0-5.0-33.0","go-nogo","false","0","","true","<div class = centerbox><div  id = stim2></div></div>","32","32","750","","test","go","33","random","","",""
"","326","32","1085","0","test_block","poldrack-single-stim","48","95770","0.0-5.0-34.0","go-nogo","false","0","","true","<div class = centerbox><div  id = stim2></div></div>","32","32","750","","test","go","34","random","","",""
"","236","32","1096","0","test_block","poldrack-single-stim","49","96900","0.0-5.0-35.0","go-nogo","false","0","","true","<div class = centerbox><div  id = stim2></div></div>","32","32","750","","test","go","35","random","","",""
"","259","32","1296","0","test_block","poldrack-single-stim","50","98230","0.0-5.0-36.0","go-nogo","false","0","","true","<div class = centerbox><div  id = stim2></div></div>","32","32","750","","test","go","36","random","","",""
"","-1","-1","1084","0","test_block","poldrack-single-stim","51","99350","0.0-5.0-37.0","go-nogo","false","0","","true","<div class = centerbox><div  id = stim1></div></div>","-1","32","750","","test","nogo","37","random","","",""
"","271","32","1096","0","test_block","poldrack-single-stim","52","100477","0.0-5.0-38.0","go-nogo","false","0","","true","<div class = centerbox><div  id = stim2></div></div>","32","32","750","","test","go","38","random","","",""
"","245","32","1226","0","test_block","poldrack-single-stim","53","101734","0.0-5.0-39.0","go-nogo","false","0","","true","<div class = centerbox><div  id = stim2></div></div>","32","32","750","","test","go","39","random","","",""
"","221","32","1127","0","test_block","poldrack-single-stim","54","102895","0.0-5.0-40.0","go-nogo","false","0","","false","<div class = centerbox><div  id = stim1></div></div>","-1","32","750","","test","nogo","40","random","","",""
"","343","32","1097","0","test_block","poldrack-single-stim","55","104022","0.0-5.0-41.0","go-nogo","false","0","","true","<div class = centerbox><div  id = stim2></div></div>","32","32","750","","test","go","41","random","","",""
"","-1","-1","1182","0","test_block","poldrack-single-stim","56","105325","0.0-5.0-42.0","go-nogo","false","1","","false","<div class = centerbox><div  id = stim2></div></div>","32","32","750","","test","go","42","random","","",""
"","-1","-1","1380","0","test_block","poldrack-single-stim","57","106743","0.0-5.0-43.0","go-nogo","false","0","","true","<div class = centerbox><div  id = stim1></div></div>","-1","32","750","","test","nogo","43","random","","",""
"","-1","-1","1199","0","test_block","poldrack-single-stim","58","107974","0.0-5.0-44.0","go-nogo","false","0","","true","<div class = centerbox><div  id = stim1></div></div>","-1","32","750","","test","nogo","44","random","","",""
"","314","32","1004","0","test_block","poldrack-single-stim","59","109011","0.0-5.0-45.0","go-nogo","false","0","","true","<div class = centerbox><div  id = stim2></div></div>","32","32","750","","test","go","45","random","","",""
"","272","32","1117","0","test_block","poldrack-single-stim","60","110160","0.0-5.0-46.0","go-nogo","false","0","","true","<div class = centerbox><div  id = stim2></div></div>","32","32","750","","test","go","46","random","","",""
"","-1","-1","1422","0","test_block","poldrack-single-stim","61","111621","0.0-5.0-47.0","go-nogo","false","0","","true","<div class = centerbox><div  id = stim1></div></div>","-1","32","750","","test","nogo","47","random","","",""
"","351","32","1473","0","test_block","poldrack-single-stim","62","113123","0.0-5.0-48.0","go-nogo","false","0","","true","<div class = centerbox><div  id = stim2></div></div>","32","32","750","","test","go","48","random","","",""
"","305","32","1168","0","test_block","poldrack-single-stim","63","114321","0.0-5.0-49.0","go-nogo","false","0","","true","<div class = centerbox><div  id = stim2></div></div>","32","32","750","","test","go","49","random","","",""
"","267","32","1208","0","test_block","poldrack-single-stim","64","115567","0.0-5.0-50.0","go-nogo","false","0","","true","<div class = centerbox><div  id = stim2></div></div>","32","32","750","","test","go","50","random","","",""
"","257","32","1388","0","test_block","poldrack-single-stim","65","116989","0.0-5.0-51.0","go-nogo","false","0","","true","<div class = centerbox><div  id = stim2></div></div>","32","32","750","","test","go","51","random","","",""
"","245","32","1298","0","test_block","poldrack-single-stim","66","118317","0.0-5.0-52.0","go-nogo","false","0","","true","<div class = centerbox><div  id = stim2></div></div>","32","32","750","","test","go","52","random","","",""
"","245","32","1179","0","test_block","poldrack-single-stim","67","119530","0.0-5.0-53.0","go-nogo","false","1","","true","<div class = centerbox><div  id = stim2></div></div>","32","32","750","","test","go","53","random","","",""
"","459","32","1193","0","test_block","poldrack-single-stim","68","120750","0.0-5.0-54.0","go-nogo","false","0","","true","<div class = centerbox><div  id = stim2></div></div>","32","32","750","","test","go","54","random","","",""
"","-1","-1","1086","0","test_block","poldrack-single-stim","69","121866","0.0-5.0-55.0","go-nogo","false","0","","true","<div class = centerbox><div  id = stim1></div></div>","-1","32","750","","test","nogo","55","random","","",""
"","232","32","1259","0","test_block","poldrack-single-stim","70","123157","0.0-5.0-56.0","go-nogo","false","0","","true","<div class = centerbox><div  id = stim2></div></div>","32","32","750","","test","go","56","random","","",""
"","-1","-1","1444","0","test_block","poldrack-single-stim","71","124637","0.0-5.0-57.0","go-nogo","false","0","","true","<div class = centerbox><div  id = stim1></div></div>","-1","32","750","","test","nogo","57","random","","",""
"","261","32","1109","0","test_block","poldrack-single-stim","72","125776","0.0-5.0-58.0","go-nogo","false","0","","true","<div class = centerbox><div  id = stim2></div></div>","32","32","750","","test","go","58","random","","",""
"","468","32","1498","0","test_block","poldrack-single-stim","73","127307","0.0-5.0-59.0","go-nogo","false","0","","true","<div class = centerbox><div  id = stim2></div></div>","32","32","750","","test","go","59","random","","",""
"","306","32","1007","0","test_block","poldrack-single-stim","74","128356","0.0-5.0-60.0","go-nogo","false","0","","true","<div class = centerbox><div  id = stim2></div></div>","32","32","750","","test","go","60","random","","",""
"","363","32","1198","0","test_block","poldrack-single-stim","75","129585","0.0-5.0-61.0","go-nogo","false","0","","true","<div class = centerbox><div  id = stim2></div></div>","32","32","750","","test","go","61","random","","",""
"","258","32","1267","0","test_block","poldrack-single-stim","76","130883","0.0-5.0-62.0","go-nogo","false","0","","true","<div class = centerbox><div  id = stim2></div></div>","32","32","750","","test","go","62","random","","",""
"","305","32","1451","0","test_block","poldrack-single-stim","77","132367","0.0-5.0-63.0","go-nogo","false","0","","true","<div class = centerbox><div  id = stim2></div></div>","32","32","750","","test","go","63","random","","",""
"","273","32","1093","0","test_block","poldrack-single-stim","78","133492","0.0-5.0-64.0","go-nogo","false","0","","true","<div class = centerbox><div  id = stim2></div></div>","32","32","750","","test","go","64","random","","",""
"","255","32","1162","0","test_block","poldrack-single-stim","79","134682","0.0-5.0-65.0","go-nogo","false","0","","true","<div class = centerbox><div  id = stim2></div></div>","32","32","750","","test","go","65","random","","",""
"","375","32","1293","0","test_block","poldrack-single-stim","80","136002","0.0-5.0-66.0","go-nogo","false","0","","true","<div class = centerbox><div  id = stim2></div></div>","32","32","750","","test","go","66","random","","",""
"","-1","-1","1363","0","test_block","poldrack-single-stim","81","137395","0.0-5.0-67.0","go-nogo","false","0","","true","<div class = centerbox><div  id = stim1></div></div>","-1","32","750","","test","nogo","67","random","","",""
"","272","32","1274","0","test_block","poldrack-single-stim","82","138703","0.0-5.0-68.0","go-nogo","false","0","","true","<div class = centerbox><div  id = stim2></div></div>","32","32","750","","test","go","68","random","","",""
"","288","32","1365","0","test_block","poldrack-single-stim","83","140096","0.0-5.0-69.0","go-nogo","false","0","","true","<div class = centerbox><div  id = stim2></div></div>","32","32","750","","test","go","69","random","","",""
"","209","32","1028","0","test_block","poldrack-single-stim","84","141152","0.0-5.0-70.0","go-nogo","false","0","","true","<div class = centerbox><div  id = stim2></div></div>","32","32","750","","test","go","70","random","","",""
"","269","32","1399","0","test_block","poldrack-single-stim","85","142582","0.0-5.0-71.0","go-nogo","false","0","","true","<div class = centerbox><div  id = stim2></div></div>","32","32","750","","test","go","71","random","","",""
"","251","32","1416","0","test_block","poldrack-single-stim","86","144064","0.0-5.0-72.0","go-nogo","false","0","","true","<div class = centerbox><div  id = stim2></div></div>","32","32","750","","test","go","72","random","","",""
"","264","32","1359","0","test_block","poldrack-single-stim","87","145448","0.0-5.0-73.0","go-nogo","false","0","","true","<div class = centerbox><div  id = stim2></div></div>","32","32","750","","test","go","73","random","","",""
"","255","32","1396","0","test_block","poldrack-single-stim","88","146874","0.0-5.0-74.0","go-nogo","false","0","","true","<div class = centerbox><div  id = stim2></div></div>","32","32","750","","test","go","74","random","","",""
"","250","32","1047","0","test_block","poldrack-single-stim","89","147956","0.0-5.0-75.0","go-nogo","false","0","","true","<div class = centerbox><div  id = stim2></div></div>","32","32","750","","test","go","75","random","","",""
"","277","32","1415","0","test_block","poldrack-single-stim","90","149396","0.0-5.0-76.0","go-nogo","false","0","","true","<div class = centerbox><div  id = stim2></div></div>","32","32","750","","test","go","76","random","","",""
"","268","32","1415","0","test_block","poldrack-single-stim","91","150847","0.0-5.0-77.0","go-nogo","false","0","","true","<div class = centerbox><div  id = stim2></div></div>","32","32","750","","test","go","77","random","","",""
"","313","32","1029","0","test_block","poldrack-single-stim","92","151904","0.0-5.0-78.0","go-nogo","false","0","","true","<div class = centerbox><div  id = stim2></div></div>","32","32","750","","test","go","78","random","","",""
"","311","32","1269","0","test_block","poldrack-single-stim","93","153202","0.0-5.0-79.0","go-nogo","false","0","","true","<div class = centerbox><div  id = stim2></div></div>","32","32","750","","test","go","79","random","","",""
"","246","32","1186","0","test_block","poldrack-single-stim","94","154415","0.0-5.0-80.0","go-nogo","false","0","","true","<div class = centerbox><div  id = stim2></div></div>","32","32","750","","test","go","80","random","","",""
"","214","32","1296","0","test_block","poldrack-single-stim","95","155745","0.0-5.0-81.0","go-nogo","false","0","","true","<div class = centerbox><div  id = stim2></div></div>","32","32","750","","test","go","81","random","","",""
"","230","32","1014","0","test_block","poldrack-single-stim","96","156791","0.0-5.0-82.0","go-nogo","false","0","","true","<div class = centerbox><div  id = stim2></div></div>","32","32","750","","test","go","82","random","","",""
"","255","32","1233","0","test_block","poldrack-single-stim","97","158058","0.0-5.0-83.0","go-nogo","false","0","","true","<div class = centerbox><div  id = stim2></div></div>","32","32","750","","test","go","83","random","","",""
"","309","32","1101","0","test_block","poldrack-single-stim","98","159200","0.0-5.0-84.0","go-nogo","false","0","","true","<div class = centerbox><div  id = stim2></div></div>","32","32","750","","test","go","84","random","","",""
"","374","32","1493","0","test_block","poldrack-single-stim","99","160722","0.0-5.0-85.0","go-nogo","false","0","","true","<div class = centerbox><div  id = stim2></div></div>","32","32","750","","test","go","85","random","","",""
"","276","32","1334","0","test_block","poldrack-single-stim","100","162081","0.0-5.0-86.0","go-nogo","false","0","","true","<div class = centerbox><div  id = stim2></div></div>","32","32","750","","test","go","86","random","","",""
"","258","32","1105","0","test_block","poldrack-single-stim","101","163219","0.0-5.0-87.0","go-nogo","false","0","","true","<div class = centerbox><div  id = stim2></div></div>","32","32","750","","test","go","87","random","","",""
"","114","32","1300","0","test_block","poldrack-single-stim","102","164551","0.0-5.0-88.0","go-nogo","false","0","","true","<div class = centerbox><div  id = stim2></div></div>","32","32","750","","test","go","88","random","","",""
"","267","32","1172","0","test_block","poldrack-single-stim","103","165758","0.0-5.0-89.0","go-nogo","false","0","","true","<div class = centerbox><div  id = stim2></div></div>","32","32","750","","test","go","89","random","","",""
"","249","32","1181","0","test_block","poldrack-single-stim","104","166968","0.0-5.0-90.0","go-nogo","false","0","","true","<div class = centerbox><div  id = stim2></div></div>","32","32","750","","test","go","90","random","","",""
"","287","32","1357","0","test_block","poldrack-single-stim","105","168348","0.0-5.0-91.0","go-nogo","false","0","","true","<div class = centerbox><div  id = stim2></div></div>","32","32","750","","test","go","91","random","","",""
"","296","32","1435","0","test_block","poldrack-single-stim","106","169811","0.0-5.0-92.0","go-nogo","false","0","","true","<div class = centerbox><div  id = stim2></div></div>","32","32","750","","test","go","92","random","","",""
"","0","32","1073","0","test_block","poldrack-single-stim","107","170926","0.0-5.0-93.0","go-nogo","false","0","","true","<div class = centerbox><div  id = stim2></div></div>","32","32","750","","test","go","93","random","","",""
"","324","32","1331","0","test_block","poldrack-single-stim","108","172339","0.0-5.0-94.0","go-nogo","true","0","","true","<div class = centerbox><div  id = stim2></div></div>","32","32","750","","test","go","94","random","","",""
"","210","32","1147","0","test_block","poldrack-single-stim","109","173517","0.0-5.0-95.0","go-nogo","true","0","","true","<div class = centerbox><div  id = stim2></div></div>","32","32","750","","test","go","95","random","","",""
"","118","32","1150","0","test_block","poldrack-single-stim","110","174699","0.0-5.0-96.0","go-nogo","true","1","","true","<div class = centerbox><div  id = stim2></div></div>","32","32","750","","test","go","96","random","","",""
"","-1","-1","1085","0","test_block","poldrack-single-stim","111","175814","0.0-5.0-97.0","go-nogo","true","0","","false","<div class = centerbox><div  id = stim2></div></div>","32","32","750","","test","go","97","random","","",""
"","219","32","1118","0","test_block","poldrack-single-stim","112","176961","0.0-5.0-98.0","go-nogo","true","0","","true","<div class = centerbox><div  id = stim2></div></div>","32","32","750","","test","go","98","random","","",""
"","225","32","1184","0","test_block","poldrack-single-stim","113","178179","0.0-5.0-99.0","go-nogo","true","0","","true","<div class = centerbox><div  id = stim2></div></div>","32","32","750","","test","go","99","random","","",""
"","222","32","1267","0","test_block","poldrack-single-stim","114","179473","0.0-5.0-100.0","go-nogo","true","0","","true","<div class = centerbox><div  id = stim2></div></div>","32","32","750","","test","go","100","random","","",""
"","227","32","1215","0","test_block","poldrack-single-stim","115","180721","0.0-5.0-101.0","go-nogo","true","0","","true","<div class = centerbox><div  id = stim2></div></div>","32","32","750","","test","go","101","random","","",""
"","259","32","1383","0","test_block","poldrack-single-stim","116","182134","0.0-5.0-102.0","go-nogo","true","0","","true","<div class = centerbox><div  id = stim2></div></div>","32","32","750","","test","go","102","random","","",""
"","0","32","1313","0","test_block","poldrack-single-stim","117","183481","0.0-5.0-103.0","go-nogo","true","0","","true","<div class = centerbox><div  id = stim2></div></div>","32","32","750","","test","go","103","random","","",""
"","75","32","1418","0","test_block","poldrack-single-stim","118","184924","0.0-5.0-104.0","go-nogo","true","0","","false","<div class = centerbox><div  id = stim1></div></div>","-1","32","750","","test","nogo","104","random","","",""
"","80","32","1458","0","test_block","poldrack-single-stim","119","186414","0.0-5.0-105.0","go-nogo","true","0","","false","<div class = centerbox><div  id = stim1></div></div>","-1","32","750","","test","nogo","105","random","","",""
"","325","32","1376","0","test_block","poldrack-single-stim","120","187816","0.0-5.0-106.0","go-nogo","true","0","","true","<div class = centerbox><div  id = stim2></div></div>","32","32","750","","test","go","106","random","","",""
"","300","32","1113","0","test_block","poldrack-single-stim","121","188954","0.0-5.0-107.0","go-nogo","true","0","","true","<div class = centerbox><div  id = stim2></div></div>","32","32","750","","test","go","107","random","","",""
"","312","32","1424","0","test_block","poldrack-single-stim","122","190410","0.0-5.0-108.0","go-nogo","true","0","","true","<div class = centerbox><div  id = stim2></div></div>","32","32","750","","test","go","108","random","","",""
"","263","32","1134","0","test_block","poldrack-single-stim","123","191573","0.0-5.0-109.0","go-nogo","true","0","","true","<div class = centerbox><div  id = stim2></div></div>","32","32","750","","test","go","109","random","","",""
"","269","32","1387","0","test_block","poldrack-single-stim","124","192993","0.0-5.0-110.0","go-nogo","true","0","","true","<div class = centerbox><div  id = stim2></div></div>","32","32","750","","test","go","110","random","","",""
"","286","32","1168","0","test_block","poldrack-single-stim","125","194193","0.0-5.0-111.0","go-nogo","true","0","","true","<div class = centerbox><div  id = stim2></div></div>","32","32","750","","test","go","111","random","","",""
"","288","32","1082","0","test_block","poldrack-single-stim","126","195303","0.0-5.0-112.0","go-nogo","true","0","","true","<div class = centerbox><div  id = stim2></div></div>","32","32","750","","test","go","112","random","","",""
"","266","32","1134","0","test_block","poldrack-single-stim","127","196471","0.0-5.0-113.0","go-nogo","true","0","","true","<div class = centerbox><div  id = stim2></div></div>","32","32","750","","test","go","113","random","","",""
"","-1","-1","1061","0","test_block","poldrack-single-stim","128","197556","0.0-5.0-114.0","go-nogo","true","0","","true","<div class = centerbox><div  id = stim1></div></div>","-1","32","750","","test","nogo","114","random","","",""
"","254","32","1060","0","test_block","poldrack-single-stim","129","198646","0.0-5.0-115.0","go-nogo","true","0","","true","<div class = centerbox><div  id = stim2></div></div>","32","32","750","","test","go","115","random","","",""
"","282","32","1302","0","test_block","poldrack-single-stim","130","199973","0.0-5.0-116.0","go-nogo","true","0","","true","<div class = centerbox><div  id = stim2></div></div>","32","32","750","","test","go","116","random","","",""
"","247","32","1372","0","test_block","poldrack-single-stim","131","201379","0.0-5.0-117.0","go-nogo","true","0","","true","<div class = centerbox><div  id = stim2></div></div>","32","32","750","","test","go","117","random","","",""
"","301","32","1189","0","test_block","poldrack-single-stim","132","202593","0.0-5.0-118.0","go-nogo","true","0","","true","<div class = centerbox><div  id = stim2></div></div>","32","32","750","","test","go","118","random","","",""
"","271","32","1172","0","test_block","poldrack-single-stim","133","203796","0.0-5.0-119.0","go-nogo","true","0","","true","<div class = centerbox><div  id = stim2></div></div>","32","32","750","","test","go","119","random","","",""
"","237","32","1352","0","test_block","poldrack-single-stim","134","205173","0.0-5.0-120.0","go-nogo","true","0","","true","<div class = centerbox><div  id = stim2></div></div>","32","32","750","","test","go","120","random","","",""
"","282","32","1177","0","test_block","poldrack-single-stim","135","206376","0.0-5.0-121.0","go-nogo","true","0","","true","<div class = centerbox><div  id = stim2></div></div>","32","32","750","","test","go","121","random","","",""
"","247","32","1217","0","test_block","poldrack-single-stim","136","207622","0.0-5.0-122.0","go-nogo","true","0","","true","<div class = centerbox><div  id = stim2></div></div>","32","32","750","","test","go","122","random","","",""
"","296","32","1069","0","test_block","poldrack-single-stim","137","208723","0.0-5.0-123.0","go-nogo","true","0","","true","<div class = centerbox><div  id = stim2></div></div>","32","32","750","","test","go","123","random","","",""
"","413","32","1046","0","test_block","poldrack-single-stim","138","209799","0.0-5.0-124.0","go-nogo","true","0","","true","<div class = centerbox><div  id = stim2></div></div>","32","32","750","","test","go","124","random","","",""
"","279","32","1482","0","test_block","poldrack-single-stim","139","211313","0.0-5.0-125.0","go-nogo","true","0","","true","<div class = centerbox><div  id = stim2></div></div>","32","32","750","","test","go","125","random","","",""
"","271","32","1177","0","test_block","poldrack-single-stim","140","212520","0.0-5.0-126.0","go-nogo","true","0","","true","<div class = centerbox><div  id = stim2></div></div>","32","32","750","","test","go","126","random","","",""
"","-1","-1","1043","0","test_block","poldrack-single-stim","141","213596","0.0-5.0-127.0","go-nogo","true","0","","true","<div class = centerbox><div  id = stim1></div></div>","-1","32","750","","test","nogo","127","random","","",""
"","337","32","1130","0","test_block","poldrack-single-stim","142","214756","0.0-5.0-128.0","go-nogo","true","0","","true","<div class = centerbox><div  id = stim2></div></div>","32","32","750","","test","go","128","random","","",""
"","299","32","1316","0","test_block","poldrack-single-stim","143","216095","0.0-5.0-129.0","go-nogo","true","0","","true","<div class = centerbox><div  id = stim2></div></div>","32","32","750","","test","go","129","random","","",""
"","301","32","1024","0","test_block","poldrack-single-stim","144","217155","0.0-5.0-130.0","go-nogo","true","0","","false","<div class = centerbox><div  id = stim1></div></div>","-1","32","750","","test","nogo","130","random","","",""
"","314","32","1135","0","test_block","poldrack-single-stim","145","218324","0.0-5.0-131.0","go-nogo","true","0","","true","<div class = centerbox><div  id = stim2></div></div>","32","32","750","","test","go","131","random","","",""
"","298","32","1011","0","test_block","poldrack-single-stim","146","219360","0.0-5.0-132.0","go-nogo","true","0","","true","<div class = centerbox><div  id = stim2></div></div>","32","32","750","","test","go","132","random","","",""
"","303","32","1099","0","test_block","poldrack-single-stim","147","220490","0.0-5.0-133.0","go-nogo","true","0","","true","<div class = centerbox><div  id = stim2></div></div>","32","32","750","","test","go","133","random","","",""
"","-1","-1","1014","0","test_block","poldrack-single-stim","148","221536","0.0-5.0-134.0","go-nogo","true","0","","true","<div class = centerbox><div  id = stim1></div></div>","-1","32","750","","test","nogo","134","random","","",""
"","320","32","1306","0","test_block","poldrack-single-stim","149","222868","0.0-5.0-135.0","go-nogo","true","0","","true","<div class = centerbox><div  id = stim2></div></div>","32","32","750","","test","go","135","random","","",""
"","234","32","1149","0","test_block","poldrack-single-stim","150","224045","0.0-5.0-136.0","go-nogo","true","0","","true","<div class = centerbox><div  id = stim2></div></div>","32","32","750","","test","go","136","random","","",""
"","257","32","1415","0","test_block","poldrack-single-stim","151","225488","0.0-5.0-137.0","go-nogo","true","0","","true","<div class = centerbox><div  id = stim2></div></div>","32","32","750","","test","go","137","random","","",""
"","285","32","1437","0","test_block","poldrack-single-stim","152","226955","0.0-5.0-138.0","go-nogo","true","0","","true","<div class = centerbox><div  id = stim2></div></div>","32","32","750","","test","go","138","random","","",""
"","259","32","1454","0","test_block","poldrack-single-stim","153","228440","0.0-5.0-139.0","go-nogo","true","0","","true","<div class = centerbox><div  id = stim2></div></div>","32","32","750","","test","go","139","random","","",""
"","320","32","1086","0","test_block","poldrack-single-stim","154","229555","0.0-5.0-140.0","go-nogo","true","0","","true","<div class = centerbox><div  id = stim2></div></div>","32","32","750","","test","go","140","random","","",""
"","281","32","1408","0","test_block","poldrack-single-stim","155","230988","0.0-5.0-141.0","go-nogo","true","0","","true","<div class = centerbox><div  id = stim2></div></div>","32","32","750","","test","go","141","random","","",""
"","271","32","1171","0","test_block","poldrack-single-stim","156","232185","0.0-5.0-142.0","go-nogo","true","0","","true","<div class = centerbox><div  id = stim2></div></div>","32","32","750","","test","go","142","random","","",""
"","276","32","1152","0","test_block","poldrack-single-stim","157","233366","0.0-5.0-143.0","go-nogo","true","0","","true","<div class = centerbox><div  id = stim2></div></div>","32","32","750","","test","go","143","random","","",""
"","294","32","1163","0","test_block","poldrack-single-stim","158","234556","0.0-5.0-144.0","go-nogo","true","0","","true","<div class = centerbox><div  id = stim2></div></div>","32","32","750","","test","go","144","random","","",""
"","336","32","1414","0","test_block","poldrack-single-stim","159","235994","0.0-5.0-145.0","go-nogo","true","0","","true","<div class = centerbox><div  id = stim2></div></div>","32","32","750","","test","go","145","random","","",""
"","270","32","1179","0","test_block","poldrack-single-stim","160","237208","0.0-5.0-146.0","go-nogo","true","0","","true","<div class = centerbox><div  id = stim2></div></div>","32","32","750","","test","go","146","random","","",""
"","211","32","1489","0","test_block","poldrack-single-stim","161","238728","0.0-5.0-147.0","go-nogo","true","0","","true","<div class = centerbox><div  id = stim2></div></div>","32","32","750","","test","go","147","random","","",""
"","305","32","1243","0","test_block","poldrack-single-stim","162","240005","0.0-5.0-148.0","go-nogo","true","0","","true","<div class = centerbox><div  id = stim2></div></div>","32","32","750","","test","go","148","random","","",""
"","244","32","1396","0","test_block","poldrack-single-stim","163","241428","0.0-5.0-149.0","go-nogo","true","0","","true","<div class = centerbox><div  id = stim2></div></div>","32","32","750","","test","go","149","random","","",""
"","247","32","1421","0","test_block","poldrack-single-stim","164","242875","0.0-5.0-150.0","go-nogo","true","0","","true","<div class = centerbox><div  id = stim2></div></div>","32","32","750","","test","go","150","random","","",""
"","273","32","1480","0","test_block","poldrack-single-stim","165","244378","0.0-5.0-151.0","go-nogo","true","0","","true","<div class = centerbox><div  id = stim2></div></div>","32","32","750","","test","go","151","random","","",""
"","-1","-1","1044","0","test_block","poldrack-single-stim","166","245455","0.0-5.0-152.0","go-nogo","true","0","","true","<div class = centerbox><div  id = stim1></div></div>","-1","32","750","","test","nogo","152","random","","",""
"","285","32","1194","0","test_block","poldrack-single-stim","167","246678","0.0-5.0-153.0","go-nogo","true","0","","true","<div class = centerbox><div  id = stim2></div></div>","32","32","750","","test","go","153","random","","",""
"","230","32","1191","0","test_block","poldrack-single-stim","168","247895","0.0-5.0-154.0","go-nogo","true","0","","true","<div class = centerbox><div  id = stim2></div></div>","32","32","750","","test","go","154","random","","",""
"","243","32","1007","0","test_block","poldrack-single-stim","169","248934","0.0-5.0-155.0","go-nogo","true","0","","true","<div class = centerbox><div  id = stim2></div></div>","32","32","750","","test","go","155","random","","",""
"","307","32","1149","0","test_block","poldrack-single-stim","170","250110","0.0-5.0-156.0","go-nogo","true","0","","true","<div class = centerbox><div  id = stim2></div></div>","32","32","750","","test","go","156","random","","",""
"","251","32","1208","0","test_block","poldrack-single-stim","171","251348","0.0-5.0-157.0","go-nogo","true","0","","true","<div class = centerbox><div  id = stim2></div></div>","32","32","750","","test","go","157","random","","",""
"","242","32","1076","0","test_block","poldrack-single-stim","172","252461","0.0-5.0-158.0","go-nogo","true","0","","true","<div class = centerbox><div  id = stim2></div></div>","32","32","750","","test","go","158","random","","",""
"","268","32","1068","0","test_block","poldrack-single-stim","173","253556","0.0-5.0-159.0","go-nogo","true","0","","true","<div class = centerbox><div  id = stim2></div></div>","32","32","750","","test","go","159","random","","",""
"","261","32","1280","0","test_block","poldrack-single-stim","174","254867","0.0-5.0-160.0","go-nogo","true","0","","true","<div class = centerbox><div  id = stim2></div></div>","32","32","750","","test","go","160","random","","",""
"","293","32","1385","0","test_block","poldrack-single-stim","175","256280","0.0-5.0-161.0","go-nogo","true","0","","true","<div class = centerbox><div  id = stim2></div></div>","32","32","750","","test","go","161","random","","",""
"","241","32","1137","0","test_block","poldrack-single-stim","176","257448","0.0-5.0-162.0","go-nogo","true","0","","true","<div class = centerbox><div  id = stim2></div></div>","32","32","750","","test","go","162","random","","",""
"","272","32","1004","0","test_block","poldrack-single-stim","177","258484","0.0-5.0-163.0","go-nogo","true","0","","true","<div class = centerbox><div  id = stim2></div></div>","32","32","750","","test","go","163","random","","",""
"","257","32","1097","0","test_block","poldrack-single-stim","178","259614","0.0-5.0-164.0","go-nogo","true","0","","true","<div class = centerbox><div  id = stim2></div></div>","32","32","750","","test","go","164","random","","",""
"","313","32","1455","0","test_block","poldrack-single-stim","179","261093","0.0-5.0-165.0","go-nogo","true","0","","true","<div class = centerbox><div  id = stim2></div></div>","32","32","750","","test","go","165","random","","",""
"","244","32","1193","0","test_block","poldrack-single-stim","180","262314","0.0-5.0-166.0","go-nogo","true","0","","true","<div class = centerbox><div  id = stim2></div></div>","32","32","750","","test","go","166","random","","",""
"","237","32","1165","0","test_block","poldrack-single-stim","181","263511","0.0-5.0-167.0","go-nogo","true","0","","false","<div class = centerbox><div  id = stim1></div></div>","-1","32","750","","test","nogo","167","random","","",""
"","-1","-1","1091","0","test_block","poldrack-single-stim","182","264628","0.0-5.0-168.0","go-nogo","true","0","","true","<div class = centerbox><div  id = stim1></div></div>","-1","32","750","","test","nogo","168","random","","",""
"","243","32","1083","0","test_block","poldrack-single-stim","183","265740","0.0-5.0-169.0","go-nogo","true","0","","true","<div class = centerbox><div  id = stim2></div></div>","32","32","750","","test","go","169","random","","",""
"","233","32","1070","0","test_block","poldrack-single-stim","184","266837","0.0-5.0-170.0","go-nogo","true","0","","true","<div class = centerbox><div  id = stim2></div></div>","32","32","750","","test","go","170","random","","",""
"","242","32","1166","0","test_block","poldrack-single-stim","185","268037","0.0-5.0-171.0","go-nogo","true","0","","false","<div class = centerbox><div  id = stim1></div></div>","-1","32","750","","test","nogo","171","random","","",""
"","302","32","1305","0","test_block","poldrack-single-stim","186","269375","0.0-5.0-172.0","go-nogo","true","0","","true","<div class = centerbox><div  id = stim2></div></div>","32","32","750","","test","go","172","random","","",""
"","294","32","1198","0","test_block","poldrack-single-stim","187","270606","0.0-5.0-173.0","go-nogo","true","0","","true","<div class = centerbox><div  id = stim2></div></div>","32","32","750","","test","go","173","random","","",""
"","279","32","1194","0","test_block","poldrack-single-stim","188","271834","0.0-5.0-174.0","go-nogo","true","0","","true","<div class = centerbox><div  id = stim2></div></div>","32","32","750","","test","go","174","random","","",""
"","286","32","1271","0","test_block","poldrack-single-stim","189","273137","0.0-5.0-175.0","go-nogo","true","0","","true","<div class = centerbox><div  id = stim2></div></div>","32","32","750","","test","go","175","random","","",""
"","259","32","1422","0","test_block","poldrack-single-stim","190","274587","0.0-5.0-176.0","go-nogo","true","0","","true","<div class = centerbox><div  id = stim2></div></div>","32","32","750","","test","go","176","random","","",""
"","315","32","1044","0","test_block","poldrack-single-stim","191","275662","0.0-5.0-177.0","go-nogo","true","0","","true","<div class = centerbox><div  id = stim2></div></div>","32","32","750","","test","go","177","random","","",""
"","376","32","1295","0","test_block","poldrack-single-stim","192","276983","0.0-5.0-178.0","go-nogo","true","0","","true","<div class = centerbox><div  id = stim2></div></div>","32","32","750","","test","go","178","random","","",""
"","335","32","1076","0","test_block","poldrack-single-stim","193","278084","0.0-5.0-179.0","go-nogo","true","0","","true","<div class = centerbox><div  id = stim2></div></div>","32","32","750","","test","go","179","random","","",""
"","323","32","1378","0","test_block","poldrack-single-stim","194","279493","0.0-5.0-180.0","go-nogo","true","0","","true","<div class = centerbox><div  id = stim2></div></div>","32","32","750","","test","go","180","random","","",""
"","286","32","1187","0","test_block","poldrack-single-stim","195","280713","0.0-5.0-181.0","go-nogo","true","0","","true","<div class = centerbox><div  id = stim2></div></div>","32","32","750","","test","go","181","random","","",""
"","284","32","1071","0","test_block","poldrack-single-stim","196","281810","0.0-5.0-182.0","go-nogo","true","0","","true","<div class = centerbox><div  id = stim2></div></div>","32","32","750","","test","go","182","random","","",""
"","292","32","1343","0","test_block","poldrack-single-stim","197","283175","0.0-5.0-183.0","go-nogo","true","0","","true","<div class = centerbox><div  id = stim2></div></div>","32","32","750","","test","go","183","random","","",""
"","301","32","1437","0","test_block","poldrack-single-stim","198","284639","0.0-5.0-184.0","go-nogo","true","0","","true","<div class = centerbox><div  id = stim2></div></div>","32","32","750","","test","go","184","random","","",""
"","294","32","1069","0","test_block","poldrack-single-stim","199","285736","0.0-5.0-185.0","go-nogo","true","0","","true","<div class = centerbox><div  id = stim2></div></div>","32","32","750","","test","go","185","random","","",""
"","285","32","1225","0","test_block","poldrack-single-stim","200","286989","0.0-5.0-186.0","go-nogo","true","0","","true","<div class = centerbox><div  id = stim2></div></div>","32","32","750","","test","go","186","random","","",""
"","311","32","1185","0","test_block","poldrack-single-stim","201","288210","0.0-5.0-187.0","go-nogo","true","0","","true","<div class = centerbox><div  id = stim2></div></div>","32","32","750","","test","go","187","random","","",""
"","288","32","1115","0","test_block","poldrack-single-stim","202","289360","0.0-5.0-188.0","go-nogo","true","0","","true","<div class = centerbox><div  id = stim2></div></div>","32","32","750","","test","go","188","random","","",""
"","245","32","1147","0","test_block","poldrack-single-stim","203","290534","0.0-5.0-189.0","go-nogo","true","0","","true","<div class = centerbox><div  id = stim2></div></div>","32","32","750","","test","go","189","random","","",""
"","237","32","1445","0","test_block","poldrack-single-stim","204","292005","0.0-5.0-190.0","go-nogo","true","0","","true","<div class = centerbox><div  id = stim2></div></div>","32","32","750","","test","go","190","random","","",""
"","336","32","1044","0","test_block","poldrack-single-stim","205","293072","0.0-5.0-191.0","go-nogo","true","0","","true","<div class = centerbox><div  id = stim2></div></div>","32","32","750","","test","go","191","random","","",""
"","307","32","1054","0","test_block","poldrack-single-stim","206","294159","0.0-5.0-192.0","go-nogo","true","0","","true","<div class = centerbox><div  id = stim2></div></div>","32","32","750","","test","go","192","random","","",""
"","259","32","1012","0","test_block","poldrack-single-stim","207","295200","0.0-5.0-193.0","go-nogo","true","0","","true","<div class = centerbox><div  id = stim2></div></div>","32","32","750","","test","go","193","random","","",""
"","306","32","1223","0","test_block","poldrack-single-stim","208","296452","0.0-5.0-194.0","go-nogo","true","0","","true","<div class = centerbox><div  id = stim2></div></div>","32","32","750","","test","go","194","random","","",""
"","-1","-1","1113","0","test_block","poldrack-single-stim","209","297599","0.0-5.0-195.0","go-nogo","true","0","","true","<div class = centerbox><div  id = stim1></div></div>","-1","32","750","","test","nogo","195","random","","",""
"","262","32","1280","0","test_block","poldrack-single-stim","210","298905","0.0-5.0-196.0","go-nogo","true","0","","true","<div class = centerbox><div  id = stim2></div></div>","32","32","750","","test","go","196","random","","",""
"","311","32","1290","0","test_block","poldrack-single-stim","211","300253","0.0-5.0-197.0","go-nogo","true","0","","true","<div class = centerbox><div  id = stim2></div></div>","32","32","750","","test","go","197","random","","",""
"","317","32","1120","0","test_block","poldrack-single-stim","212","301398","0.0-5.0-198.0","go-nogo","true","0","","true","<div class = centerbox><div  id = stim2></div></div>","32","32","750","","test","go","198","random","","",""
"","292","32","1431","0","test_block","poldrack-single-stim","213","302861","0.0-5.0-199.0","go-nogo","true","0","","true","<div class = centerbox><div  id = stim2></div></div>","32","32","750","","test","go","199","random","","",""
"","285","32","1351","0","test_block","poldrack-single-stim","214","304240","0.0-5.0-200.0","go-nogo","true","0","","true","<div class = centerbox><div  id = stim2></div></div>","32","32","750","","test","go","200","random","","",""
"","281","32","1459","0","test_block","poldrack-single-stim","215","305731","0.0-5.0-201.0","go-nogo","true","0","","true","<div class = centerbox><div  id = stim2></div></div>","32","32","750","","test","go","201","random","","",""
"","310","32","1103","0","test_block","poldrack-single-stim","216","306858","0.0-5.0-202.0","go-nogo","true","0","","true","<div class = centerbox><div  id = stim2></div></div>","32","32","750","","test","go","202","random","","",""
"","239","32","1123","0","test_block","poldrack-single-stim","217","308008","0.0-5.0-203.0","go-nogo","true","0","","true","<div class = centerbox><div  id = stim2></div></div>","32","32","750","","test","go","203","random","","",""
"","305","32","1211","0","test_block","poldrack-single-stim","218","309249","0.0-5.0-204.0","go-nogo","true","0","","true","<div class = centerbox><div  id = stim2></div></div>","32","32","750","","test","go","204","random","","",""
"","261","32","1130","0","test_block","poldrack-single-stim","219","310407","0.0-5.0-205.0","go-nogo","true","0","","false","<div class = centerbox><div  id = stim1></div></div>","-1","32","750","","test","nogo","205","random","","",""
"","-1","-1","1223","0","test_block","poldrack-single-stim","220","311656","0.0-5.0-206.0","go-nogo","true","0","","true","<div class = centerbox><div  id = stim1></div></div>","-1","32","750","","test","nogo","206","random","","",""
"","399","32","1449","0","test_block","poldrack-single-stim","221","313135","0.0-5.0-207.0","go-nogo","true","1","","true","<div class = centerbox><div  id = stim2></div></div>","32","32","750","","test","go","207","random","","",""
"","-1","-1","1170","0","test_block","poldrack-single-stim","222","314337","0.0-5.0-208.0","go-nogo","true","0","","false","<div class = centerbox><div  id = stim2></div></div>","32","32","750","","test","go","208","random","","",""
"","596","32","1250","0","test_block","poldrack-single-stim","223","315618","0.0-5.0-209.0","go-nogo","true","0","","true","<div class = centerbox><div  id = stim2></div></div>","32","32","750","","test","go","209","random","","",""
"","261","32","1186","0","test_block","poldrack-single-stim","224","316834","0.0-5.0-210.0","go-nogo","true","0","","true","<div class = centerbox><div  id = stim2></div></div>","32","32","750","","test","go","210","random","","",""
"","258","32","1499","0","test_block","poldrack-single-stim","225","318362","0.0-5.0-211.0","go-nogo","true","0","","true","<div class = centerbox><div  id = stim2></div></div>","32","32","750","","test","go","211","random","","",""
"","301","32","1074","0","test_block","poldrack-single-stim","226","319463","0.0-5.0-212.0","go-nogo","true","0","","true","<div class = centerbox><div  id = stim2></div></div>","32","32","750","","test","go","212","random","","",""
"","288","32","1265","0","test_block","poldrack-single-stim","227","320760","0.0-5.0-213.0","go-nogo","true","0","","true","<div class = centerbox><div  id = stim2></div></div>","32","32","750","","test","go","213","random","","",""
"","239","32","1132","0","test_block","poldrack-single-stim","228","321923","0.0-5.0-214.0","go-nogo","true","0","","true","<div class = centerbox><div  id = stim2></div></div>","32","32","750","","test","go","214","random","","",""
"","259","32","1340","0","test_block","poldrack-single-stim","229","323291","0.0-5.0-215.0","go-nogo","true","0","","true","<div class = centerbox><div  id = stim2></div></div>","32","32","750","","test","go","215","random","","",""
"","297","32","1364","0","test_block","poldrack-single-stim","230","324683","0.0-5.0-216.0","go-nogo","true","0","","true","<div class = centerbox><div  id = stim2></div></div>","32","32","750","","test","go","216","random","","",""
"","-1","-1","1294","0","test_block","poldrack-single-stim","231","326001","0.0-5.0-217.0","go-nogo","true","0","","true","<div class = centerbox><div  id = stim1></div></div>","-1","32","750","","test","nogo","217","random","","",""
"","324","32","1272","0","test_block","poldrack-single-stim","232","327304","0.0-5.0-218.0","go-nogo","true","0","","true","<div class = centerbox><div  id = stim2></div></div>","32","32","750","","test","go","218","random","","",""
"","190","32","1051","0","test_block","poldrack-single-stim","233","328383","0.0-5.0-219.0","go-nogo","true","0","","true","<div class = centerbox><div  id = stim2></div></div>","32","32","750","","test","go","219","random","","",""
"","247","32","1063","0","test_block","poldrack-single-stim","234","329470","0.0-5.0-220.0","go-nogo","true","0","","true","<div class = centerbox><div  id = stim2></div></div>","32","32","750","","test","go","220","random","","",""
"","343","32","1057","0","test_block","poldrack-single-stim","235","330556","0.0-5.0-221.0","go-nogo","true","0","","true","<div class = centerbox><div  id = stim2></div></div>","32","32","750","","test","go","221","random","","",""
"","329","32","1424","0","test_block","poldrack-single-stim","236","332010","0.0-5.0-222.0","go-nogo","true","0","","true","<div class = centerbox><div  id = stim2></div></div>","32","32","750","","test","go","222","random","","",""
"","268","32","1379","0","test_block","poldrack-single-stim","237","333418","0.0-5.0-223.0","go-nogo","true","0","","true","<div class = centerbox><div  id = stim2></div></div>","32","32","750","","test","go","223","random","","",""
"","537","32","1187","0","test_block","poldrack-single-stim","238","334639","0.0-5.0-224.0","go-nogo","true","0","","true","<div class = centerbox><div  id = stim2></div></div>","32","32","750","","test","go","224","random","","",""
"","230","32","1207","0","test_block","poldrack-single-stim","239","335876","0.0-5.0-225.0","go-nogo","true","0","","true","<div class = centerbox><div  id = stim2></div></div>","32","32","750","","test","go","225","random","","",""
"","193","32","1470","0","test_block","poldrack-single-stim","240","337370","0.0-5.0-226.0","go-nogo","true","0","","false","<div class = centerbox><div  id = stim1></div></div>","-1","32","750","","test","nogo","226","random","","",""
"","316","32","1419","0","test_block","poldrack-single-stim","241","338817","0.0-5.0-227.0","go-nogo","true","0","","true","<div class = centerbox><div  id = stim2></div></div>","32","32","750","","test","go","227","random","","",""
"","259","32","1274","0","test_block","poldrack-single-stim","242","340120","0.0-5.0-228.0","go-nogo","true","0","","true","<div class = centerbox><div  id = stim2></div></div>","32","32","750","","test","go","228","random","","",""
"","284","32","1482","0","test_block","poldrack-single-stim","243","341630","0.0-5.0-229.0","go-nogo","true","0","","true","<div class = centerbox><div  id = stim2></div></div>","32","32","750","","test","go","229","random","","",""
"","260","32","1144","0","test_block","poldrack-single-stim","244","342799","0.0-5.0-230.0","go-nogo","true","0","","true","<div class = centerbox><div  id = stim2></div></div>","32","32","750","","test","go","230","random","","",""
"","307","32","1229","0","test_block","poldrack-single-stim","245","344056","0.0-5.0-231.0","go-nogo","true","0","","true","<div class = centerbox><div  id = stim2></div></div>","32","32","750","","test","go","231","random","","",""
"","267","32","1310","0","test_block","poldrack-single-stim","246","345389","0.0-5.0-232.0","go-nogo","true","0","","true","<div class = centerbox><div  id = stim2></div></div>","32","32","750","","test","go","232","random","","",""
"","262","32","1083","0","test_block","poldrack-single-stim","247","346496","0.0-5.0-233.0","go-nogo","true","0","","true","<div class = centerbox><div  id = stim2></div></div>","32","32","750","","test","go","233","random","","",""
"","291","32","1045","0","test_block","poldrack-single-stim","248","347566","0.0-5.0-234.0","go-nogo","true","0","","true","<div class = centerbox><div  id = stim2></div></div>","32","32","750","","test","go","234","random","","",""
"","309","32","1381","0","test_block","poldrack-single-stim","249","348975","0.0-5.0-235.0","go-nogo","true","0","","true","<div class = centerbox><div  id = stim2></div></div>","32","32","750","","test","go","235","random","","",""
"","451","32","1204","0","test_block","poldrack-single-stim","250","350206","0.0-5.0-236.0","go-nogo","true","0","","true","<div class = centerbox><div  id = stim2></div></div>","32","32","750","","test","go","236","random","","",""
"","304","32","1057","0","test_block","poldrack-single-stim","251","351293","0.0-5.0-237.0","go-nogo","true","0","","true","<div class = centerbox><div  id = stim2></div></div>","32","32","750","","test","go","237","random","","",""
"","292","32","1317","0","test_block","poldrack-single-stim","252","352634","0.0-5.0-238.0","go-nogo","true","0","","true","<div class = centerbox><div  id = stim2></div></div>","32","32","750","","test","go","238","random","","",""
"","279","32","1493","0","test_block","poldrack-single-stim","253","354152","0.0-5.0-239.0","go-nogo","true","0","","true","<div class = centerbox><div  id = stim2></div></div>","32","32","750","","test","go","239","random","","",""
"","345","32","1380","0","test_block","poldrack-single-stim","254","355555","0.0-5.0-240.0","go-nogo","true","1","","true","<div class = centerbox><div  id = stim2></div></div>","32","32","750","","test","go","240","random","","",""
"","427","32","1032","0","test_block","poldrack-single-stim","255","356623","0.0-5.0-241.0","go-nogo","true","0","","true","<div class = centerbox><div  id = stim2></div></div>","32","32","750","","test","go","241","random","","",""
"","-1","-1","1421","0","test_block","poldrack-single-stim","256","358075","0.0-5.0-242.0","go-nogo","true","0","","true","<div class = centerbox><div  id = stim1></div></div>","-1","32","750","","test","nogo","242","random","","",""
"","259","32","1358","0","test_block","poldrack-single-stim","257","359463","0.0-5.0-243.0","go-nogo","true","0","","true","<div class = centerbox><div  id = stim2></div></div>","32","32","750","","test","go","243","random","","",""
"","-1","-1","1161","0","test_block","poldrack-single-stim","258","360656","0.0-5.0-244.0","go-nogo","true","1","","false","<div class = centerbox><div  id = stim2></div></div>","32","32","750","","test","go","244","random","","",""
"","785","32","1139","0","test_block","poldrack-single-stim","259","361821","0.0-5.0-245.0","go-nogo","true","0","","true","<div class = centerbox><div  id = stim2></div></div>","32","32","750","","test","go","245","random","","",""
"","338","32","1245","0","test_block","poldrack-single-stim","260","363099","0.0-5.0-246.0","go-nogo","true","0","","true","<div class = centerbox><div  id = stim2></div></div>","32","32","750","","test","go","246","random","","",""
"","197","32","1244","0","test_block","poldrack-single-stim","261","364372","0.0-5.0-247.0","go-nogo","true","0","","true","<div class = centerbox><div  id = stim2></div></div>","32","32","750","","test","go","247","random","","",""
"","299","32","1233","0","test_block","poldrack-single-stim","262","365630","0.0-5.0-248.0","go-nogo","true","0","","true","<div class = centerbox><div  id = stim2></div></div>","32","32","750","","test","go","248","random","","",""
"","238","32","1275","0","test_block","poldrack-single-stim","263","366939","0.0-5.0-249.0","go-nogo","true","0","","true","<div class = centerbox><div  id = stim2></div></div>","32","32","750","","test","go","249","random","","",""
"","275","32","1064","0","test_block","poldrack-single-stim","264","368029","0.0-5.0-250.0","go-nogo","true","0","","true","<div class = centerbox><div  id = stim2></div></div>","32","32","750","","test","go","250","random","","",""
"","579","32","1149","0","test_block","poldrack-single-stim","265","369209","0.0-5.0-251.0","go-nogo","true","1","","true","<div class = centerbox><div  id = stim2></div></div>","32","32","750","","test","go","251","random","","",""
"","260","32","1174","0","test_block","poldrack-single-stim","266","370412","0.0-5.0-252.0","go-nogo","true","0","","true","<div class = centerbox><div  id = stim2></div></div>","32","32","750","","test","go","252","random","","",""
"","273","32","1341","0","test_block","poldrack-single-stim","267","371778","0.0-5.0-253.0","go-nogo","true","0","","true","<div class = centerbox><div  id = stim2></div></div>","32","32","750","","test","go","253","random","","",""
"","237","32","1102","0","test_block","poldrack-single-stim","268","372905","0.0-5.0-254.0","go-nogo","true","0","","true","<div class = centerbox><div  id = stim2></div></div>","32","32","750","","test","go","254","random","","",""
"","506","32","1253","0","test_block","poldrack-single-stim","269","374203","0.0-5.0-255.0","go-nogo","true","0","","true","<div class = centerbox><div  id = stim2></div></div>","32","32","750","","test","go","255","random","","",""
"","-1","-1","1093","0","test_block","poldrack-single-stim","270","375323","0.0-5.0-256.0","go-nogo","true","0","","true","<div class = centerbox><div  id = stim1></div></div>","-1","32","750","","test","nogo","256","random","","",""
"","245","32","1425","0","test_block","poldrack-single-stim","271","376775","0.0-5.0-257.0","go-nogo","true","0","","true","<div class = centerbox><div  id = stim2></div></div>","32","32","750","","test","go","257","random","","",""
"","265","32","1468","0","test_block","poldrack-single-stim","272","378265","0.0-5.0-258.0","go-nogo","true","0","","true","<div class = centerbox><div  id = stim2></div></div>","32","32","750","","test","go","258","random","","",""
"","259","32","1275","0","test_block","poldrack-single-stim","273","379568","0.0-5.0-259.0","go-nogo","true","0","","true","<div class = centerbox><div  id = stim2></div></div>","32","32","750","","test","go","259","random","","",""
"","269","32","1285","0","test_block","poldrack-single-stim","274","380885","0.0-5.0-260.0","go-nogo","true","0","","true","<div class = centerbox><div  id = stim2></div></div>","32","32","750","","test","go","260","random","","",""
"","330","32","1103","0","test_block","poldrack-single-stim","275","382015","0.0-5.0-261.0","go-nogo","true","0","","true","<div class = centerbox><div  id = stim2></div></div>","32","32","750","","test","go","261","random","","",""
"","271","32","1363","0","test_block","poldrack-single-stim","276","383404","0.0-5.0-262.0","go-nogo","true","0","","true","<div class = centerbox><div  id = stim2></div></div>","32","32","750","","test","go","262","random","","",""
"","209","32","1397","0","test_block","poldrack-single-stim","277","384825","0.0-5.0-263.0","go-nogo","true","0","","true","<div class = centerbox><div  id = stim2></div></div>","32","32","750","","test","go","263","random","","",""
"","261","32","1164","0","test_block","poldrack-single-stim","278","386013","0.0-5.0-264.0","go-nogo","true","0","","true","<div class = centerbox><div  id = stim2></div></div>","32","32","750","","test","go","264","random","","",""
"","287","32","1336","0","test_block","poldrack-single-stim","279","387382","0.0-5.0-265.0","go-nogo","true","0","","true","<div class = centerbox><div  id = stim2></div></div>","32","32","750","","test","go","265","random","","",""
"","263","32","1221","0","test_block","poldrack-single-stim","280","388632","0.0-5.0-266.0","go-nogo","true","0","","true","<div class = centerbox><div  id = stim2></div></div>","32","32","750","","test","go","266","random","","",""
"","243","32","1334","0","test_block","poldrack-single-stim","281","390001","0.0-5.0-267.0","go-nogo","true","0","","true","<div class = centerbox><div  id = stim2></div></div>","32","32","750","","test","go","267","random","","",""
"","283","32","1069","0","test_block","poldrack-single-stim","282","391101","0.0-5.0-268.0","go-nogo","true","0","","true","<div class = centerbox><div  id = stim2></div></div>","32","32","750","","test","go","268","random","","",""
"","253","32","1480","0","test_block","poldrack-single-stim","283","392615","0.0-5.0-269.0","go-nogo","true","0","","true","<div class = centerbox><div  id = stim2></div></div>","32","32","750","","test","go","269","random","","",""
"","287","32","1489","0","test_block","poldrack-single-stim","284","394134","0.0-5.0-270.0","go-nogo","true","0","","true","<div class = centerbox><div  id = stim2></div></div>","32","32","750","","test","go","270","random","","",""
"","273","32","1030","0","test_block","poldrack-single-stim","285","395201","0.0-5.0-271.0","go-nogo","true","0","","true","<div class = centerbox><div  id = stim2></div></div>","32","32","750","","test","go","271","random","","",""
"","282","32","1190","0","test_block","poldrack-single-stim","286","396422","0.0-5.0-272.0","go-nogo","true","0","","true","<div class = centerbox><div  id = stim2></div></div>","32","32","750","","test","go","272","random","","",""
"","260","32","1390","0","test_block","poldrack-single-stim","287","397845","0.0-5.0-273.0","go-nogo","true","0","","true","<div class = centerbox><div  id = stim2></div></div>","32","32","750","","test","go","273","random","","",""
"","261","32","1178","0","test_block","poldrack-single-stim","288","399050","0.0-5.0-274.0","go-nogo","true","0","","true","<div class = centerbox><div  id = stim2></div></div>","32","32","750","","test","go","274","random","","",""
"","1104","32","1201","0","test_block","poldrack-single-stim","289","400279","0.0-5.0-275.0","go-nogo","true","1","","true","<div class = centerbox><div  id = stim2></div></div>","32","32","750","","test","go","275","random","","",""
"","452","32","1353","0","test_block","poldrack-single-stim","290","401660","0.0-5.0-276.0","go-nogo","true","0","","true","<div class = centerbox><div  id = stim2></div></div>","32","32","750","","test","go","276","random","","",""
"","254","32","1269","0","test_block","poldrack-single-stim","291","402957","0.0-5.0-277.0","go-nogo","true","0","","true","<div class = centerbox><div  id = stim2></div></div>","32","32","750","","test","go","277","random","","",""
"","317","32","1100","0","test_block","poldrack-single-stim","292","404090","0.0-5.0-278.0","go-nogo","true","0","","true","<div class = centerbox><div  id = stim2></div></div>","32","32","750","","test","go","278","random","","",""
"","302","32","1083","0","test_block","poldrack-single-stim","293","405208","0.0-5.0-279.0","go-nogo","true","0","","true","<div class = centerbox><div  id = stim2></div></div>","32","32","750","","test","go","279","random","","",""
"","336","32","1498","0","test_block","poldrack-single-stim","294","406742","0.0-5.0-280.0","go-nogo","true","1","","true","<div class = centerbox><div  id = stim2></div></div>","32","32","750","","test","go","280","random","","",""
"","-1","-1","1063","0","test_block","poldrack-single-stim","295","407837","0.0-5.0-281.0","go-nogo","true","0","","false","<div class = centerbox><div  id = stim2></div></div>","32","32","750","","test","go","281","random","","",""
"","-1","-1","1213","0","test_block","poldrack-single-stim","296","409078","0.0-5.0-282.0","go-nogo","true","0","","false","<div class = centerbox><div  id = stim2></div></div>","32","32","750","","test","go","282","random","","",""
"","212","32","1259","0","test_block","poldrack-single-stim","297","410365","0.0-5.0-283.0","go-nogo","true","0","","false","<div class = centerbox><div  id = stim1></div></div>","-1","32","750","","test","nogo","283","random","","",""
"","205","32","1398","0","test_block","poldrack-single-stim","298","411787","0.0-5.0-284.0","go-nogo","true","0","","true","<div class = centerbox><div  id = stim2></div></div>","32","32","750","","test","go","284","random","","",""
"","286","32","1208","0","test_block","poldrack-single-stim","299","413024","0.0-5.0-285.0","go-nogo","true","0","","true","<div class = centerbox><div  id = stim2></div></div>","32","32","750","","test","go","285","random","","",""
"","247","32","1185","0","test_block","poldrack-single-stim","300","414238","0.0-5.0-286.0","go-nogo","true","0","","true","<div class = centerbox><div  id = stim2></div></div>","32","32","750","","test","go","286","random","","",""
"","202","32","1480","0","test_block","poldrack-single-stim","301","415747","0.0-5.0-287.0","go-nogo","true","0","","true","<div class = centerbox><div  id = stim2></div></div>","32","32","750","","test","go","287","random","","",""
"","310","32","1466","0","test_block","poldrack-single-stim","302","417237","0.0-5.0-288.0","go-nogo","true","0","","true","<div class = centerbox><div  id = stim2></div></div>","32","32","750","","test","go","288","random","","",""
"","244","32","1240","0","test_block","poldrack-single-stim","303","418506","0.0-5.0-289.0","go-nogo","true","0","","true","<div class = centerbox><div  id = stim2></div></div>","32","32","750","","test","go","289","random","","",""
"","286","32","1068","0","test_block","poldrack-single-stim","304","419604","0.0-5.0-290.0","go-nogo","true","0","","true","<div class = centerbox><div  id = stim2></div></div>","32","32","750","","test","go","290","random","","",""
"","260","32","1069","0","test_block","poldrack-single-stim","305","420704","0.0-5.0-291.0","go-nogo","true","0","","true","<div class = centerbox><div  id = stim2></div></div>","32","32","750","","test","go","291","random","","",""
"","232","32","1491","0","test_block","poldrack-single-stim","306","422228","0.0-5.0-292.0","go-nogo","true","0","","true","<div class = centerbox><div  id = stim2></div></div>","32","32","750","","test","go","292","random","","",""
"","212","32","1165","0","test_block","poldrack-single-stim","307","423424","0.0-5.0-293.0","go-nogo","true","0","","true","<div class = centerbox><div  id = stim2></div></div>","32","32","750","","test","go","293","random","","",""
"","280","32","1032","0","test_block","poldrack-single-stim","308","424482","0.0-5.0-294.0","go-nogo","true","0","","true","<div class = centerbox><div  id = stim2></div></div>","32","32","750","","test","go","294","random","","",""
"","277","32","1107","0","test_block","poldrack-single-stim","309","425620","0.0-5.0-295.0","go-nogo","true","0","","false","<div class = centerbox><div  id = stim1></div></div>","-1","32","750","","test","nogo","295","random","","",""
"","276","32","1377","0","test_block","poldrack-single-stim","310","427030","0.0-5.0-296.0","go-nogo","true","0","","true","<div class = centerbox><div  id = stim2></div></div>","32","32","750","","test","go","296","random","","",""
"","258","32","1067","0","test_block","poldrack-single-stim","311","428129","0.0-5.0-297.0","go-nogo","true","0","","true","<div class = centerbox><div  id = stim2></div></div>","32","32","750","","test","go","297","random","","",""
"","310","32","1450","0","test_block","poldrack-single-stim","312","429610","0.0-5.0-298.0","go-nogo","true","0","","true","<div class = centerbox><div  id = stim2></div></div>","32","32","750","","test","go","298","random","","",""
"","282","32","1475","0","test_block","poldrack-single-stim","313","431113","0.0-5.0-299.0","go-nogo","true","0","","true","<div class = centerbox><div  id = stim2></div></div>","32","32","750","","test","go","299","random","","",""
"","247","32","1428","0","test_block","poldrack-single-stim","314","432571","0.0-5.0-300.0","go-nogo","true","0","","true","<div class = centerbox><div  id = stim2></div></div>","32","32","750","","test","go","300","random","","",""
"","276","32","1100","0","test_block","poldrack-single-stim","315","433702","0.0-5.0-301.0","go-nogo","true","0","","true","<div class = centerbox><div  id = stim2></div></div>","32","32","750","","test","go","301","random","","",""
"","303","32","1256","0","test_block","poldrack-single-stim","316","434989","0.0-5.0-302.0","go-nogo","true","0","","true","<div class = centerbox><div  id = stim2></div></div>","32","32","750","","test","go","302","random","","",""
"","296","32","1267","0","test_block","poldrack-single-stim","317","436281","0.0-5.0-303.0","go-nogo","true","0","","true","<div class = centerbox><div  id = stim2></div></div>","32","32","750","","test","go","303","random","","",""
"","316","32","1193","0","test_block","poldrack-single-stim","318","437499","0.0-5.0-304.0","go-nogo","true","0","","true","<div class = centerbox><div  id = stim2></div></div>","32","32","750","","test","go","304","random","","",""
"","297","32","1003","0","test_block","poldrack-single-stim","319","438529","0.0-5.0-305.0","go-nogo","true","0","","true","<div class = centerbox><div  id = stim2></div></div>","32","32","750","","test","go","305","random","","",""
"","356","32","1365","0","test_block","poldrack-single-stim","320","439925","0.0-5.0-306.0","go-nogo","true","0","","true","<div class = centerbox><div  id = stim2></div></div>","32","32","750","","test","go","306","random","","",""
"","272","32","1418","0","test_block","poldrack-single-stim","321","441370","0.0-5.0-307.0","go-nogo","true","0","","true","<div class = centerbox><div  id = stim2></div></div>","32","32","750","","test","go","307","random","","",""
"","264","32","1160","0","test_block","poldrack-single-stim","322","442565","0.0-5.0-308.0","go-nogo","true","0","","true","<div class = centerbox><div  id = stim2></div></div>","32","32","750","","test","go","308","random","","",""
"","320","32","1241","0","test_block","poldrack-single-stim","323","443838","0.0-5.0-309.0","go-nogo","true","0","","true","<div class = centerbox><div  id = stim2></div></div>","32","32","750","","test","go","309","random","","",""
"","246","32","1120","0","test_block","poldrack-single-stim","324","444986","0.0-5.0-310.0","go-nogo","true","0","","true","<div class = centerbox><div  id = stim2></div></div>","32","32","750","","test","go","310","random","","",""
"","264","32","1173","0","test_block","poldrack-single-stim","325","446192","0.0-5.0-311.0","go-nogo","true","0","","true","<div class = centerbox><div  id = stim2></div></div>","32","32","750","","test","go","311","random","","",""
"","211","32","1073","0","test_block","poldrack-single-stim","326","447293","0.0-5.0-312.0","go-nogo","true","0","","true","<div class = centerbox><div  id = stim2></div></div>","32","32","750","","test","go","312","random","","",""
"","215","32","1109","0","test_block","poldrack-single-stim","327","448430","0.0-5.0-313.0","go-nogo","true","0","","true","<div class = centerbox><div  id = stim2></div></div>","32","32","750","","test","go","313","random","","",""
"","278","32","1125","0","test_block","poldrack-single-stim","328","449581","0.0-5.0-314.0","go-nogo","true","0","","true","<div class = centerbox><div  id = stim2></div></div>","32","32","750","","test","go","314","random","","",""
"","264","32","1005","0","test_block","poldrack-single-stim","329","450616","0.0-5.0-315.0","go-nogo","true","0","","true","<div class = centerbox><div  id = stim2></div></div>","32","32","750","","test","go","315","random","","",""
"","300","32","1271","0","test_block","poldrack-single-stim","330","451919","0.0-5.0-316.0","go-nogo","true","0","","true","<div class = centerbox><div  id = stim2></div></div>","32","32","750","","test","go","316","random","","",""
"","164","32","1360","0","test_block","poldrack-single-stim","331","453306","0.0-5.0-317.0","go-nogo","true","0","","false","<div class = centerbox><div  id = stim1></div></div>","-1","32","750","","test","nogo","317","random","","",""
"","264","32","1423","0","test_block","poldrack-single-stim","332","454759","0.0-5.0-318.0","go-nogo","true","0","","true","<div class = centerbox><div  id = stim2></div></div>","32","32","750","","test","go","318","random","","",""
"","-1","-1","1327","0","test_block","poldrack-single-stim","333","456118","0.0-5.0-319.0","go-nogo","true","1","","false","<div class = centerbox><div  id = stim2></div></div>","32","32","750","","test","go","319","random","","",""
"","349","32","1322","0","test_block","poldrack-single-stim","334","457470","0.0-5.0-320.0","go-nogo","true","0","","true","<div class = centerbox><div  id = stim2></div></div>","32","32","750","","test","go","320","random","","",""
"","245","32","1205","0","test_block","poldrack-single-stim","335","458741","0.0-5.0-321.0","go-nogo","true","0","","true","<div class = centerbox><div  id = stim2></div></div>","32","32","750","","test","go","321","random","","",""
"","-1","-1","1412","0","test_block","poldrack-single-stim","336","460181","0.0-5.0-322.0","go-nogo","true","0","","true","<div class = centerbox><div  id = stim1></div></div>","-1","32","750","","test","nogo","322","random","","",""
"","259","32","1177","0","test_block","poldrack-single-stim","337","461392","0.0-5.0-323.0","go-nogo","true","0","","true","<div class = centerbox><div  id = stim2></div></div>","32","32","750","","test","go","323","random","","",""
"","311","32","1328","0","test_block","poldrack-single-stim","338","462752","0.0-5.0-324.0","go-nogo","true","0","","true","<div class = centerbox><div  id = stim2></div></div>","32","32","750","","test","go","324","random","","",""
"","266","32","1461","0","test_block","poldrack-single-stim","339","464243","0.0-5.0-325.0","go-nogo","true","0","","true","<div class = centerbox><div  id = stim2></div></div>","32","32","750","","test","go","325","random","","",""
"","260","32","1084","0","test_block","poldrack-single-stim","340","465353","0.0-5.0-326.0","go-nogo","true","0","","true","<div class = centerbox><div  id = stim2></div></div>","32","32","750","","test","go","326","random","","",""
"","286","32","1344","0","test_block","poldrack-single-stim","341","466730","0.0-5.0-327.0","go-nogo","true","0","","true","<div class = centerbox><div  id = stim2></div></div>","32","32","750","","test","go","327","random","","",""
"","222","32","1427","0","test_block","poldrack-single-stim","342","468190","0.0-5.0-328.0","go-nogo","true","0","","true","<div class = centerbox><div  id = stim2></div></div>","32","32","750","","test","go","328","random","","",""
"","271","32","1346","0","test_block","poldrack-single-stim","343","469580","0.0-5.0-329.0","go-nogo","true","0","","true","<div class = centerbox><div  id = stim2></div></div>","32","32","750","","test","go","329","random","","",""
"","296","32","1261","0","test_block","poldrack-single-stim","344","470874","0.0-5.0-330.0","go-nogo","true","0","","true","<div class = centerbox><div  id = stim2></div></div>","32","32","750","","test","go","330","random","","",""
"","123","32","1099","0","test_block","poldrack-single-stim","345","472001","0.0-5.0-331.0","go-nogo","true","0","","true","<div class = centerbox><div  id = stim2></div></div>","32","32","750","","test","go","331","random","","",""
"","248","32","1471","0","test_block","poldrack-single-stim","346","473495","0.0-5.0-332.0","go-nogo","true","0","","false","<div class = centerbox><div  id = stim1></div></div>","-1","32","750","","test","nogo","332","random","","",""
"","240","32","1402","0","test_block","poldrack-single-stim","347","474931","0.0-5.0-333.0","go-nogo","true","0","","true","<div class = centerbox><div  id = stim2></div></div>","32","32","750","","test","go","333","random","","",""
"","261","32","1008","0","test_block","poldrack-single-stim","348","475970","0.0-5.0-334.0","go-nogo","true","0","","true","<div class = centerbox><div  id = stim2></div></div>","32","32","750","","test","go","334","random","","",""
"","357","32","1366","0","test_block","poldrack-single-stim","349","477365","0.0-5.0-335.0","go-nogo","true","0","","true","<div class = centerbox><div  id = stim2></div></div>","32","32","750","","test","go","335","random","","",""
"","252","32","1243","0","test_block","poldrack-single-stim","350","478640","0.0-5.0-336.0","go-nogo","true","0","","true","<div class = centerbox><div  id = stim2></div></div>","32","32","750","","test","go","336","random","","",""
"","229","32","1313","0","test_block","poldrack-single-stim","351","479981","0.0-5.0-337.0","go-nogo","true","0","","true","<div class = centerbox><div  id = stim2></div></div>","32","32","750","","test","go","337","random","","",""
"","215","32","1442","0","test_block","poldrack-single-stim","352","481450","0.0-5.0-338.0","go-nogo","true","0","","true","<div class = centerbox><div  id = stim2></div></div>","32","32","750","","test","go","338","random","","",""
"","267","32","1431","0","test_block","poldrack-single-stim","353","482910","0.0-5.0-339.0","go-nogo","true","0","","true","<div class = centerbox><div  id = stim2></div></div>","32","32","750","","test","go","339","random","","",""
"","264","32","1323","0","test_block","poldrack-single-stim","354","484265","0.0-5.0-340.0","go-nogo","true","0","","true","<div class = centerbox><div  id = stim2></div></div>","32","32","750","","test","go","340","random","","",""
"","283","32","1291","0","test_block","poldrack-single-stim","355","485591","0.0-5.0-341.0","go-nogo","true","0","","true","<div class = centerbox><div  id = stim2></div></div>","32","32","750","","test","go","341","random","","",""
"","254","32","1098","0","test_block","poldrack-single-stim","356","486715","0.0-5.0-342.0","go-nogo","true","0","","true","<div class = centerbox><div  id = stim2></div></div>","32","32","750","","test","go","342","random","","",""
"","296","32","1099","0","test_block","poldrack-single-stim","357","487840","0.0-5.0-343.0","go-nogo","true","0","","true","<div class = centerbox><div  id = stim2></div></div>","32","32","750","","test","go","343","random","","",""
"","276","32","1303","0","test_block","poldrack-single-stim","358","489169","0.0-5.0-344.0","go-nogo","true","0","","true","<div class = centerbox><div  id = stim2></div></div>","32","32","750","","test","go","344","random","","",""
"","338","32","1314","0","test_block","poldrack-single-stim","359","490510","0.0-5.0-345.0","go-nogo","true","0","","true","<div class = centerbox><div  id = stim2></div></div>","32","32","750","","test","go","345","random","","",""
"","309","32","1414","0","test_block","poldrack-single-stim","360","491950","0.0-5.0-346.0","go-nogo","true","0","","true","<div class = centerbox><div  id = stim2></div></div>","32","32","750","","test","go","346","random","","",""
"","-1","-1","1444","0","test_block","poldrack-single-stim","361","493420","0.0-5.0-347.0","go-nogo","true","0","","true","<div class = centerbox><div  id = stim1></div></div>","-1","32","750","","test","nogo","347","random","","",""
"","261","32","1161","0","test_block","poldrack-single-stim","362","494611","0.0-5.0-348.0","go-nogo","true","0","","true","<div class = centerbox><div  id = stim2></div></div>","32","32","750","","test","go","348","random","","",""
"","347","32","1021","0","test_block","poldrack-single-stim","363","495666","0.0-5.0-349.0","go-nogo","true","0","","true","<div class = centerbox><div  id = stim2></div></div>","32","32","750","","test","go","349","random","","",""
"","27725","","","","post task questions","survey-text","364","523421","0.0-7.0","go-nogo","true","0","","","","","","","","","","","","{""Q0"":""Press the spacebar as quickly as possible on blue squares and do nothing on orange."",""Q1"":""Thank you for the task.""}","",""
"<div class = centerbox><p class = center-block-text>Thanks for completing this task!</p><p class = center-block-text>Insert the following code to collect your payment at Amazon Mechanical Turk:</p><p class = center-block-text>147777317</p><p class = center-block-text>Press <strong>enter</strong> to continue.</p></div>","4606","13","4606","0","end","poldrack-text","365","529031","0.0-8.0","go-nogo","true","0","","","","","","","","","","","","","147777317","true"
