"text","rt","key_press","block_duration","timing_post_trial","trial_id","trial_type","trial_index","time_elapsed","internal_node_id","exp_id","full_screen","focus_shifts","view_history","correct","stimulus","correct_response","possible_responses","stim_duration","feedback_duration","exp_stage","condition","trial_num","mode","responses","payment_id","credit_var"
"<div class = centerbox><p class = center-block-text>Welcome to the experiment. This task will take around 10 minutes. Press <strong>enter</strong> to begin.</p></div>","2686","13","2686","0","instruction","poldrack-text","0","2688","0.0-0.0-0.0","go-nogo","true","0","","","","","","","","","","","","","",""
"","9701","","","","instruction","poldrack-instructions","1","12390","0.0-0.0-1.0","go-nogo","true","0","[{""page_index"":0,""viewing_time"":9700}]","","","","","","","","","","","","",""
"","362","32","1125","250","practice","poldrack-categorize","2","15528","0.0-1.0-0.0","go-nogo","true","0","","true","<div class = centerbox><div  id = stim2></div></div>","32","32","750","1000","practice","go","0","random","","",""
"","359","32","1274","250","practice","poldrack-categorize","3","18067","0.0-1.0-1.0","go-nogo","true","0","","true","<div class = centerbox><div  id = stim2></div></div>","32","32","750","1000","practice","go","1","random","","",""
"","391","32","1126","250","practice","poldrack-categorize","4","20452","0.0-1.0-2.0","go-nogo","true","0","","true","<div class = centerbox><div  id = stim2></div></div>","32","32","750","1000","practice","go","2","random","","",""
"","-1","-1","1299","250","practice","poldrack-categorize","5","23012","0.0-1.0-3.0","go-nogo","true","0","","true","<div class = centerbox><div id = stim1></div></div>","-1","32","750","1000","practice","nogo","3","random","","",""
"","-1","-1","1406","250","practice","poldrack-categorize","6","25676","0.0-1.0-4.0","go-nogo","true","0","","true","<div class = centerbox><div id = stim1></div></div>","-1","32","750","1000","practice","nogo","4","random","","",""
"","-1","-1","1245","250","practice","poldrack-categorize","7","28250","0.0-1.0-5.0","go-nogo","false","0","","true","<div class = centerbox><div id = stim1></div></div>","-1","32","750","1000","practice","nogo","5","random","","",""
"","393","32","1008","250","practice","poldrack-categorize","8","30517","0.0-1.0-6.0","go-nogo","false","0","","true","<div class = centerbox><div  id = stim2></div></div>","32","32","750","1000","practice","go","6","random","","",""
"","778","32","1490","250","practice","poldrack-categorize","9","33270","0.0-1.0-7.0","go-nogo","false","0","","true","<div class = centerbox><div  id = stim2></div></div>","32","32","750","1000","practice","go","7","random","","",""
"","-1","-1","1134","250","practice","poldrack-categorize","10","35666","0.0-1.0-8.0","go-nogo","false","0","","true","<div class = centerbox><div id = stim1></div></div>","-1","32","750","1000","practice","nogo","8","random","","",""
"","-1","-1","1419","250","practice","poldrack-categorize","11","38341","0.0-1.0-9.0","go-nogo","false","0","","true","<div class = centerbox><div id = stim1></div></div>","-1","32","750","1000","practice","nogo","9","random","","",""
"","","","","","reset_trial","call-function","12","38592","0.0-3.0","go-nogo","false","0","","","","","","","","","","","","","",""
"<div class = centerbox><p class = block-text>Practice is over, we will now begin the experiment. You will no longer get feedback about your responses.</p><p class = block-text>Remember, if you see the <font color=""blue"">blue</font> square you should <strong> respond by pressing the spacebar as quickly as possible</strong>. If you see the <font color=""orange"">orange</font> square you should <strong> not respond</strong>. Press <strong>enter</strong> to begin.</p></div>","4211","13","4211","1000","test_intro","poldrack-text","13","42803","0.0-4.0","go-nogo","false","0","","","","","","","","","","","","","",""
"","322","32","1388","0","test_block","poldrack-single-stim","14","45200","0.0-5.0-0.0","go-nogo","false","0","","true","<div class = centerbox><div  id = stim2></div></div>","32","32","750","","test","go","0","random","","",""
"","439","32","1045","0","test_block","poldrack-single-stim","15","46309","0.0-5.0-1.0","go-nogo","false","0","","true","<div class = centerbox><div  id = stim2></div></div>","32","32","750","","test","go","1","random","","",""
"","452","32","1103","0","test_block","poldrack-single-stim","16","47450","0.0-5.0-2.0","go-nogo","false","0","","true","<div class = centerbox><div  id = stim2></div></div>","32","32","750","","test","go","2","random","","",""
"","363","32","1093","0","test_block","poldrack-single-stim","17","48576","0.0-5.0-3.0","go-nogo","false","0","","true","<div class = centerbox><div  id = stim2></div></div>","32","32","750","","test","go","3","random","","",""
"","-1","-1","1098","0","test_block","poldrack-single-stim","18","49707","0.0-5.0-4.0","go-nogo","false","0","","true","<div class = centerbox><div  id = stim1></div></div>","-1","32","750","","test","nogo","4","random","","",""
"","-1","-1","1150","0","test_block","poldrack-single-stim","19","50892","0.0-5.0-5.0","go-nogo","false","0","","true","<div class = centerbox><div  id = stim1></div></div>","-1","32","750","","test","nogo","5","random","","",""
"","413","32","1228","0","test_block","poldrack-single-stim","20","52154","0.0-5.0-6.0","go-nogo","false","0","","true","<div class = centerbox><div  id = stim2></div></div>","32","32","750","","test","go","6","random","","",""
"","329","32","1211","0","test_block","poldrack-single-stim","21","53402","0.0-5.0-7.0","go-nogo","false","0","","true","<div class = centerbox><div  id = stim2></div></div>","32","32","750","","test","go","7","random","","",""
"","414","32","1462","0","test_block","poldrack-single-stim","22","54892","0.0-5.0-8.0","go-nogo","false","0","","true","<div class = centerbox><div  id = stim2></div></div>","32","32","750","","test","go","8","random","","",""
"","334","32","1084","0","test_block","poldrack-single-stim","23","56015","0.0-5.0-9.0","go-nogo","false","0","","true","<div class = centerbox><div  id = stim2></div></div>","32","32","750","","test","go","9","random","","",""
"","372","32","1123","0","test_block","poldrack-single-stim","24","57253","0.0-5.0-10.0","go-nogo","false","0","","true","<div class = centerbox><div  id = stim2></div></div>","32","32","750","","test","go","10","random","","",""
"","330","32","1454","0","test_block","poldrack-single-stim","25","58741","0.0-5.0-11.0","go-nogo","false","0","","true","<div class = centerbox><div  id = stim2></div></div>","32","32","750","","test","go","11","random","","",""
"","363","32","1440","0","test_block","poldrack-single-stim","26","60213","0.0-5.0-12.0","go-nogo","false","0","","true","<div class = centerbox><div  id = stim2></div></div>","32","32","750","","test","go","12","random","","",""
"","371","32","1042","0","test_block","poldrack-single-stim","27","61349","0.0-5.0-13.0","go-nogo","false","0","","true","<div class = centerbox><div  id = stim2></div></div>","32","32","750","","test","go","13","random","","",""
"","459","32","1206","0","test_block","poldrack-single-stim","28","62656","0.0-5.0-14.0","go-nogo","false","0","","true","<div class = centerbox><div  id = stim2></div></div>","32","32","750","","test","go","14","random","","",""
"","338","32","1454","0","test_block","poldrack-single-stim","29","64139","0.0-5.0-15.0","go-nogo","false","0","","true","<div class = centerbox><div  id = stim2></div></div>","32","32","750","","test","go","15","random","","",""
"","417","32","1084","0","test_block","poldrack-single-stim","30","65259","0.0-5.0-16.0","go-nogo","false","0","","true","<div class = centerbox><div  id = stim2></div></div>","32","32","750","","test","go","16","random","","",""
"","324","32","1134","0","test_block","poldrack-single-stim","31","66442","0.0-5.0-17.0","go-nogo","false","0","","true","<div class = centerbox><div  id = stim2></div></div>","32","32","750","","test","go","17","random","","",""
"","317","32","1098","0","test_block","poldrack-single-stim","32","67627","0.0-5.0-18.0","go-nogo","false","0","","true","<div class = centerbox><div  id = stim2></div></div>","32","32","750","","test","go","18","random","","",""
"","463","32","1448","0","test_block","poldrack-single-stim","33","69194","0.0-5.0-19.0","go-nogo","false","0","","true","<div class = centerbox><div  id = stim2></div></div>","32","32","750","","test","go","19","random","","",""
"","297","32","1248","0","test_block","poldrack-single-stim","34","70469","0.0-5.0-20.0","go-nogo","false","0","","true","<div class = centerbox><div  id = stim2></div></div>","32","32","750","","test","go","20","random","","",""
"","295","32","1362","0","test_block","poldrack-single-stim","35","71859","0.0-5.0-21.0","go-nogo","false","0","","true","<div class = centerbox><div  id = stim2></div></div>","32","32","750","","test","go","21","random","","",""
"","290","32","1111","0","test_block","poldrack-single-stim","36","73045","0.0-5.0-22.0","go-nogo","false","0","","true","<div class = centerbox><div  id = stim2></div></div>","32","32","750","","test","go","22","random","","",""
"","-1","-1","1156","0","test_block","poldrack-single-stim","37","74229","0.0-5.0-23.0","go-nogo","false","0","","true","<div class = centerbox><div  id = stim1></div></div>","-1","32","750","","test","nogo","23","random","","",""
"","411","32","1468","0","test_block","poldrack-single-stim","38","75745","0.0-5.0-24.0","go-nogo","false","0","","true","<div class = centerbox><div  id = stim2></div></div>","32","32","750","","test","go","24","random","","",""
"","297","32","1340","0","test_block","poldrack-single-stim","39","77178","0.0-5.0-25.0","go-nogo","false","0","","true","<div class = centerbox><div  id = stim2></div></div>","32","32","750","","test","go","25","random","","",""
"","322","32","1431","0","test_block","poldrack-single-stim","40","78676","0.0-5.0-26.0","go-nogo","false","0","","true","<div class = centerbox><div  id = stim2></div></div>","32","32","750","","test","go","26","random","","",""
"","270","32","1096","0","test_block","poldrack-single-stim","41","79802","0.0-5.0-27.0","go-nogo","false","0","","true","<div class = centerbox><div  id = stim2></div></div>","32","32","750","","test","go","27","random","","",""
"","300","32","1238","0","test_block","poldrack-single-stim","42","81137","0.0-5.0-28.0","go-nogo","false","0","","true","<div class = centerbox><div  id = stim2></div></div>","32","32","750","","test","go","28","random","","",""
"","287","32","1009","0","test_block","poldrack-single-stim","43","82278","0.0-5.0-29.0","go-nogo","false","0","","true","<div class = centerbox><div  id = stim2></div></div>","32","32","750","","test","go","29","random","","",""
"","389","32","1105","0","test_block","poldrack-single-stim","44","83460","0.0-5.0-30.0","go-nogo","false","0","","true","<div class = centerbox><div  id = stim2></div></div>","32","32","750","","test","go","30","random","","",""
"","375","32","1468","0","test_block","poldrack-single-stim","45","85188","0.0-5.0-31.0","go-nogo","false","1","","true","<div class = centerbox><div  id = stim2></div></div>","32","32","750","","test","go","31","random","","",""
"","533","32","1049","0","test_block","poldrack-single-stim","46","86266","0.0-5.0-32.0","go-nogo","false","0","","true","<div class = centerbox><div  id = stim2></div></div>","32","32","750","","test","go","32","random","","",""
"","483","32","1351","0","test_block","poldrack-single-stim","47","87652","0.0-5.0-33.0","go-nogo","false","0","","true","<div class = centerbox><div  id = stim2></div></div>","32","32","750","","test","go","33","random","","",""
"","313","32","1171","0","test_block","poldrack-single-stim","48","88849","0.0-5.0-34.0","go-nogo","false","0","","true","<div class = centerbox><div  id = stim2></div></div>","32","32","750","","test","go","34","random","","",""
"","249","32","1404","0","test_block","poldrack-single-stim","49","90282","0.0-5.0-35.0","go-nogo","false","0","","true","<div class = centerbox><div  id = stim2></div></div>","32","32","750","","test","go","35","random","","",""
"","25","32","1147","0","test_block","poldrack-single-stim","50","91458","0.0-5.0-36.0","go-nogo","false","0","","true","<div class = centerbox><div  id = stim2></div></div>","32","32","750","","test","go","36","random","","",""
"","123","32","1463","0","test_block","poldrack-single-stim","51","92948","0.0-5.0-37.0","go-nogo","false","0","","true","<div class = centerbox><div  id = stim2></div></div>","32","32","750","","test","go","37","random","","",""
"","237","32","1188","0","test_block","poldrack-single-stim","52","94163","0.0-5.0-38.0","go-nogo","false","0","","true","<div class = centerbox><div  id = stim2></div></div>","32","32","750","","test","go","38","random","","",""
"","160","32","1199","0","test_block","poldrack-single-stim","53","95418","0.0-5.0-39.0","go-nogo","false","0","","true","<div class = centerbox><div  id = stim2></div></div>","32","32","750","","test","go","39","random","","",""
"","833","32","1106","0","test_block","poldrack-single-stim","54","96548","0.0-5.0-40.0","go-nogo","false","0","","true","<div class = centerbox><div  id = stim2></div></div>","32","32","750","","test","go","40","random","","",""
"","-1","-1","1260","0","test_block","poldrack-single-stim","55","97834","0.0-5.0-41.0","go-nogo","false","0","","true","<div class = centerbox><div  id = stim1></div></div>","-1","32","750","","test","nogo","41","random","","",""
"","488","32","1452","0","test_block","poldrack-single-stim","56","99310","0.0-5.0-42.0","go-nogo","false","0","","true","<div class = centerbox><div  id = stim2></div></div>","32","32","750","","test","go","42","random","","",""
"","603","32","1030","0","test_block","poldrack-single-stim","57","100369","0.0-5.0-43.0","go-nogo","false","0","","true","<div class = centerbox><div  id = stim2></div></div>","32","32","750","","test","go","43","random","","",""
"","577","32","1479","0","test_block","poldrack-single-stim","58","101914","0.0-5.0-44.0","go-nogo","false","0","","true","<div class = centerbox><div  id = stim2></div></div>","32","32","750","","test","go","44","random","","",""
"","296","32","1122","0","test_block","poldrack-single-stim","59","103065","0.0-5.0-45.0","go-nogo","false","0","","true","<div class = centerbox><div  id = stim2></div></div>","32","32","750","","test","go","45","random","","",""
"","-1","-1","1220","0","test_block","poldrack-single-stim","60","104314","0.0-5.0-46.0","go-nogo","false","0","","true","<div class = centerbox><div  id = stim1></div></div>","-1","32","750","","test","nogo","46","random","","",""
"","390","32","1207","0","test_block","poldrack-single-stim","61","105585","0.0-5.0-47.0","go-nogo","false","0","","true","<div class = centerbox><div  id = stim2></div></div>","32","32","750","","test","go","47","random","","",""
"","609","32","1207","0","test_block","poldrack-single-stim","62","106873","0.0-5.0-48.0","go-nogo","false","0","","true","<div class = centerbox><div  id = stim2></div></div>","32","32","750","","test","go","48","random","","",""
"","491","32","1421","0","test_block","poldrack-single-stim","63","108329","0.0-5.0-49.0","go-nogo","false","0","","true","<div class = centerbox><div  id = stim2></div></div>","32","32","750","","test","go","49","random","","",""
"","449","32","1417","0","test_block","poldrack-single-stim","64","109770","0.0-5.0-50.0","go-nogo","false","0","","true","<div class = centerbox><div  id = stim2></div></div>","32","32","750","","test","go","50","random","","",""
"","579","32","1394","0","test_block","poldrack-single-stim","65","111237","0.0-5.0-51.0","go-nogo","false","0","","true","<div class = centerbox><div  id = stim2></div></div>","32","32","750","","test","go","51","random","","",""
"","369","32","1040","0","test_block","poldrack-single-stim","66","112330","0.0-5.0-52.0","go-nogo","false","0","","true","<div class = centerbox><div  id = stim2></div></div>","32","32","750","","test","go","52","random","","",""
"","282","32","1465","0","test_block","poldrack-single-stim","67","113818","0.0-5.0-53.0","go-nogo","false","0","","true","<div class = centerbox><div  id = stim2></div></div>","32","32","750","","test","go","53","random","","",""
"","306","32","1298","0","test_block","poldrack-single-stim","68","115216","0.0-5.0-54.0","go-nogo","false","0","","true","<div class = centerbox><div  id = stim2></div></div>","32","32","750","","test","go","54","random","","",""
"","295","32","1258","0","test_block","poldrack-single-stim","69","116544","0.0-5.0-55.0","go-nogo","false","0","","true","<div class = centerbox><div  id = stim2></div></div>","32","32","750","","test","go","55","random","","",""
"","284","32","1026","0","test_block","poldrack-single-stim","70","117594","0.0-5.0-56.0","go-nogo","false","0","","true","<div class = centerbox><div  id = stim2></div></div>","32","32","750","","test","go","56","random","","",""
"","505","32","1044","0","test_block","poldrack-single-stim","71","118682","0.0-5.0-57.0","go-nogo","false","0","","false","<div class = centerbox><div  id = stim1></div></div>","-1","32","750","","test","nogo","57","random","","",""
"","412","32","1247","0","test_block","poldrack-single-stim","72","120017","0.0-5.0-58.0","go-nogo","false","0","","true","<div class = centerbox><div  id = stim2></div></div>","32","32","750","","test","go","58","random","","",""
"","346","32","1144","0","test_block","poldrack-single-stim","73","121258","0.0-5.0-59.0","go-nogo","false","0","","true","<div class = centerbox><div  id = stim2></div></div>","32","32","750","","test","go","59","random","","",""
"","322","32","1353","0","test_block","poldrack-single-stim","74","122665","0.0-5.0-60.0","go-nogo","false","0","","true","<div class = centerbox><div  id = stim2></div></div>","32","32","750","","test","go","60","random","","",""
"","293","32","1455","0","test_block","poldrack-single-stim","75","124190","0.0-5.0-61.0","go-nogo","false","0","","true","<div class = centerbox><div  id = stim2></div></div>","32","32","750","","test","go","61","random","","",""
"","290","32","1121","0","test_block","poldrack-single-stim","76","125397","0.0-5.0-62.0","go-nogo","false","0","","true","<div class = centerbox><div  id = stim2></div></div>","32","32","750","","test","go","62","random","","",""
"","394","32","1283","0","test_block","poldrack-single-stim","77","126747","0.0-5.0-63.0","go-nogo","false","0","","true","<div class = centerbox><div  id = stim2></div></div>","32","32","750","","test","go","63","random","","",""
"","329","32","1491","0","test_block","poldrack-single-stim","78","128280","0.0-5.0-64.0","go-nogo","false","0","","true","<div class = centerbox><div  id = stim2></div></div>","32","32","750","","test","go","64","random","","",""
"","320","32","1261","0","test_block","poldrack-single-stim","79","129579","0.0-5.0-65.0","go-nogo","false","0","","true","<div class = centerbox><div  id = stim2></div></div>","32","32","750","","test","go","65","random","","",""
"","553","32","1131","0","test_block","poldrack-single-stim","80","130737","0.0-5.0-66.0","go-nogo","false","0","","true","<div class = centerbox><div  id = stim2></div></div>","32","32","750","","test","go","66","random","","",""
"","801","32","1162","0","test_block","poldrack-single-stim","81","131982","0.0-5.0-67.0","go-nogo","false","0","","true","<div class = centerbox><div  id = stim2></div></div>","32","32","750","","test","go","67","random","","",""
"","491","32","1434","0","test_block","poldrack-single-stim","82","133443","0.0-5.0-68.0","go-nogo","false","0","","true","<div class = centerbox><div  id = stim2></div></div>","32","32","750","","test","go","68","random","","",""
"","315","32","1435","0","test_block","poldrack-single-stim","83","134927","0.0-5.0-69.0","go-nogo","false","0","","true","<div class = centerbox><div  id = stim2></div></div>","32","32","750","","test","go","69","random","","",""
"","309","32","1360","0","test_block","poldrack-single-stim","84","136313","0.0-5.0-70.0","go-nogo","false","0","","true","<div class = centerbox><div  id = stim2></div></div>","32","32","750","","test","go","70","random","","",""
"","297","32","1120","0","test_block","poldrack-single-stim","85","137459","0.0-5.0-71.0","go-nogo","false","0","","true","<div class = centerbox><div  id = stim2></div></div>","32","32","750","","test","go","71","random","","",""
"","537","32","1042","0","test_block","poldrack-single-stim","86","138524","0.0-5.0-72.0","go-nogo","false","0","","true","<div class = centerbox><div  id = stim2></div></div>","32","32","750","","test","go","72","random","","",""
"","545","32","1193","0","test_block","poldrack-single-stim","87","139747","0.0-5.0-73.0","go-nogo","false","0","","true","<div class = centerbox><div  id = stim2></div></div>","32","32","750","","test","go","73","random","","",""
"","302","32","1266","0","test_block","poldrack-single-stim","88","141038","0.0-5.0-74.0","go-nogo","false","0","","true","<div class = centerbox><div  id = stim2></div></div>","32","32","750","","test","go","74","random","","",""
"","366","32","1185","0","test_block","poldrack-single-stim","89","142249","0.0-5.0-75.0","go-nogo","false","0","","true","<div class = centerbox><div  id = stim2></div></div>","32","32","750","","test","go","75","random","","",""
"","458","32","1356","0","test_block","poldrack-single-stim","90","143631","0.0-5.0-76.0","go-nogo","false","0","","false","<div class = centerbox><div  id = stim1></div></div>","-1","32","750","","test","nogo","76","random","","",""
"","-1","-1","1191","0","test_block","poldrack-single-stim","91","144848","0.0-5.0-77.0","go-nogo","false","0","","true","<div class = centerbox><div  id = stim1></div></div>","-1","32","750","","test","nogo","77","random","","",""
"","416","32","1056","0","test_block","poldrack-single-stim","92","145933","0.0-5.0-78.0","go-nogo","false","0","","true","<div class = centerbox><div  id = stim2></div></div>","32","32","750","","test","go","78","random","","",""
"","543","32","1463","0","test_block","poldrack-single-stim","93","147421","0.0-5.0-79.0","go-nogo","false","0","","true","<div class = centerbox><div  id = stim2></div></div>","32","32","750","","test","go","79","random","","",""
"","316","32","1338","0","test_block","poldrack-single-stim","94","148867","0.0-5.0-80.0","go-nogo","false","0","","true","<div class = centerbox><div  id = stim2></div></div>","32","32","750","","test","go","80","random","","",""
"","94","32","1012","0","test_block","poldrack-single-stim","95","149954","0.0-5.0-81.0","go-nogo","false","0","","true","<div class = centerbox><div  id = stim2></div></div>","32","32","750","","test","go","81","random","","",""
"","295","32","1222","0","test_block","poldrack-single-stim","96","151203","0.0-5.0-82.0","go-nogo","false","0","","true","<div class = centerbox><div  id = stim2></div></div>","32","32","750","","test","go","82","random","","",""
"","-1","-1","1348","0","test_block","poldrack-single-stim","97","152578","0.0-5.0-83.0","go-nogo","false","0","","true","<div class = centerbox><div  id = stim1></div></div>","-1","32","750","","test","nogo","83","random","","",""
"","280","32","1499","0","test_block","poldrack-single-stim","98","154104","0.0-5.0-84.0","go-nogo","false","0","","true","<div class = centerbox><div  id = stim2></div></div>","32","32","750","","test","go","84","random","","",""
"","-1","-1","1086","0","test_block","poldrack-single-stim","99","155216","0.0-5.0-85.0","go-nogo","false","0","","true","<div class = centerbox><div  id = stim1></div></div>","-1","32","750","","test","nogo","85","random","","",""
"","403","32","1279","0","test_block","poldrack-single-stim","100","156521","0.0-5.0-86.0","go-nogo","false","0","","true","<div class = centerbox><div  id = stim2></div></div>","32","32","750","","test","go","86","random","","",""
"","396","32","1010","0","test_block","poldrack-single-stim","101","157637","0.0-5.0-87.0","go-nogo","false","0","","true","<div class = centerbox><div  id = stim2></div></div>","32","32","750","","test","go","87","random","","",""
"","488","32","1212","0","test_block","poldrack-single-stim","102","158898","0.0-5.0-88.0","go-nogo","false","0","","true","<div class = centerbox><div  id = stim2></div></div>","32","32","750","","test","go","88","random","","",""
"","289","32","1417","0","test_block","poldrack-single-stim","103","160338","0.0-5.0-89.0","go-nogo","false","0","","true","<div class = centerbox><div  id = stim2></div></div>","32","32","750","","test","go","89","random","","",""
"","-1","-1","1249","0","test_block","poldrack-single-stim","104","161618","0.0-5.0-90.0","go-nogo","false","0","","true","<div class = centerbox><div  id = stim1></div></div>","-1","32","750","","test","nogo","90","random","","",""
"","-1","-1","1048","0","test_block","poldrack-single-stim","105","162738","0.0-5.0-91.0","go-nogo","false","0","","true","<div class = centerbox><div  id = stim1></div></div>","-1","32","750","","test","nogo","91","random","","",""
"","481","32","1271","0","test_block","poldrack-single-stim","106","164082","0.0-5.0-92.0","go-nogo","false","0","","true","<div class = centerbox><div  id = stim2></div></div>","32","32","750","","test","go","92","random","","",""
"","290","32","1289","0","test_block","poldrack-single-stim","107","165443","0.0-5.0-93.0","go-nogo","false","0","","true","<div class = centerbox><div  id = stim2></div></div>","32","32","750","","test","go","93","random","","",""
"","403","32","1154","0","test_block","poldrack-single-stim","108","166623","0.0-5.0-94.0","go-nogo","false","0","","true","<div class = centerbox><div  id = stim2></div></div>","32","32","750","","test","go","94","random","","",""
"","527","32","1422","0","test_block","poldrack-single-stim","109","168071","0.0-5.0-95.0","go-nogo","false","0","","true","<div class = centerbox><div  id = stim2></div></div>","32","32","750","","test","go","95","random","","",""
"","389","32","1245","0","test_block","poldrack-single-stim","110","169351","0.0-5.0-96.0","go-nogo","false","0","","true","<div class = centerbox><div  id = stim2></div></div>","32","32","750","","test","go","96","random","","",""
"","333","32","1030","0","test_block","poldrack-single-stim","111","170408","0.0-5.0-97.0","go-nogo","false","0","","true","<div class = centerbox><div  id = stim2></div></div>","32","32","750","","test","go","97","random","","",""
"","212","32","1077","0","test_block","poldrack-single-stim","112","171522","0.0-5.0-98.0","go-nogo","false","0","","true","<div class = centerbox><div  id = stim2></div></div>","32","32","750","","test","go","98","random","","",""
"","492","32","1089","0","test_block","poldrack-single-stim","113","172641","0.0-5.0-99.0","go-nogo","false","0","","true","<div class = centerbox><div  id = stim2></div></div>","32","32","750","","test","go","99","random","","",""
"","593","32","1468","0","test_block","poldrack-single-stim","114","174136","0.0-5.0-100.0","go-nogo","false","0","","true","<div class = centerbox><div  id = stim2></div></div>","32","32","750","","test","go","100","random","","",""
"","340","32","1291","0","test_block","poldrack-single-stim","115","175494","0.0-5.0-101.0","go-nogo","false","0","","true","<div class = centerbox><div  id = stim2></div></div>","32","32","750","","test","go","101","random","","",""
"","397","32","1232","0","test_block","poldrack-single-stim","116","176754","0.0-5.0-102.0","go-nogo","false","0","","true","<div class = centerbox><div  id = stim2></div></div>","32","32","750","","test","go","102","random","","",""
"","373","32","1447","0","test_block","poldrack-single-stim","117","179026","0.0-5.0-103.0","go-nogo","false","1","","true","<div class = centerbox><div  id = stim2></div></div>","32","32","750","","test","go","103","random","","",""
"","-1","-1","1019","0","test_block","poldrack-single-stim","118","180983","0.0-5.0-104.0","go-nogo","false","0","","false","<div class = centerbox><div  id = stim2></div></div>","32","32","750","","test","go","104","random","","",""
"","521","32","1058","0","test_block","poldrack-single-stim","119","182088","0.0-5.0-105.0","go-nogo","false","0","","true","<div class = centerbox><div  id = stim2></div></div>","32","32","750","","test","go","105","random","","",""
"","315","32","1046","0","test_block","poldrack-single-stim","120","183162","0.0-5.0-106.0","go-nogo","false","0","","true","<div class = centerbox><div  id = stim2></div></div>","32","32","750","","test","go","106","random","","",""
"","341","32","1432","0","test_block","poldrack-single-stim","121","184616","0.0-5.0-107.0","go-nogo","false","0","","true","<div class = centerbox><div  id = stim2></div></div>","32","32","750","","test","go","107","random","","",""
"","503","32","1087","0","test_block","poldrack-single-stim","122","185727","0.0-5.0-108.0","go-nogo","false","0","","true","<div class = centerbox><div  id = stim2></div></div>","32","32","750","","test","go","108","random","","",""
"","350","32","1358","0","test_block","poldrack-single-stim","123","187112","0.0-5.0-109.0","go-nogo","false","0","","true","<div class = centerbox><div  id = stim2></div></div>","32","32","750","","test","go","109","random","","",""
"","297","32","1321","0","test_block","poldrack-single-stim","124","188471","0.0-5.0-110.0","go-nogo","false","0","","true","<div class = centerbox><div  id = stim2></div></div>","32","32","750","","test","go","110","random","","",""
"","310","32","1266","0","test_block","poldrack-single-stim","125","189762","0.0-5.0-111.0","go-nogo","false","0","","true","<div class = centerbox><div  id = stim2></div></div>","32","32","750","","test","go","111","random","","",""
"","283","32","1429","0","test_block","poldrack-single-stim","126","191266","0.0-5.0-112.0","go-nogo","false","0","","true","<div class = centerbox><div  id = stim2></div></div>","32","32","750","","test","go","112","random","","",""
"","313","32","1245","0","test_block","poldrack-single-stim","127","192548","0.0-5.0-113.0","go-nogo","false","0","","true","<div class = centerbox><div  id = stim2></div></div>","32","32","750","","test","go","113","random","","",""
"","289","32","1037","0","test_block","poldrack-single-stim","128","193608","0.0-5.0-114.0","go-nogo","false","0","","true","<div class = centerbox><div  id = stim2></div></div>","32","32","750","","test","go","114","random","","",""
"","352","32","1482","0","test_block","poldrack-single-stim","129","195159","0.0-5.0-115.0","go-nogo","false","0","","true","<div class = centerbox><div  id = stim2></div></div>","32","32","750","","test","go","115","random","","",""
"","687","32","1269","0","test_block","poldrack-single-stim","130","196454","0.0-5.0-116.0","go-nogo","false","0","","true","<div class = centerbox><div  id = stim2></div></div>","32","32","750","","test","go","116","random","","",""
"","391","32","1457","0","test_block","poldrack-single-stim","131","197937","0.0-5.0-117.0","go-nogo","false","0","","true","<div class = centerbox><div  id = stim2></div></div>","32","32","750","","test","go","117","random","","",""
"","249","32","1030","0","test_block","poldrack-single-stim","132","198997","0.0-5.0-118.0","go-nogo","false","0","","true","<div class = centerbox><div  id = stim2></div></div>","32","32","750","","test","go","118","random","","",""
"","620","32","1102","0","test_block","poldrack-single-stim","133","200129","0.0-5.0-119.0","go-nogo","false","0","","true","<div class = centerbox><div  id = stim2></div></div>","32","32","750","","test","go","119","random","","",""
"","449","32","1325","0","test_block","poldrack-single-stim","134","201537","0.0-5.0-120.0","go-nogo","false","0","","true","<div class = centerbox><div  id = stim2></div></div>","32","32","750","","test","go","120","random","","",""
"","-1","-1","1454","0","test_block","poldrack-single-stim","135","203020","0.0-5.0-121.0","go-nogo","false","0","","true","<div class = centerbox><div  id = stim1></div></div>","-1","32","750","","test","nogo","121","random","","",""
"","440","32","1316","0","test_block","poldrack-single-stim","136","204360","0.0-5.0-122.0","go-nogo","false","0","","true","<div class = centerbox><div  id = stim2></div></div>","32","32","750","","test","go","122","random","","",""
"","436","32","1161","0","test_block","poldrack-single-stim","137","205548","0.0-5.0-123.0","go-nogo","false","0","","true","<div class = centerbox><div  id = stim2></div></div>","32","32","750","","test","go","123","random","","",""
"","336","32","1487","0","test_block","poldrack-single-stim","138","207062","0.0-5.0-124.0","go-nogo","false","0","","true","<div class = centerbox><div  id = stim2></div></div>","32","32","750","","test","go","124","random","","",""
"","343","32","1167","0","test_block","poldrack-single-stim","139","208302","0.0-5.0-125.0","go-nogo","false","0","","false","<div class = centerbox><div  id = stim1></div></div>","-1","32","750","","test","nogo","125","random","","",""
"","-1","-1","1132","0","test_block","poldrack-single-stim","140","209505","0.0-5.0-126.0","go-nogo","false","0","","false","<div class = centerbox><div  id = stim2></div></div>","32","32","750","","test","go","126","random","","",""
"","-1","-1","1236","0","test_block","poldrack-single-stim","141","210785","0.0-5.0-127.0","go-nogo","false","0","","false","<div class = centerbox><div  id = stim2></div></div>","32","32","750","","test","go","127","random","","",""
"","-1","-1","1263","0","test_block","poldrack-single-stim","142","212182","0.0-5.0-128.0","go-nogo","false","0","","true","<div class = centerbox><div  id = stim1></div></div>","-1","32","750","","test","nogo","128","random","","",""
"","472","32","1324","0","test_block","poldrack-single-stim","143","213535","0.0-5.0-129.0","go-nogo","false","0","","true","<div class = centerbox><div  id = stim2></div></div>","32","32","750","","test","go","129","random","","",""
"","341","32","1304","0","test_block","poldrack-single-stim","144","214945","0.0-5.0-130.0","go-nogo","false","0","","true","<div class = centerbox><div  id = stim2></div></div>","32","32","750","","test","go","130","random","","",""
"","348","32","1153","0","test_block","poldrack-single-stim","145","216177","0.0-5.0-131.0","go-nogo","false","0","","true","<div class = centerbox><div  id = stim2></div></div>","32","32","750","","test","go","131","random","","",""
"","341","32","1033","0","test_block","poldrack-single-stim","146","217294","0.0-5.0-132.0","go-nogo","false","0","","true","<div class = centerbox><div  id = stim2></div></div>","32","32","750","","test","go","132","random","","",""
"","313","32","1208","0","test_block","poldrack-single-stim","147","218529","0.0-5.0-133.0","go-nogo","false","0","","true","<div class = centerbox><div  id = stim2></div></div>","32","32","750","","test","go","133","random","","",""
"","807","32","1169","0","test_block","poldrack-single-stim","148","219720","0.0-5.0-134.0","go-nogo","false","0","","true","<div class = centerbox><div  id = stim2></div></div>","32","32","750","","test","go","134","random","","",""
"","-1","-1","1420","0","test_block","poldrack-single-stim","149","221216","0.0-5.0-135.0","go-nogo","false","0","","true","<div class = centerbox><div  id = stim1></div></div>","-1","32","750","","test","nogo","135","random","","",""
"","511","32","1137","0","test_block","poldrack-single-stim","150","222380","0.0-5.0-136.0","go-nogo","false","0","","true","<div class = centerbox><div  id = stim2></div></div>","32","32","750","","test","go","136","random","","",""
"","458","32","1046","0","test_block","poldrack-single-stim","151","223470","0.0-5.0-137.0","go-nogo","false","0","","true","<div class = centerbox><div  id = stim2></div></div>","32","32","750","","test","go","137","random","","",""
"","460","32","1214","0","test_block","poldrack-single-stim","152","224715","0.0-5.0-138.0","go-nogo","false","0","","true","<div class = centerbox><div  id = stim2></div></div>","32","32","750","","test","go","138","random","","",""
"","419","32","1349","0","test_block","poldrack-single-stim","153","226141","0.0-5.0-139.0","go-nogo","false","0","","true","<div class = centerbox><div  id = stim2></div></div>","32","32","750","","test","go","139","random","","",""
"","322","32","1101","0","test_block","poldrack-single-stim","154","227270","0.0-5.0-140.0","go-nogo","false","0","","true","<div class = centerbox><div  id = stim2></div></div>","32","32","750","","test","go","140","random","","",""
"","306","32","1428","0","test_block","poldrack-single-stim","155","228720","0.0-5.0-141.0","go-nogo","false","0","","true","<div class = centerbox><div  id = stim2></div></div>","32","32","750","","test","go","141","random","","",""
"","482","32","1180","0","test_block","poldrack-single-stim","156","229926","0.0-5.0-142.0","go-nogo","false","0","","true","<div class = centerbox><div  id = stim2></div></div>","32","32","750","","test","go","142","random","","",""
"","275","32","1105","0","test_block","poldrack-single-stim","157","231056","0.0-5.0-143.0","go-nogo","false","0","","true","<div class = centerbox><div  id = stim2></div></div>","32","32","750","","test","go","143","random","","",""
"","237","32","1212","0","test_block","poldrack-single-stim","158","232297","0.0-5.0-144.0","go-nogo","false","0","","true","<div class = centerbox><div  id = stim2></div></div>","32","32","750","","test","go","144","random","","",""
"","247","32","1192","0","test_block","poldrack-single-stim","159","233511","0.0-5.0-145.0","go-nogo","false","0","","true","<div class = centerbox><div  id = stim2></div></div>","32","32","750","","test","go","145","random","","",""
"","319","32","1049","0","test_block","poldrack-single-stim","160","234583","0.0-5.0-146.0","go-nogo","false","0","","true","<div class = centerbox><div  id = stim2></div></div>","32","32","750","","test","go","146","random","","",""
"","408","32","1142","0","test_block","poldrack-single-stim","161","235750","0.0-5.0-147.0","go-nogo","false","0","","true","<div class = centerbox><div  id = stim2></div></div>","32","32","750","","test","go","147","random","","",""
"","281","32","1018","0","test_block","poldrack-single-stim","162","236838","0.0-5.0-148.0","go-nogo","false","0","","true","<div class = centerbox><div  id = stim2></div></div>","32","32","750","","test","go","148","random","","",""
"","232","32","1009","0","test_block","poldrack-single-stim","163","237920","0.0-5.0-149.0","go-nogo","false","0","","true","<div class = centerbox><div  id = stim2></div></div>","32","32","750","","test","go","149","random","","",""
"","430","32","1002","0","test_block","poldrack-single-stim","164","238949","0.0-5.0-150.0","go-nogo","false","0","","true","<div class = centerbox><div  id = stim2></div></div>","32","32","750","","test","go","150","random","","",""
"","697","32","1228","0","test_block","poldrack-single-stim","165","240204","0.0-5.0-151.0","go-nogo","false","0","","true","<div class = centerbox><div  id = stim2></div></div>","32","32","750","","test","go","151","random","","",""
"","-1","-1","1127","0","test_block","poldrack-single-stim","166","241360","0.0-5.0-152.0","go-nogo","false","0","","true","<div class = centerbox><div  id = stim1></div></div>","-1","32","750","","test","nogo","152","random","","",""
"","458","32","1327","0","test_block","poldrack-single-stim","167","242759","0.0-5.0-153.0","go-nogo","false","0","","true","<div class = centerbox><div  id = stim2></div></div>","32","32","750","","test","go","153","random","","",""
"","278","32","1423","0","test_block","poldrack-single-stim","168","244256","0.0-5.0-154.0","go-nogo","false","0","","true","<div class = centerbox><div  id = stim2></div></div>","32","32","750","","test","go","154","random","","",""
"","808","32","1143","0","test_block","poldrack-single-stim","169","245424","0.0-5.0-155.0","go-nogo","false","0","","true","<div class = centerbox><div  id = stim2></div></div>","32","32","750","","test","go","155","random","","",""
"","-1","-1","1320","0","test_block","poldrack-single-stim","170","246768","0.0-5.0-156.0","go-nogo","false","0","","false","<div class = centerbox><div  id = stim2></div></div>","32","32","750","","test","go","156","random","","",""
"","313","32","1375","0","test_block","poldrack-single-stim","171","248166","0.0-5.0-157.0","go-nogo","false","0","","true","<div class = centerbox><div  id = stim2></div></div>","32","32","750","","test","go","157","random","","",""
"","337","32","1300","0","test_block","poldrack-single-stim","172","249514","0.0-5.0-158.0","go-nogo","false","0","","true","<div class = centerbox><div  id = stim2></div></div>","32","32","750","","test","go","158","random","","",""
"","571","32","1287","0","test_block","poldrack-single-stim","173","250907","0.0-5.0-159.0","go-nogo","false","0","","true","<div class = centerbox><div  id = stim2></div></div>","32","32","750","","test","go","159","random","","",""
"","947","32","1213","0","test_block","poldrack-single-stim","174","252186","0.0-5.0-160.0","go-nogo","false","0","","true","<div class = centerbox><div  id = stim2></div></div>","32","32","750","","test","go","160","random","","",""
"","642","32","1343","0","test_block","poldrack-single-stim","175","253638","0.0-5.0-161.0","go-nogo","false","0","","true","<div class = centerbox><div  id = stim2></div></div>","32","32","750","","test","go","161","random","","",""
"","340","32","1060","0","test_block","poldrack-single-stim","176","254784","0.0-5.0-162.0","go-nogo","false","0","","true","<div class = centerbox><div  id = stim2></div></div>","32","32","750","","test","go","162","random","","",""
"","506","32","1469","0","test_block","poldrack-single-stim","177","256284","0.0-5.0-163.0","go-nogo","false","0","","true","<div class = centerbox><div  id = stim2></div></div>","32","32","750","","test","go","163","random","","",""
"","329","32","1413","0","test_block","poldrack-single-stim","178","257725","0.0-5.0-164.0","go-nogo","false","0","","true","<div class = centerbox><div  id = stim2></div></div>","32","32","750","","test","go","164","random","","",""
"","-1","-1","1488","0","test_block","poldrack-single-stim","179","259241","0.0-5.0-165.0","go-nogo","false","0","","true","<div class = centerbox><div  id = stim1></div></div>","-1","32","750","","test","nogo","165","random","","",""
"","-1","-1","1231","0","test_block","poldrack-single-stim","180","260544","0.0-5.0-166.0","go-nogo","false","0","","true","<div class = centerbox><div  id = stim1></div></div>","-1","32","750","","test","nogo","166","random","","",""
"","380","32","1345","0","test_block","poldrack-single-stim","181","262090","0.0-5.0-167.0","go-nogo","false","0","","true","<div class = centerbox><div  id = stim2></div></div>","32","32","750","","test","go","167","random","","",""
"","363","32","1054","0","test_block","poldrack-single-stim","182","263287","0.0-5.0-168.0","go-nogo","false","0","","true","<div class = centerbox><div  id = stim2></div></div>","32","32","750","","test","go","168","random","","",""
"","389","32","1232","0","test_block","poldrack-single-stim","183","264575","0.0-5.0-169.0","go-nogo","false","0","","true","<div class = centerbox><div  id = stim2></div></div>","32","32","750","","test","go","169","random","","",""
"","316","32","1168","0","test_block","poldrack-single-stim","184","265830","0.0-5.0-170.0","go-nogo","false","0","","true","<div class = centerbox><div  id = stim2></div></div>","32","32","750","","test","go","170","random","","",""
"","382","32","1290","0","test_block","poldrack-single-stim","185","267215","0.0-5.0-171.0","go-nogo","false","0","","true","<div class = centerbox><div  id = stim2></div></div>","32","32","750","","test","go","171","random","","",""
"","467","32","1024","0","test_block","poldrack-single-stim","186","268287","0.0-5.0-172.0","go-nogo","false","0","","true","<div class = centerbox><div  id = stim2></div></div>","32","32","750","","test","go","172","random","","",""
"","486","32","1212","0","test_block","poldrack-single-stim","187","269557","0.0-5.0-173.0","go-nogo","false","0","","true","<div class = centerbox><div  id = stim2></div></div>","32","32","750","","test","go","173","random","","",""
"","301","32","1054","0","test_block","poldrack-single-stim","188","270687","0.0-5.0-174.0","go-nogo","false","0","","true","<div class = centerbox><div  id = stim2></div></div>","32","32","750","","test","go","174","random","","",""
"","389","32","1407","0","test_block","poldrack-single-stim","189","272166","0.0-5.0-175.0","go-nogo","false","0","","true","<div class = centerbox><div  id = stim2></div></div>","32","32","750","","test","go","175","random","","",""
"","305","32","1309","0","test_block","poldrack-single-stim","190","273558","0.0-5.0-176.0","go-nogo","false","0","","true","<div class = centerbox><div  id = stim2></div></div>","32","32","750","","test","go","176","random","","",""
"","285","32","1218","0","test_block","poldrack-single-stim","191","274864","0.0-5.0-177.0","go-nogo","false","0","","true","<div class = centerbox><div  id = stim2></div></div>","32","32","750","","test","go","177","random","","",""
"","291","32","1471","0","test_block","poldrack-single-stim","192","276415","0.0-5.0-178.0","go-nogo","false","0","","false","<div class = centerbox><div  id = stim1></div></div>","-1","32","750","","test","nogo","178","random","","",""
"","464","32","1198","0","test_block","poldrack-single-stim","193","277644","0.0-5.0-179.0","go-nogo","false","0","","true","<div class = centerbox><div  id = stim2></div></div>","32","32","750","","test","go","179","random","","",""
"","427","32","1326","0","test_block","poldrack-single-stim","194","279071","0.0-5.0-180.0","go-nogo","false","0","","true","<div class = centerbox><div  id = stim2></div></div>","32","32","750","","test","go","180","random","","",""
"","375","32","1049","0","test_block","poldrack-single-stim","195","280198","0.0-5.0-181.0","go-nogo","false","0","","true","<div class = centerbox><div  id = stim2></div></div>","32","32","750","","test","go","181","random","","",""
"","-1","-1","1368","0","test_block","poldrack-single-stim","196","281654","0.0-5.0-182.0","go-nogo","false","0","","false","<div class = centerbox><div  id = stim2></div></div>","32","32","750","","test","go","182","random","","",""
"","445","32","1482","0","test_block","poldrack-single-stim","197","283163","0.0-5.0-183.0","go-nogo","false","0","","true","<div class = centerbox><div  id = stim2></div></div>","32","32","750","","test","go","183","random","","",""
"","407","32","1004","0","test_block","poldrack-single-stim","198","284239","0.0-5.0-184.0","go-nogo","false","0","","true","<div class = centerbox><div  id = stim2></div></div>","32","32","750","","test","go","184","random","","",""
"","484","32","1325","0","test_block","poldrack-single-stim","199","285603","0.0-5.0-185.0","go-nogo","false","0","","true","<div class = centerbox><div  id = stim2></div></div>","32","32","750","","test","go","185","random","","",""
"","284","32","1066","0","test_block","poldrack-single-stim","200","287109","0.0-5.0-186.0","go-nogo","false","1","","true","<div class = centerbox><div  id = stim2></div></div>","32","32","750","","test","go","186","random","","",""
"","-1","-1","1173","0","test_block","poldrack-single-stim","201","289126","0.0-5.0-187.0","go-nogo","false","0","","false","<div class = centerbox><div  id = stim2></div></div>","32","32","750","","test","go","187","random","","",""
"","1009","32","1103","0","test_block","poldrack-single-stim","202","290263","0.0-5.0-188.0","go-nogo","false","0","","true","<div class = centerbox><div  id = stim2></div></div>","32","32","750","","test","go","188","random","","",""
"","746","32","1284","0","test_block","poldrack-single-stim","203","291573","0.0-5.0-189.0","go-nogo","false","0","","true","<div class = centerbox><div  id = stim2></div></div>","32","32","750","","test","go","189","random","","",""
"","325","32","1163","0","test_block","poldrack-single-stim","204","292758","0.0-5.0-190.0","go-nogo","false","0","","true","<div class = centerbox><div  id = stim2></div></div>","32","32","750","","test","go","190","random","","",""
"","319","32","1258","0","test_block","poldrack-single-stim","205","294037","0.0-5.0-191.0","go-nogo","false","0","","false","<div class = centerbox><div  id = stim1></div></div>","-1","32","750","","test","nogo","191","random","","",""
"","-1","-1","1032","0","test_block","poldrack-single-stim","206","295093","0.0-5.0-192.0","go-nogo","false","0","","true","<div class = centerbox><div  id = stim1></div></div>","-1","32","750","","test","nogo","192","random","","",""
"","503","32","1174","0","test_block","poldrack-single-stim","207","296292","0.0-5.0-193.0","go-nogo","false","0","","true","<div class = centerbox><div  id = stim2></div></div>","32","32","750","","test","go","193","random","","",""
"","351","32","1074","0","test_block","poldrack-single-stim","208","297388","0.0-5.0-194.0","go-nogo","false","0","","true","<div class = centerbox><div  id = stim2></div></div>","32","32","750","","test","go","194","random","","",""
"","359","32","1024","0","test_block","poldrack-single-stim","209","298438","0.0-5.0-195.0","go-nogo","false","0","","true","<div class = centerbox><div  id = stim2></div></div>","32","32","750","","test","go","195","random","","",""
"","383","32","1214","0","test_block","poldrack-single-stim","210","299804","0.0-5.0-196.0","go-nogo","false","0","","true","<div class = centerbox><div  id = stim2></div></div>","32","32","750","","test","go","196","random","","",""
"","443","32","1147","0","test_block","poldrack-single-stim","211","301038","0.0-5.0-197.0","go-nogo","false","0","","true","<div class = centerbox><div  id = stim2></div></div>","32","32","750","","test","go","197","random","","",""
"","379","32","1237","0","test_block","poldrack-single-stim","212","302367","0.0-5.0-198.0","go-nogo","false","0","","true","<div class = centerbox><div  id = stim2></div></div>","32","32","750","","test","go","198","random","","",""
"","288","32","1337","0","test_block","poldrack-single-stim","213","303773","0.0-5.0-199.0","go-nogo","false","0","","true","<div class = centerbox><div  id = stim2></div></div>","32","32","750","","test","go","199","random","","",""
"","348","32","1450","0","test_block","poldrack-single-stim","214","305332","0.0-5.0-200.0","go-nogo","false","0","","true","<div class = centerbox><div  id = stim2></div></div>","32","32","750","","test","go","200","random","","",""
"","423","32","1372","0","test_block","poldrack-single-stim","215","306768","0.0-5.0-201.0","go-nogo","false","0","","true","<div class = centerbox><div  id = stim2></div></div>","32","32","750","","test","go","201","random","","",""
"","360","32","1098","0","test_block","poldrack-single-stim","216","307950","0.0-5.0-202.0","go-nogo","false","0","","true","<div class = centerbox><div  id = stim2></div></div>","32","32","750","","test","go","202","random","","",""
"","396","32","1345","0","test_block","poldrack-single-stim","217","309323","0.0-5.0-203.0","go-nogo","false","0","","true","<div class = centerbox><div  id = stim2></div></div>","32","32","750","","test","go","203","random","","",""
"","321","32","1273","0","test_block","poldrack-single-stim","218","310636","0.0-5.0-204.0","go-nogo","false","0","","true","<div class = centerbox><div  id = stim2></div></div>","32","32","750","","test","go","204","random","","",""
"","0","32","1197","0","test_block","poldrack-single-stim","219","311899","0.0-5.0-205.0","go-nogo","false","0","","true","<div class = centerbox><div  id = stim2></div></div>","32","32","750","","test","go","205","random","","",""
"","264","32","1306","0","test_block","poldrack-single-stim","220","313278","0.0-5.0-206.0","go-nogo","false","0","","false","<div class = centerbox><div  id = stim1></div></div>","-1","32","750","","test","nogo","206","random","","",""
"","577","32","1038","0","test_block","poldrack-single-stim","221","314395","0.0-5.0-207.0","go-nogo","false","0","","true","<div class = centerbox><div  id = stim2></div></div>","32","32","750","","test","go","207","random","","",""
"","442","32","1219","0","test_block","poldrack-single-stim","222","315694","0.0-5.0-208.0","go-nogo","false","0","","true","<div class = centerbox><div  id = stim2></div></div>","32","32","750","","test","go","208","random","","",""
"","525","32","1453","0","test_block","poldrack-single-stim","223","317252","0.0-5.0-209.0","go-nogo","false","0","","true","<div class = centerbox><div  id = stim2></div></div>","32","32","750","","test","go","209","random","","",""
"","355","32","1126","0","test_block","poldrack-single-stim","224","318508","0.0-5.0-210.0","go-nogo","false","0","","true","<div class = centerbox><div  id = stim2></div></div>","32","32","750","","test","go","210","random","","",""
"","508","32","1114","0","test_block","poldrack-single-stim","225","319730","0.0-5.0-211.0","go-nogo","false","0","","true","<div class = centerbox><div  id = stim2></div></div>","32","32","750","","test","go","211","random","","",""
"","294","32","1130","0","test_block","poldrack-single-stim","226","320950","0.0-5.0-212.0","go-nogo","false","0","","true","<div class = centerbox><div  id = stim2></div></div>","32","32","750","","test","go","212","random","","",""
"","240","32","1224","0","test_block","poldrack-single-stim","227","322277","0.0-5.0-213.0","go-nogo","false","0","","true","<div class = centerbox><div  id = stim2></div></div>","32","32","750","","test","go","213","random","","",""
"","313","32","1465","0","test_block","poldrack-single-stim","228","323797","0.0-5.0-214.0","go-nogo","false","0","","true","<div class = centerbox><div  id = stim2></div></div>","32","32","750","","test","go","214","random","","",""
"","322","32","1110","0","test_block","poldrack-single-stim","229","324974","0.0-5.0-215.0","go-nogo","false","0","","true","<div class = centerbox><div  id = stim2></div></div>","32","32","750","","test","go","215","random","","",""
"","302","32","1031","0","test_block","poldrack-single-stim","230","326037","0.0-5.0-216.0","go-nogo","false","0","","true","<div class = centerbox><div  id = stim2></div></div>","32","32","750","","test","go","216","random","","",""
"","292","32","1130","0","test_block","poldrack-single-stim","231","327232","0.0-5.0-217.0","go-nogo","false","0","","true","<div class = centerbox><div  id = stim2></div></div>","32","32","750","","test","go","217","random","","",""
"","456","32","1207","0","test_block","poldrack-single-stim","232","328555","0.0-5.0-218.0","go-nogo","false","0","","true","<div class = centerbox><div  id = stim2></div></div>","32","32","750","","test","go","218","random","","",""
"","638","32","1458","0","test_block","poldrack-single-stim","233","330046","0.0-5.0-219.0","go-nogo","false","0","","true","<div class = centerbox><div  id = stim2></div></div>","32","32","750","","test","go","219","random","","",""
"","277","32","1353","0","test_block","poldrack-single-stim","234","331486","0.0-5.0-220.0","go-nogo","false","0","","true","<div class = centerbox><div  id = stim2></div></div>","32","32","750","","test","go","220","random","","",""
"","70","32","1425","0","test_block","poldrack-single-stim","235","332974","0.0-5.0-221.0","go-nogo","false","0","","false","<div class = centerbox><div  id = stim1></div></div>","-1","32","750","","test","nogo","221","random","","",""
"","689","32","1174","0","test_block","poldrack-single-stim","236","334234","0.0-5.0-222.0","go-nogo","false","0","","true","<div class = centerbox><div  id = stim2></div></div>","32","32","750","","test","go","222","random","","",""
"","623","32","1003","0","test_block","poldrack-single-stim","237","335334","0.0-5.0-223.0","go-nogo","false","0","","true","<div class = centerbox><div  id = stim2></div></div>","32","32","750","","test","go","223","random","","",""
"","-1","-1","1223","0","test_block","poldrack-single-stim","238","336580","0.0-5.0-224.0","go-nogo","false","0","","false","<div class = centerbox><div  id = stim2></div></div>","32","32","750","","test","go","224","random","","",""
"","247","32","1011","0","test_block","poldrack-single-stim","239","337686","0.0-5.0-225.0","go-nogo","false","0","","true","<div class = centerbox><div  id = stim2></div></div>","32","32","750","","test","go","225","random","","",""
"","331","32","1004","0","test_block","poldrack-single-stim","240","338713","0.0-5.0-226.0","go-nogo","false","0","","true","<div class = centerbox><div  id = stim2></div></div>","32","32","750","","test","go","226","random","","",""
"","276","32","1432","0","test_block","poldrack-single-stim","241","340276","0.0-5.0-227.0","go-nogo","false","0","","true","<div class = centerbox><div  id = stim2></div></div>","32","32","750","","test","go","227","random","","",""
"","359","32","1201","0","test_block","poldrack-single-stim","242","341517","0.0-5.0-228.0","go-nogo","false","0","","true","<div class = centerbox><div  id = stim2></div></div>","32","32","750","","test","go","228","random","","",""
"","295","32","1121","0","test_block","poldrack-single-stim","243","342708","0.0-5.0-229.0","go-nogo","false","0","","true","<div class = centerbox><div  id = stim2></div></div>","32","32","750","","test","go","229","random","","",""
"","345","32","1129","0","test_block","poldrack-single-stim","244","343866","0.0-5.0-230.0","go-nogo","false","0","","true","<div class = centerbox><div  id = stim2></div></div>","32","32","750","","test","go","230","random","","",""
"","376","32","1387","0","test_block","poldrack-single-stim","245","345364","0.0-5.0-231.0","go-nogo","false","0","","true","<div class = centerbox><div  id = stim2></div></div>","32","32","750","","test","go","231","random","","",""
"","311","32","1463","0","test_block","poldrack-single-stim","246","346907","0.0-5.0-232.0","go-nogo","false","0","","true","<div class = centerbox><div  id = stim2></div></div>","32","32","750","","test","go","232","random","","",""
"","571","32","1491","0","test_block","poldrack-single-stim","247","348468","0.0-5.0-233.0","go-nogo","false","0","","true","<div class = centerbox><div  id = stim2></div></div>","32","32","750","","test","go","233","random","","",""
"","275","32","1024","0","test_block","poldrack-single-stim","248","349574","0.0-5.0-234.0","go-nogo","false","0","","false","<div class = centerbox><div  id = stim1></div></div>","-1","32","750","","test","nogo","234","random","","",""
"","680","32","1249","0","test_block","poldrack-single-stim","249","350932","0.0-5.0-235.0","go-nogo","false","0","","true","<div class = centerbox><div  id = stim2></div></div>","32","32","750","","test","go","235","random","","",""
"","422","32","1418","0","test_block","poldrack-single-stim","250","352376","0.0-5.0-236.0","go-nogo","false","0","","true","<div class = centerbox><div  id = stim2></div></div>","32","32","750","","test","go","236","random","","",""
"","329","32","1177","0","test_block","poldrack-single-stim","251","353611","0.0-5.0-237.0","go-nogo","false","0","","true","<div class = centerbox><div  id = stim2></div></div>","32","32","750","","test","go","237","random","","",""
"","315","32","1365","0","test_block","poldrack-single-stim","252","355076","0.0-5.0-238.0","go-nogo","false","0","","true","<div class = centerbox><div  id = stim2></div></div>","32","32","750","","test","go","238","random","","",""
"","373","32","1401","0","test_block","poldrack-single-stim","253","356568","0.0-5.0-239.0","go-nogo","false","0","","true","<div class = centerbox><div  id = stim2></div></div>","32","32","750","","test","go","239","random","","",""
"","-1","-1","1344","0","test_block","poldrack-single-stim","254","357981","0.0-5.0-240.0","go-nogo","false","0","","false","<div class = centerbox><div  id = stim2></div></div>","32","32","750","","test","go","240","random","","",""
"","286","32","1231","0","test_block","poldrack-single-stim","255","359293","0.0-5.0-241.0","go-nogo","false","0","","true","<div class = centerbox><div  id = stim2></div></div>","32","32","750","","test","go","241","random","","",""
"","632","32","1038","0","test_block","poldrack-single-stim","256","360420","0.0-5.0-242.0","go-nogo","false","0","","true","<div class = centerbox><div  id = stim2></div></div>","32","32","750","","test","go","242","random","","",""
"","-1","-1","1265","0","test_block","poldrack-single-stim","257","361811","0.0-5.0-243.0","go-nogo","false","0","","true","<div class = centerbox><div  id = stim1></div></div>","-1","32","750","","test","nogo","243","random","","",""
"","389","32","1482","0","test_block","poldrack-single-stim","258","363362","0.0-5.0-244.0","go-nogo","false","0","","true","<div class = centerbox><div  id = stim2></div></div>","32","32","750","","test","go","244","random","","",""
"","270","32","1112","0","test_block","poldrack-single-stim","259","364499","0.0-5.0-245.0","go-nogo","false","0","","false","<div class = centerbox><div  id = stim1></div></div>","-1","32","750","","test","nogo","245","random","","",""
"","-1","-1","1192","0","test_block","poldrack-single-stim","260","365736","0.0-5.0-246.0","go-nogo","false","0","","true","<div class = centerbox><div  id = stim1></div></div>","-1","32","750","","test","nogo","246","random","","",""
"","369","32","1202","0","test_block","poldrack-single-stim","261","366963","0.0-5.0-247.0","go-nogo","false","0","","true","<div class = centerbox><div  id = stim2></div></div>","32","32","750","","test","go","247","random","","",""
"","149","32","1365","0","test_block","poldrack-single-stim","262","368354","0.0-5.0-248.0","go-nogo","false","0","","true","<div class = centerbox><div  id = stim2></div></div>","32","32","750","","test","go","248","random","","",""
"","312","32","1050","0","test_block","poldrack-single-stim","263","369475","0.0-5.0-249.0","go-nogo","false","0","","true","<div class = centerbox><div  id = stim2></div></div>","32","32","750","","test","go","249","random","","",""
"","-1","-1","1461","0","test_block","poldrack-single-stim","264","371021","0.0-5.0-250.0","go-nogo","false","0","","false","<div class = centerbox><div  id = stim2></div></div>","32","32","750","","test","go","250","random","","",""
"","461","32","1487","0","test_block","poldrack-single-stim","265","372531","0.0-5.0-251.0","go-nogo","false","0","","true","<div class = centerbox><div  id = stim2></div></div>","32","32","750","","test","go","251","random","","",""
"","761","32","1007","0","test_block","poldrack-single-stim","266","373625","0.0-5.0-252.0","go-nogo","false","0","","true","<div class = centerbox><div  id = stim2></div></div>","32","32","750","","test","go","252","random","","",""
"","-1","-1","1134","0","test_block","poldrack-single-stim","267","374834","0.0-5.0-253.0","go-nogo","false","0","","false","<div class = centerbox><div  id = stim2></div></div>","32","32","750","","test","go","253","random","","",""
"","901","32","1410","0","test_block","poldrack-single-stim","268","376269","0.0-5.0-254.0","go-nogo","false","0","","true","<div class = centerbox><div  id = stim2></div></div>","32","32","750","","test","go","254","random","","",""
"","244","32","1427","0","test_block","poldrack-single-stim","269","377722","0.0-5.0-255.0","go-nogo","false","0","","true","<div class = centerbox><div  id = stim2></div></div>","32","32","750","","test","go","255","random","","",""
"","866","32","1351","0","test_block","poldrack-single-stim","270","379161","0.0-5.0-256.0","go-nogo","false","0","","true","<div class = centerbox><div  id = stim2></div></div>","32","32","750","","test","go","256","random","","",""
"","-1","-1","1264","0","test_block","poldrack-single-stim","271","380451","0.0-5.0-257.0","go-nogo","false","0","","false","<div class = centerbox><div  id = stim2></div></div>","32","32","750","","test","go","257","random","","",""
"","-1","-1","1365","0","test_block","poldrack-single-stim","272","381842","0.0-5.0-258.0","go-nogo","false","0","","false","<div class = centerbox><div  id = stim2></div></div>","32","32","750","","test","go","258","random","","",""
"","304","32","1044","0","test_block","poldrack-single-stim","273","382951","0.0-5.0-259.0","go-nogo","false","0","","true","<div class = centerbox><div  id = stim2></div></div>","32","32","750","","test","go","259","random","","",""
"","352","32","1359","0","test_block","poldrack-single-stim","274","384338","0.0-5.0-260.0","go-nogo","false","0","","true","<div class = centerbox><div  id = stim2></div></div>","32","32","750","","test","go","260","random","","",""
"","238","32","1192","0","test_block","poldrack-single-stim","275","385603","0.0-5.0-261.0","go-nogo","false","0","","true","<div class = centerbox><div  id = stim2></div></div>","32","32","750","","test","go","261","random","","",""
"","592","32","1138","0","test_block","poldrack-single-stim","276","386764","0.0-5.0-262.0","go-nogo","false","0","","true","<div class = centerbox><div  id = stim2></div></div>","32","32","750","","test","go","262","random","","",""
"","265","32","1076","0","test_block","poldrack-single-stim","277","387868","0.0-5.0-263.0","go-nogo","false","0","","false","<div class = centerbox><div  id = stim1></div></div>","-1","32","750","","test","nogo","263","random","","",""
"","725","32","1183","0","test_block","poldrack-single-stim","278","389138","0.0-5.0-264.0","go-nogo","false","0","","true","<div class = centerbox><div  id = stim2></div></div>","32","32","750","","test","go","264","random","","",""
"","526","32","1195","0","test_block","poldrack-single-stim","279","390356","0.0-5.0-265.0","go-nogo","false","0","","true","<div class = centerbox><div  id = stim2></div></div>","32","32","750","","test","go","265","random","","",""
"","272","32","1417","0","test_block","poldrack-single-stim","280","391843","0.0-5.0-266.0","go-nogo","false","0","","true","<div class = centerbox><div  id = stim2></div></div>","32","32","750","","test","go","266","random","","",""
"","306","32","1466","0","test_block","poldrack-single-stim","281","393379","0.0-5.0-267.0","go-nogo","false","0","","true","<div class = centerbox><div  id = stim2></div></div>","32","32","750","","test","go","267","random","","",""
"","406","32","1042","0","test_block","poldrack-single-stim","282","394446","0.0-5.0-268.0","go-nogo","false","0","","true","<div class = centerbox><div  id = stim2></div></div>","32","32","750","","test","go","268","random","","",""
"","971","32","1189","0","test_block","poldrack-single-stim","283","395660","0.0-5.0-269.0","go-nogo","false","0","","true","<div class = centerbox><div  id = stim2></div></div>","32","32","750","","test","go","269","random","","",""
"","773","32","1333","0","test_block","poldrack-single-stim","284","397018","0.0-5.0-270.0","go-nogo","false","0","","true","<div class = centerbox><div  id = stim2></div></div>","32","32","750","","test","go","270","random","","",""
"","367","32","1215","0","test_block","poldrack-single-stim","285","398258","0.0-5.0-271.0","go-nogo","false","0","","true","<div class = centerbox><div  id = stim2></div></div>","32","32","750","","test","go","271","random","","",""
"","327","32","1018","0","test_block","poldrack-single-stim","286","399298","0.0-5.0-272.0","go-nogo","false","0","","true","<div class = centerbox><div  id = stim2></div></div>","32","32","750","","test","go","272","random","","",""
"","463","32","1397","0","test_block","poldrack-single-stim","287","400721","0.0-5.0-273.0","go-nogo","false","0","","true","<div class = centerbox><div  id = stim2></div></div>","32","32","750","","test","go","273","random","","",""
"","-1","-1","1158","0","test_block","poldrack-single-stim","288","401905","0.0-5.0-274.0","go-nogo","false","0","","true","<div class = centerbox><div  id = stim1></div></div>","-1","32","750","","test","nogo","274","random","","",""
"","384","32","1285","0","test_block","poldrack-single-stim","289","403257","0.0-5.0-275.0","go-nogo","false","0","","true","<div class = centerbox><div  id = stim2></div></div>","32","32","750","","test","go","275","random","","",""
"","458","32","1101","0","test_block","poldrack-single-stim","290","404419","0.0-5.0-276.0","go-nogo","false","0","","true","<div class = centerbox><div  id = stim2></div></div>","32","32","750","","test","go","276","random","","",""
"","-1","-1","1117","0","test_block","poldrack-single-stim","291","405610","0.0-5.0-277.0","go-nogo","false","0","","false","<div class = centerbox><div  id = stim2></div></div>","32","32","750","","test","go","277","random","","",""
"","-1","-1","1109","0","test_block","poldrack-single-stim","292","406743","0.0-5.0-278.0","go-nogo","false","0","","false","<div class = centerbox><div  id = stim2></div></div>","32","32","750","","test","go","278","random","","",""
"","183","32","1310","0","test_block","poldrack-single-stim","293","408130","0.0-5.0-279.0","go-nogo","false","0","","true","<div class = centerbox><div  id = stim2></div></div>","32","32","750","","test","go","279","random","","",""
"","315","32","1295","0","test_block","poldrack-single-stim","294","409500","0.0-5.0-280.0","go-nogo","false","0","","true","<div class = centerbox><div  id = stim2></div></div>","32","32","750","","test","go","280","random","","",""
"","443","32","1244","0","test_block","poldrack-single-stim","295","410802","0.0-5.0-281.0","go-nogo","false","0","","true","<div class = centerbox><div  id = stim2></div></div>","32","32","750","","test","go","281","random","","",""
"","276","32","1288","0","test_block","poldrack-single-stim","296","412140","0.0-5.0-282.0","go-nogo","false","0","","true","<div class = centerbox><div  id = stim2></div></div>","32","32","750","","test","go","282","random","","",""
"","435","32","1295","0","test_block","poldrack-single-stim","297","413516","0.0-5.0-283.0","go-nogo","false","0","","true","<div class = centerbox><div  id = stim2></div></div>","32","32","750","","test","go","283","random","","",""
"","321","32","1317","0","test_block","poldrack-single-stim","298","415025","0.0-5.0-284.0","go-nogo","false","0","","true","<div class = centerbox><div  id = stim2></div></div>","32","32","750","","test","go","284","random","","",""
"","367","32","1353","0","test_block","poldrack-single-stim","299","416402","0.0-5.0-285.0","go-nogo","false","0","","true","<div class = centerbox><div  id = stim2></div></div>","32","32","750","","test","go","285","random","","",""
"","381","32","1133","0","test_block","poldrack-single-stim","300","417602","0.0-5.0-286.0","go-nogo","false","0","","true","<div class = centerbox><div  id = stim2></div></div>","32","32","750","","test","go","286","random","","",""
"","422","32","1120","0","test_block","poldrack-single-stim","301","418780","0.0-5.0-287.0","go-nogo","false","0","","true","<div class = centerbox><div  id = stim2></div></div>","32","32","750","","test","go","287","random","","",""
"","468","32","1033","0","test_block","poldrack-single-stim","302","419910","0.0-5.0-288.0","go-nogo","false","0","","false","<div class = centerbox><div  id = stim1></div></div>","-1","32","750","","test","nogo","288","random","","",""
"","-1","-1","1084","0","test_block","poldrack-single-stim","303","421074","0.0-5.0-289.0","go-nogo","false","0","","false","<div class = centerbox><div  id = stim2></div></div>","32","32","750","","test","go","289","random","","",""
"","367","32","1350","0","test_block","poldrack-single-stim","304","422450","0.0-5.0-290.0","go-nogo","false","0","","true","<div class = centerbox><div  id = stim2></div></div>","32","32","750","","test","go","290","random","","",""
"","-1","-1","1123","0","test_block","poldrack-single-stim","305","423596","0.0-5.0-291.0","go-nogo","false","0","","false","<div class = centerbox><div  id = stim2></div></div>","32","32","750","","test","go","291","random","","",""
"","-1","-1","1244","0","test_block","poldrack-single-stim","306","424920","0.0-5.0-292.0","go-nogo","false","0","","false","<div class = centerbox><div  id = stim2></div></div>","32","32","750","","test","go","292","random","","",""
"","311","32","1216","0","test_block","poldrack-single-stim","307","426216","0.0-5.0-293.0","go-nogo","false","0","","true","<div class = centerbox><div  id = stim2></div></div>","32","32","750","","test","go","293","random","","",""
"","287","32","1351","0","test_block","poldrack-single-stim","308","427595","0.0-5.0-294.0","go-nogo","false","0","","true","<div class = centerbox><div  id = stim2></div></div>","32","32","750","","test","go","294","random","","",""
"","309","32","1410","0","test_block","poldrack-single-stim","309","429106","0.0-5.0-295.0","go-nogo","false","0","","true","<div class = centerbox><div  id = stim2></div></div>","32","32","750","","test","go","295","random","","",""
"","20","32","1200","0","test_block","poldrack-single-stim","310","430353","0.0-5.0-296.0","go-nogo","false","0","","true","<div class = centerbox><div  id = stim2></div></div>","32","32","750","","test","go","296","random","","",""
"","267","32","1338","0","test_block","poldrack-single-stim","311","431713","0.0-5.0-297.0","go-nogo","false","0","","true","<div class = centerbox><div  id = stim2></div></div>","32","32","750","","test","go","297","random","","",""
"","299","32","1145","0","test_block","poldrack-single-stim","312","432929","0.0-5.0-298.0","go-nogo","false","0","","true","<div class = centerbox><div  id = stim2></div></div>","32","32","750","","test","go","298","random","","",""
"","323","32","1405","0","test_block","poldrack-single-stim","313","434360","0.0-5.0-299.0","go-nogo","false","0","","true","<div class = centerbox><div  id = stim2></div></div>","32","32","750","","test","go","299","random","","",""
"","229","32","1459","0","test_block","poldrack-single-stim","314","435841","0.0-5.0-300.0","go-nogo","false","0","","true","<div class = centerbox><div  id = stim2></div></div>","32","32","750","","test","go","300","random","","",""
"","43","32","1056","0","test_block","poldrack-single-stim","315","436920","0.0-5.0-301.0","go-nogo","false","0","","true","<div class = centerbox><div  id = stim2></div></div>","32","32","750","","test","go","301","random","","",""
"","250","32","1190","0","test_block","poldrack-single-stim","316","438150","0.0-5.0-302.0","go-nogo","false","0","","true","<div class = centerbox><div  id = stim2></div></div>","32","32","750","","test","go","302","random","","",""
"","119","32","1137","0","test_block","poldrack-single-stim","317","439310","0.0-5.0-303.0","go-nogo","false","0","","true","<div class = centerbox><div  id = stim2></div></div>","32","32","750","","test","go","303","random","","",""
"","517","32","1069","0","test_block","poldrack-single-stim","318","440401","0.0-5.0-304.0","go-nogo","false","0","","true","<div class = centerbox><div  id = stim2></div></div>","32","32","750","","test","go","304","random","","",""
"","828","32","1264","0","test_block","poldrack-single-stim","319","441691","0.0-5.0-305.0","go-nogo","false","0","","true","<div class = centerbox><div  id = stim2></div></div>","32","32","750","","test","go","305","random","","",""
"","1265","32","1419","0","test_block","poldrack-single-stim","320","443133","0.0-5.0-306.0","go-nogo","false","0","","true","<div class = centerbox><div  id = stim2></div></div>","32","32","750","","test","go","306","random","","",""
"","376","32","1312","0","test_block","poldrack-single-stim","321","444513","0.0-5.0-307.0","go-nogo","false","0","","true","<div class = centerbox><div  id = stim2></div></div>","32","32","750","","test","go","307","random","","",""
"","151","32","1063","0","test_block","poldrack-single-stim","322","445654","0.0-5.0-308.0","go-nogo","false","0","","true","<div class = centerbox><div  id = stim2></div></div>","32","32","750","","test","go","308","random","","",""
"","387","32","1400","0","test_block","poldrack-single-stim","323","448315","0.0-5.0-309.0","go-nogo","false","1","","true","<div class = centerbox><div  id = stim2></div></div>","32","32","750","","test","go","309","random","","",""
"","-1","-1","1262","0","test_block","poldrack-single-stim","324","450033","0.0-5.0-310.0","go-nogo","false","0","","false","<div class = centerbox><div  id = stim2></div></div>","32","32","750","","test","go","310","random","","",""
"","375","32","1213","0","test_block","poldrack-single-stim","325","451313","0.0-5.0-311.0","go-nogo","false","0","","true","<div class = centerbox><div  id = stim2></div></div>","32","32","750","","test","go","311","random","","",""
"","333","32","1423","0","test_block","poldrack-single-stim","326","452779","0.0-5.0-312.0","go-nogo","false","0","","true","<div class = centerbox><div  id = stim2></div></div>","32","32","750","","test","go","312","random","","",""
"","366","32","1447","0","test_block","poldrack-single-stim","327","454267","0.0-5.0-313.0","go-nogo","false","0","","true","<div class = centerbox><div  id = stim2></div></div>","32","32","750","","test","go","313","random","","",""
"","248","32","1355","0","test_block","poldrack-single-stim","328","455644","0.0-5.0-314.0","go-nogo","false","0","","true","<div class = centerbox><div  id = stim2></div></div>","32","32","750","","test","go","314","random","","",""
"","308","32","1268","0","test_block","poldrack-single-stim","329","456941","0.0-5.0-315.0","go-nogo","false","0","","true","<div class = centerbox><div  id = stim2></div></div>","32","32","750","","test","go","315","random","","",""
"","279","32","1376","0","test_block","poldrack-single-stim","330","459333","0.0-5.0-316.0","go-nogo","false","1","","true","<div class = centerbox><div  id = stim2></div></div>","32","32","750","","test","go","316","random","","",""
"","-1","-1","1344","0","test_block","poldrack-single-stim","331","460721","0.0-5.0-317.0","go-nogo","false","0","","true","<div class = centerbox><div  id = stim1></div></div>","-1","32","750","","test","nogo","317","random","","",""
"","238","32","1474","0","test_block","poldrack-single-stim","332","462520","0.0-5.0-318.0","go-nogo","false","1","","true","<div class = centerbox><div  id = stim2></div></div>","32","32","750","","test","go","318","random","","",""
"","-1","-1","1373","0","test_block","poldrack-single-stim","333","463947","0.0-5.0-319.0","go-nogo","false","0","","false","<div class = centerbox><div  id = stim2></div></div>","32","32","750","","test","go","319","random","","",""
"","280","32","1143","0","test_block","poldrack-single-stim","334","465116","0.0-5.0-320.0","go-nogo","false","0","","true","<div class = centerbox><div  id = stim2></div></div>","32","32","750","","test","go","320","random","","",""
"","336","32","1022","0","test_block","poldrack-single-stim","335","466160","0.0-5.0-321.0","go-nogo","false","0","","false","<div class = centerbox><div  id = stim1></div></div>","-1","32","750","","test","nogo","321","random","","",""
"","-1","-1","1381","0","test_block","poldrack-single-stim","336","467568","0.0-5.0-322.0","go-nogo","false","0","","false","<div class = centerbox><div  id = stim2></div></div>","32","32","750","","test","go","322","random","","",""
"","386","32","1256","0","test_block","poldrack-single-stim","337","468849","0.0-5.0-323.0","go-nogo","false","0","","true","<div class = centerbox><div  id = stim2></div></div>","32","32","750","","test","go","323","random","","",""
"","370","32","1357","0","test_block","poldrack-single-stim","338","470230","0.0-5.0-324.0","go-nogo","false","0","","true","<div class = centerbox><div  id = stim2></div></div>","32","32","750","","test","go","324","random","","",""
"","842","32","1338","0","test_block","poldrack-single-stim","339","471607","0.0-5.0-325.0","go-nogo","false","0","","true","<div class = centerbox><div  id = stim2></div></div>","32","32","750","","test","go","325","random","","",""
"","269","32","1460","0","test_block","poldrack-single-stim","340","473096","0.0-5.0-326.0","go-nogo","false","0","","true","<div class = centerbox><div  id = stim2></div></div>","32","32","750","","test","go","326","random","","",""
"","306","32","1254","0","test_block","poldrack-single-stim","341","474400","0.0-5.0-327.0","go-nogo","false","0","","true","<div class = centerbox><div  id = stim2></div></div>","32","32","750","","test","go","327","random","","",""
"","356","32","1360","0","test_block","poldrack-single-stim","342","475809","0.0-5.0-328.0","go-nogo","false","0","","true","<div class = centerbox><div  id = stim2></div></div>","32","32","750","","test","go","328","random","","",""
"","248","32","1007","0","test_block","poldrack-single-stim","343","476840","0.0-5.0-329.0","go-nogo","false","0","","true","<div class = centerbox><div  id = stim2></div></div>","32","32","750","","test","go","329","random","","",""
"","791","32","1156","0","test_block","poldrack-single-stim","344","478025","0.0-5.0-330.0","go-nogo","false","0","","true","<div class = centerbox><div  id = stim2></div></div>","32","32","750","","test","go","330","random","","",""
"","489","32","1255","0","test_block","poldrack-single-stim","345","479306","0.0-5.0-331.0","go-nogo","false","0","","true","<div class = centerbox><div  id = stim2></div></div>","32","32","750","","test","go","331","random","","",""
"","240","32","1062","0","test_block","poldrack-single-stim","346","481130","0.0-5.0-332.0","go-nogo","false","1","","true","<div class = centerbox><div  id = stim2></div></div>","32","32","750","","test","go","332","random","","",""
"","647","32","1382","0","test_block","poldrack-single-stim","347","482555","0.0-5.0-333.0","go-nogo","false","0","","true","<div class = centerbox><div  id = stim2></div></div>","32","32","750","","test","go","333","random","","",""
"","292","32","1349","0","test_block","poldrack-single-stim","348","483930","0.0-5.0-334.0","go-nogo","false","0","","true","<div class = centerbox><div  id = stim2></div></div>","32","32","750","","test","go","334","random","","",""
"","393","32","1172","0","test_block","poldrack-single-stim","349","485125","0.0-5.0-335.0","go-nogo","false","0","","true","<div class = centerbox><div  id = stim2></div></div>","32","32","750","","test","go","335","random","","",""
"","469","32","1412","0","test_block","poldrack-single-stim","350","486560","0.0-5.0-336.0","go-nogo","false","0","","true","<div class = centerbox><div  id = stim2></div></div>","32","32","750","","test","go","336","random","","",""
"","444","32","1183","0","test_block","poldrack-single-stim","351","487765","0.0-5.0-337.0","go-nogo","false","0","","true","<div class = centerbox><div  id = stim2></div></div>","32","32","750","","test","go","337","random","","",""
"","633","32","1197","0","test_block","poldrack-single-stim","352","488999","0.0-5.0-338.0","go-nogo","false","0","","true","<div class = centerbox><div  id = stim2></div></div>","32","32","750","","test","go","338","random","","",""
"","1239","32","1269","0","test_block","poldrack-single-stim","353","490305","0.0-5.0-339.0","go-nogo","false","0","","true","<div class = centerbox><div  id = stim2></div></div>","32","32","750","","test","go","339","random","","",""
"","321","32","1174","0","test_block","poldrack-single-stim","354","491504","0.0-5.0-340.0","go-nogo","false","0","","false","<div class = centerbox><div  id = stim1></div></div>","-1","32","750","","test","nogo","340","random","","",""
"","827","32","1306","0","test_block","poldrack-single-stim","355","492874","0.0-5.0-341.0","go-nogo","false","0","","true","<div class = centerbox><div  id = stim2></div></div>","32","32","750","","test","go","341","random","","",""
"","216","32","1450","0","test_block","poldrack-single-stim","356","494349","0.0-5.0-342.0","go-nogo","false","0","","true","<div class = centerbox><div  id = stim2></div></div>","32","32","750","","test","go","342","random","","",""
"","-1","-1","1432","0","test_block","poldrack-single-stim","357","495861","0.0-5.0-343.0","go-nogo","false","0","","true","<div class = centerbox><div  id = stim1></div></div>","-1","32","750","","test","nogo","343","random","","",""
"","925","32","1363","0","test_block","poldrack-single-stim","358","497248","0.0-5.0-344.0","go-nogo","false","0","","true","<div class = centerbox><div  id = stim2></div></div>","32","32","750","","test","go","344","random","","",""
"","501","32","1451","0","test_block","poldrack-single-stim","359","498778","0.0-5.0-345.0","go-nogo","false","0","","true","<div class = centerbox><div  id = stim2></div></div>","32","32","750","","test","go","345","random","","",""
"","150","32","1405","0","test_block","poldrack-single-stim","360","500282","0.0-5.0-346.0","go-nogo","false","0","","true","<div class = centerbox><div  id = stim2></div></div>","32","32","750","","test","go","346","random","","",""
"","272","32","1445","0","test_block","poldrack-single-stim","361","501749","0.0-5.0-347.0","go-nogo","false","0","","true","<div class = centerbox><div  id = stim2></div></div>","32","32","750","","test","go","347","random","","",""
"","261","32","1425","0","test_block","poldrack-single-stim","362","503199","0.0-5.0-348.0","go-nogo","false","0","","true","<div class = centerbox><div  id = stim2></div></div>","32","32","750","","test","go","348","random","","",""
"","427","32","1172","0","test_block","poldrack-single-stim","363","504394","0.0-5.0-349.0","go-nogo","false","0","","true","<div class = centerbox><div  id = stim2></div></div>","32","32","750","","test","go","349","random","","",""
"","30784","","","","post task questions","survey-text","364","535203","0.0-7.0","go-nogo","false","0","","","","","","","","","","","","{""Q0"":""Press space as quickly as possible if I saw a blue square, and do nothing if I saw orange."",""Q1"":""A progress bar/timer would be nice! :)""}","",""
"<div class = centerbox><p class = center-block-text>Thanks for completing this task!</p><p class = center-block-text>Insert the following code to collect your payment at Amazon Mechanical Turk:</p><p class = center-block-text>513985317</p><p class = center-block-text>Press <strong>enter</strong> to continue.</p></div>","2366","13","2366","0","end","poldrack-text","365","538574","0.0-8.0","go-nogo","false","0","","","","","","","","","","","","","513985317","true"
