"text","rt","key_press","block_duration","timing_post_trial","trial_id","trial_type","trial_index","time_elapsed","internal_node_id","exp_id","full_screen","focus_shifts","view_history","correct","stimulus","correct_response","possible_responses","stim_duration","feedback_duration","exp_stage","condition","trial_num","mode","responses","payment_id","credit_var"
"<div class = centerbox><p class = center-block-text>Welcome to the experiment. This task will take around 10 minutes. Press <strong>enter</strong> to begin.</p></div>","11484","13","11484","0","instruction","poldrack-text","0","11495","0.0-0.0-0.0","go-nogo","false","1","","","","","","","","","","","","","",""
"","61584","","","","instruction","poldrack-instructions","1","73085","0.0-0.0-1.0","go-nogo","false","2","[{""page_index"":0,""viewing_time"":61581}]","","","","","","","","","","","","",""
"","912","32","1085","250","practice","poldrack-categorize","2","76217","0.0-1.0-0.0","go-nogo","false","0","","true","<div class = centerbox><div  id = stim2></div></div>","32","32","750","1000","practice","go","0","random","","",""
"","384","32","1457","250","practice","poldrack-categorize","3","78958","0.0-1.0-1.0","go-nogo","false","0","","true","<div class = centerbox><div  id = stim2></div></div>","32","32","750","1000","practice","go","1","random","","",""
"","-1","-1","1393","250","practice","poldrack-categorize","4","81641","0.0-1.0-2.0","go-nogo","false","0","","true","<div class = centerbox><div id = stim1></div></div>","-1","32","750","1000","practice","nogo","2","random","","",""
"","431","32","1377","250","practice","poldrack-categorize","5","84309","0.0-1.0-3.0","go-nogo","false","0","","true","<div class = centerbox><div  id = stim2></div></div>","32","32","750","1000","practice","go","3","random","","",""
"","-1","-1","1146","250","practice","poldrack-categorize","6","86743","0.0-1.0-4.0","go-nogo","false","0","","true","<div class = centerbox><div id = stim1></div></div>","-1","32","750","1000","practice","nogo","4","random","","",""
"","-1","-1","1288","250","practice","poldrack-categorize","7","89316","0.0-1.0-5.0","go-nogo","false","0","","true","<div class = centerbox><div id = stim1></div></div>","-1","32","750","1000","practice","nogo","5","random","","",""
"","-1","-1","1431","250","practice","poldrack-categorize","8","92046","0.0-1.0-6.0","go-nogo","false","0","","true","<div class = centerbox><div id = stim1></div></div>","-1","32","750","1000","practice","nogo","6","random","","",""
"","373","32","1494","250","practice","poldrack-categorize","9","94840","0.0-1.0-7.0","go-nogo","false","0","","true","<div class = centerbox><div  id = stim2></div></div>","32","32","750","1000","practice","go","7","random","","",""
"","761","32","1481","250","practice","poldrack-categorize","10","97617","0.0-1.0-8.0","go-nogo","false","0","","true","<div class = centerbox><div  id = stim2></div></div>","32","32","750","1000","practice","go","8","random","","",""
"","-1","-1","1135","250","practice","poldrack-categorize","11","100034","0.0-1.0-9.0","go-nogo","false","0","","true","<div class = centerbox><div id = stim1></div></div>","-1","32","750","1000","practice","nogo","9","random","","",""
"","","","","","reset_trial","call-function","12","100299","0.0-3.0","go-nogo","false","0","","","","","","","","","","","","","",""
"<div class = centerbox><p class = block-text>Practice is over, we will now begin the experiment. You will no longer get feedback about your responses.</p><p class = block-text>Remember, if you see the <font color=""blue"">blue</font> square you should <strong> respond by pressing the spacebar as quickly as possible</strong>. If you see the <font color=""orange"">orange</font> square you should <strong> not respond</strong>. Press <strong>enter</strong> to begin.</p></div>","8497","13","8497","1000","test_intro","poldrack-text","13","108800","0.0-4.0","go-nogo","false","0","","","","","","","","","","","","","",""
"","408","32","1083","0","test_block","poldrack-single-stim","14","110908","0.0-5.0-0.0","go-nogo","false","0","","true","<div class = centerbox><div  id = stim2></div></div>","32","32","750","","test","go","0","random","","",""
"","412","32","1199","0","test_block","poldrack-single-stim","15","112748","0.0-5.0-1.0","go-nogo","false","0","","true","<div class = centerbox><div  id = stim2></div></div>","32","32","750","","test","go","1","random","","",""
"","-1","-1","1436","0","test_block","poldrack-single-stim","16","114481","0.0-5.0-2.0","go-nogo","false","0","","true","<div class = centerbox><div  id = stim1></div></div>","-1","32","750","","test","nogo","2","random","","",""
"","358","32","1337","0","test_block","poldrack-single-stim","17","116086","0.0-5.0-3.0","go-nogo","false","0","","true","<div class = centerbox><div  id = stim2></div></div>","32","32","750","","test","go","3","random","","",""
"","338","32","1110","0","test_block","poldrack-single-stim","18","117428","0.0-5.0-4.0","go-nogo","false","0","","true","<div class = centerbox><div  id = stim2></div></div>","32","32","750","","test","go","4","random","","",""
"","290","32","1278","0","test_block","poldrack-single-stim","19","118957","0.0-5.0-5.0","go-nogo","false","0","","true","<div class = centerbox><div  id = stim2></div></div>","32","32","750","","test","go","5","random","","",""
"","319","32","1308","0","test_block","poldrack-single-stim","20","120501","0.0-5.0-6.0","go-nogo","false","0","","true","<div class = centerbox><div  id = stim2></div></div>","32","32","750","","test","go","6","random","","",""
"","306","32","1442","0","test_block","poldrack-single-stim","21","122155","0.0-5.0-7.0","go-nogo","false","0","","true","<div class = centerbox><div  id = stim2></div></div>","32","32","750","","test","go","7","random","","",""
"","480","32","1186","0","test_block","poldrack-single-stim","22","123543","0.0-5.0-8.0","go-nogo","false","0","","true","<div class = centerbox><div  id = stim2></div></div>","32","32","750","","test","go","8","random","","",""
"","499","32","1210","0","test_block","poldrack-single-stim","23","124916","0.0-5.0-9.0","go-nogo","false","0","","true","<div class = centerbox><div  id = stim2></div></div>","32","32","750","","test","go","9","random","","",""
"","404","32","1103","0","test_block","poldrack-single-stim","24","126195","0.0-5.0-10.0","go-nogo","false","0","","true","<div class = centerbox><div  id = stim2></div></div>","32","32","750","","test","go","10","random","","",""
"","381","32","1157","0","test_block","poldrack-single-stim","25","127505","0.0-5.0-11.0","go-nogo","false","0","","true","<div class = centerbox><div  id = stim2></div></div>","32","32","750","","test","go","11","random","","",""
"","425","32","1424","0","test_block","poldrack-single-stim","26","129096","0.0-5.0-12.0","go-nogo","false","0","","true","<div class = centerbox><div  id = stim2></div></div>","32","32","750","","test","go","12","random","","",""
"","469","32","1161","0","test_block","poldrack-single-stim","27","130439","0.0-5.0-13.0","go-nogo","false","0","","true","<div class = centerbox><div  id = stim2></div></div>","32","32","750","","test","go","13","random","","",""
"","364","32","1329","0","test_block","poldrack-single-stim","28","131920","0.0-5.0-14.0","go-nogo","false","0","","true","<div class = centerbox><div  id = stim2></div></div>","32","32","750","","test","go","14","random","","",""
"","319","32","1083","0","test_block","poldrack-single-stim","29","133169","0.0-5.0-15.0","go-nogo","false","0","","true","<div class = centerbox><div  id = stim2></div></div>","32","32","750","","test","go","15","random","","",""
"","298","32","1044","0","test_block","poldrack-single-stim","30","134385","0.0-5.0-16.0","go-nogo","false","0","","true","<div class = centerbox><div  id = stim2></div></div>","32","32","750","","test","go","16","random","","",""
"","280","32","1060","0","test_block","poldrack-single-stim","31","135617","0.0-5.0-17.0","go-nogo","false","0","","true","<div class = centerbox><div  id = stim2></div></div>","32","32","750","","test","go","17","random","","",""
"","291","32","1087","0","test_block","poldrack-single-stim","32","136865","0.0-5.0-18.0","go-nogo","false","0","","true","<div class = centerbox><div  id = stim2></div></div>","32","32","750","","test","go","18","random","","",""
"","-1","-1","1441","0","test_block","poldrack-single-stim","33","138473","0.0-5.0-19.0","go-nogo","false","0","","true","<div class = centerbox><div  id = stim1></div></div>","-1","32","750","","test","nogo","19","random","","",""
"","-1","-1","1047","0","test_block","poldrack-single-stim","34","139689","0.0-5.0-20.0","go-nogo","false","0","","true","<div class = centerbox><div  id = stim1></div></div>","-1","32","750","","test","nogo","20","random","","",""
"","450","32","1077","0","test_block","poldrack-single-stim","35","140922","0.0-5.0-21.0","go-nogo","false","0","","true","<div class = centerbox><div  id = stim2></div></div>","32","32","750","","test","go","21","random","","",""
"","351","32","1357","0","test_block","poldrack-single-stim","36","142435","0.0-5.0-22.0","go-nogo","false","0","","true","<div class = centerbox><div  id = stim2></div></div>","32","32","750","","test","go","22","random","","",""
"","318","32","1174","0","test_block","poldrack-single-stim","37","143760","0.0-5.0-23.0","go-nogo","false","0","","true","<div class = centerbox><div  id = stim2></div></div>","32","32","750","","test","go","23","random","","",""
"","336","32","1488","0","test_block","poldrack-single-stim","38","145415","0.0-5.0-24.0","go-nogo","false","0","","true","<div class = centerbox><div  id = stim2></div></div>","32","32","750","","test","go","24","random","","",""
"","428","32","1131","0","test_block","poldrack-single-stim","39","146725","0.0-5.0-25.0","go-nogo","false","0","","true","<div class = centerbox><div  id = stim2></div></div>","32","32","750","","test","go","25","random","","",""
"","-1","-1","1487","0","test_block","poldrack-single-stim","40","148535","0.0-5.0-26.0","go-nogo","false","0","","true","<div class = centerbox><div  id = stim1></div></div>","-1","32","750","","test","nogo","26","random","","",""
"","521","32","1269","0","test_block","poldrack-single-stim","41","149970","0.0-5.0-27.0","go-nogo","false","0","","true","<div class = centerbox><div  id = stim2></div></div>","32","32","750","","test","go","27","random","","",""
"","418","32","1277","0","test_block","poldrack-single-stim","42","151404","0.0-5.0-28.0","go-nogo","false","0","","true","<div class = centerbox><div  id = stim2></div></div>","32","32","750","","test","go","28","random","","",""
"","373","32","1194","0","test_block","poldrack-single-stim","43","152762","0.0-5.0-29.0","go-nogo","false","0","","true","<div class = centerbox><div  id = stim2></div></div>","32","32","750","","test","go","29","random","","",""
"","316","32","1319","0","test_block","poldrack-single-stim","44","154229","0.0-5.0-30.0","go-nogo","false","0","","true","<div class = centerbox><div  id = stim2></div></div>","32","32","750","","test","go","30","random","","",""
"","-1","-1","1279","0","test_block","poldrack-single-stim","45","155664","0.0-5.0-31.0","go-nogo","false","0","","true","<div class = centerbox><div  id = stim1></div></div>","-1","32","750","","test","nogo","31","random","","",""
"","365","32","1431","0","test_block","poldrack-single-stim","46","157255","0.0-5.0-32.0","go-nogo","false","0","","true","<div class = centerbox><div  id = stim2></div></div>","32","32","750","","test","go","32","random","","",""
"","292","32","1448","0","test_block","poldrack-single-stim","47","158878","0.0-5.0-33.0","go-nogo","false","0","","true","<div class = centerbox><div  id = stim2></div></div>","32","32","750","","test","go","33","random","","",""
"","324","32","1260","0","test_block","poldrack-single-stim","48","160297","0.0-5.0-34.0","go-nogo","false","0","","true","<div class = centerbox><div  id = stim2></div></div>","32","32","750","","test","go","34","random","","",""
"","424","32","1470","0","test_block","poldrack-single-stim","49","161919","0.0-5.0-35.0","go-nogo","false","0","","true","<div class = centerbox><div  id = stim2></div></div>","32","32","750","","test","go","35","random","","",""
"","301","32","1169","0","test_block","poldrack-single-stim","50","163245","0.0-5.0-36.0","go-nogo","false","0","","true","<div class = centerbox><div  id = stim2></div></div>","32","32","750","","test","go","36","random","","",""
"","348","32","1407","0","test_block","poldrack-single-stim","51","164806","0.0-5.0-37.0","go-nogo","false","0","","true","<div class = centerbox><div  id = stim2></div></div>","32","32","750","","test","go","37","random","","",""
"","313","32","1192","0","test_block","poldrack-single-stim","52","166178","0.0-5.0-38.0","go-nogo","false","0","","true","<div class = centerbox><div  id = stim2></div></div>","32","32","750","","test","go","38","random","","",""
"","364","32","1225","0","test_block","poldrack-single-stim","53","167551","0.0-5.0-39.0","go-nogo","false","0","","true","<div class = centerbox><div  id = stim2></div></div>","32","32","750","","test","go","39","random","","",""
"","279","32","1449","0","test_block","poldrack-single-stim","54","169157","0.0-5.0-40.0","go-nogo","false","0","","true","<div class = centerbox><div  id = stim2></div></div>","32","32","750","","test","go","40","random","","",""
"","67","32","1051","0","test_block","poldrack-single-stim","55","170359","0.0-5.0-41.0","go-nogo","false","0","","true","<div class = centerbox><div  id = stim2></div></div>","32","32","750","","test","go","41","random","","",""
"","348","32","1463","0","test_block","poldrack-single-stim","56","171981","0.0-5.0-42.0","go-nogo","false","0","","true","<div class = centerbox><div  id = stim2></div></div>","32","32","750","","test","go","42","random","","",""
"","297","32","1112","0","test_block","poldrack-single-stim","57","173261","0.0-5.0-43.0","go-nogo","false","0","","true","<div class = centerbox><div  id = stim2></div></div>","32","32","750","","test","go","43","random","","",""
"","310","32","1027","0","test_block","poldrack-single-stim","58","174447","0.0-5.0-44.0","go-nogo","false","0","","true","<div class = centerbox><div  id = stim2></div></div>","32","32","750","","test","go","44","random","","",""
"","302","32","1262","0","test_block","poldrack-single-stim","59","175867","0.0-5.0-45.0","go-nogo","false","0","","true","<div class = centerbox><div  id = stim2></div></div>","32","32","750","","test","go","45","random","","",""
"","311","32","1470","0","test_block","poldrack-single-stim","60","177520","0.0-5.0-46.0","go-nogo","false","0","","true","<div class = centerbox><div  id = stim2></div></div>","32","32","750","","test","go","46","random","","",""
"","-1","-1","1238","0","test_block","poldrack-single-stim","61","178909","0.0-5.0-47.0","go-nogo","false","0","","true","<div class = centerbox><div  id = stim1></div></div>","-1","32","750","","test","nogo","47","random","","",""
"","358","32","1401","0","test_block","poldrack-single-stim","62","180484","0.0-5.0-48.0","go-nogo","false","0","","true","<div class = centerbox><div  id = stim2></div></div>","32","32","750","","test","go","48","random","","",""
"","334","32","1320","0","test_block","poldrack-single-stim","63","181950","0.0-5.0-49.0","go-nogo","false","0","","true","<div class = centerbox><div  id = stim2></div></div>","32","32","750","","test","go","49","random","","",""
"","303","32","1115","0","test_block","poldrack-single-stim","64","183229","0.0-5.0-50.0","go-nogo","false","0","","true","<div class = centerbox><div  id = stim2></div></div>","32","32","750","","test","go","50","random","","",""
"","314","32","1113","0","test_block","poldrack-single-stim","65","184493","0.0-5.0-51.0","go-nogo","false","0","","true","<div class = centerbox><div  id = stim2></div></div>","32","32","750","","test","go","51","random","","",""
"","291","32","1001","0","test_block","poldrack-single-stim","66","185648","0.0-5.0-52.0","go-nogo","false","0","","true","<div class = centerbox><div  id = stim2></div></div>","32","32","750","","test","go","52","random","","",""
"","300","32","1234","0","test_block","poldrack-single-stim","67","187036","0.0-5.0-53.0","go-nogo","false","0","","true","<div class = centerbox><div  id = stim2></div></div>","32","32","750","","test","go","53","random","","",""
"","316","32","1445","0","test_block","poldrack-single-stim","68","188627","0.0-5.0-54.0","go-nogo","false","0","","true","<div class = centerbox><div  id = stim2></div></div>","32","32","750","","test","go","54","random","","",""
"","366","32","1377","0","test_block","poldrack-single-stim","69","190171","0.0-5.0-55.0","go-nogo","false","0","","true","<div class = centerbox><div  id = stim2></div></div>","32","32","750","","test","go","55","random","","",""
"","329","32","1470","0","test_block","poldrack-single-stim","70","191825","0.0-5.0-56.0","go-nogo","false","0","","true","<div class = centerbox><div  id = stim2></div></div>","32","32","750","","test","go","56","random","","",""
"","327","32","1202","0","test_block","poldrack-single-stim","71","193182","0.0-5.0-57.0","go-nogo","false","0","","true","<div class = centerbox><div  id = stim2></div></div>","32","32","750","","test","go","57","random","","",""
"","326","32","1122","0","test_block","poldrack-single-stim","72","194461","0.0-5.0-58.0","go-nogo","false","0","","true","<div class = centerbox><div  id = stim2></div></div>","32","32","750","","test","go","58","random","","",""
"","292","32","1472","0","test_block","poldrack-single-stim","73","196084","0.0-5.0-59.0","go-nogo","false","0","","true","<div class = centerbox><div  id = stim2></div></div>","32","32","750","","test","go","59","random","","",""
"","312","32","1024","0","test_block","poldrack-single-stim","74","197269","0.0-5.0-60.0","go-nogo","false","0","","true","<div class = centerbox><div  id = stim2></div></div>","32","32","750","","test","go","60","random","","",""
"","317","32","1375","0","test_block","poldrack-single-stim","75","198782","0.0-5.0-61.0","go-nogo","false","0","","true","<div class = centerbox><div  id = stim2></div></div>","32","32","750","","test","go","61","random","","",""
"","379","32","1367","0","test_block","poldrack-single-stim","76","200314","0.0-5.0-62.0","go-nogo","false","0","","true","<div class = centerbox><div  id = stim2></div></div>","32","32","750","","test","go","62","random","","",""
"","-1","-1","1241","0","test_block","poldrack-single-stim","77","201701","0.0-5.0-63.0","go-nogo","false","0","","true","<div class = centerbox><div  id = stim1></div></div>","-1","32","750","","test","nogo","63","random","","",""
"","331","32","1012","0","test_block","poldrack-single-stim","78","202854","0.0-5.0-64.0","go-nogo","false","0","","true","<div class = centerbox><div  id = stim2></div></div>","32","32","750","","test","go","64","random","","",""
"","318","32","1023","0","test_block","poldrack-single-stim","79","204040","0.0-5.0-65.0","go-nogo","false","0","","true","<div class = centerbox><div  id = stim2></div></div>","32","32","750","","test","go","65","random","","",""
"","277","32","1068","0","test_block","poldrack-single-stim","80","205273","0.0-5.0-66.0","go-nogo","false","0","","true","<div class = centerbox><div  id = stim2></div></div>","32","32","750","","test","go","66","random","","",""
"","270","32","1193","0","test_block","poldrack-single-stim","81","206614","0.0-5.0-67.0","go-nogo","false","0","","false","<div class = centerbox><div  id = stim1></div></div>","-1","32","750","","test","nogo","67","random","","",""
"","399","32","1045","0","test_block","poldrack-single-stim","82","207800","0.0-5.0-68.0","go-nogo","false","0","","true","<div class = centerbox><div  id = stim2></div></div>","32","32","750","","test","go","68","random","","",""
"","320","32","1370","0","test_block","poldrack-single-stim","83","209313","0.0-5.0-69.0","go-nogo","false","0","","true","<div class = centerbox><div  id = stim2></div></div>","32","32","750","","test","go","69","random","","",""
"","291","32","1489","0","test_block","poldrack-single-stim","84","210951","0.0-5.0-70.0","go-nogo","false","0","","false","<div class = centerbox><div  id = stim1></div></div>","-1","32","750","","test","nogo","70","random","","",""
"","-1","-1","1478","0","test_block","poldrack-single-stim","85","212604","0.0-5.0-71.0","go-nogo","false","0","","true","<div class = centerbox><div  id = stim1></div></div>","-1","32","750","","test","nogo","71","random","","",""
"","351","32","1262","0","test_block","poldrack-single-stim","86","214024","0.0-5.0-72.0","go-nogo","false","0","","true","<div class = centerbox><div  id = stim2></div></div>","32","32","750","","test","go","72","random","","",""
"","353","32","1221","0","test_block","poldrack-single-stim","87","215381","0.0-5.0-73.0","go-nogo","false","0","","true","<div class = centerbox><div  id = stim2></div></div>","32","32","750","","test","go","73","random","","",""
"","331","32","1171","0","test_block","poldrack-single-stim","88","216691","0.0-5.0-74.0","go-nogo","false","0","","true","<div class = centerbox><div  id = stim2></div></div>","32","32","750","","test","go","74","random","","",""
"","333","32","1343","0","test_block","poldrack-single-stim","89","218174","0.0-5.0-75.0","go-nogo","false","0","","true","<div class = centerbox><div  id = stim2></div></div>","32","32","750","","test","go","75","random","","",""
"","343","32","1349","0","test_block","poldrack-single-stim","90","219687","0.0-5.0-76.0","go-nogo","false","0","","true","<div class = centerbox><div  id = stim2></div></div>","32","32","750","","test","go","76","random","","",""
"","332","32","1196","0","test_block","poldrack-single-stim","91","221044","0.0-5.0-77.0","go-nogo","false","0","","true","<div class = centerbox><div  id = stim2></div></div>","32","32","750","","test","go","77","random","","",""
"","318","32","1239","0","test_block","poldrack-single-stim","92","222433","0.0-5.0-78.0","go-nogo","false","0","","true","<div class = centerbox><div  id = stim2></div></div>","32","32","750","","test","go","78","random","","",""
"","325","32","1250","0","test_block","poldrack-single-stim","93","223821","0.0-5.0-79.0","go-nogo","false","0","","true","<div class = centerbox><div  id = stim2></div></div>","32","32","750","","test","go","79","random","","",""
"","-1","-1","1449","0","test_block","poldrack-single-stim","94","225428","0.0-5.0-80.0","go-nogo","false","0","","true","<div class = centerbox><div  id = stim1></div></div>","-1","32","750","","test","nogo","80","random","","",""
"","361","32","1012","0","test_block","poldrack-single-stim","95","226598","0.0-5.0-81.0","go-nogo","false","0","","true","<div class = centerbox><div  id = stim2></div></div>","32","32","750","","test","go","81","random","","",""
"","511","32","1133","0","test_block","poldrack-single-stim","96","227876","0.0-5.0-82.0","go-nogo","false","0","","true","<div class = centerbox><div  id = stim2></div></div>","32","32","750","","test","go","82","random","","",""
"","308","32","1326","0","test_block","poldrack-single-stim","97","229359","0.0-5.0-83.0","go-nogo","false","0","","true","<div class = centerbox><div  id = stim2></div></div>","32","32","750","","test","go","83","random","","",""
"","327","32","1115","0","test_block","poldrack-single-stim","98","230623","0.0-5.0-84.0","go-nogo","false","0","","true","<div class = centerbox><div  id = stim2></div></div>","32","32","750","","test","go","84","random","","",""
"","315","32","1481","0","test_block","poldrack-single-stim","99","232245","0.0-5.0-85.0","go-nogo","false","0","","true","<div class = centerbox><div  id = stim2></div></div>","32","32","750","","test","go","85","random","","",""
"","330","32","1036","0","test_block","poldrack-single-stim","100","233430","0.0-5.0-86.0","go-nogo","false","0","","true","<div class = centerbox><div  id = stim2></div></div>","32","32","750","","test","go","86","random","","",""
"","328","32","1357","0","test_block","poldrack-single-stim","101","234930","0.0-5.0-87.0","go-nogo","false","0","","true","<div class = centerbox><div  id = stim2></div></div>","32","32","750","","test","go","87","random","","",""
"","319","32","1095","0","test_block","poldrack-single-stim","102","236176","0.0-5.0-88.0","go-nogo","false","0","","true","<div class = centerbox><div  id = stim2></div></div>","32","32","750","","test","go","88","random","","",""
"","290","32","1014","0","test_block","poldrack-single-stim","103","237330","0.0-5.0-89.0","go-nogo","false","0","","true","<div class = centerbox><div  id = stim2></div></div>","32","32","750","","test","go","89","random","","",""
"","290","32","1047","0","test_block","poldrack-single-stim","104","238532","0.0-5.0-90.0","go-nogo","false","0","","true","<div class = centerbox><div  id = stim2></div></div>","32","32","750","","test","go","90","random","","",""
"","299","32","1380","0","test_block","poldrack-single-stim","105","240060","0.0-5.0-91.0","go-nogo","false","0","","true","<div class = centerbox><div  id = stim2></div></div>","32","32","750","","test","go","91","random","","",""
"","339","32","1138","0","test_block","poldrack-single-stim","106","241340","0.0-5.0-92.0","go-nogo","false","0","","true","<div class = centerbox><div  id = stim2></div></div>","32","32","750","","test","go","92","random","","",""
"","348","32","1177","0","test_block","poldrack-single-stim","107","242651","0.0-5.0-93.0","go-nogo","false","0","","true","<div class = centerbox><div  id = stim2></div></div>","32","32","750","","test","go","93","random","","",""
"","274","32","1380","0","test_block","poldrack-single-stim","108","244179","0.0-5.0-94.0","go-nogo","false","0","","true","<div class = centerbox><div  id = stim2></div></div>","32","32","750","","test","go","94","random","","",""
"","301","32","1313","0","test_block","poldrack-single-stim","109","245630","0.0-5.0-95.0","go-nogo","false","0","","true","<div class = centerbox><div  id = stim2></div></div>","32","32","750","","test","go","95","random","","",""
"","315","32","1333","0","test_block","poldrack-single-stim","110","247112","0.0-5.0-96.0","go-nogo","false","0","","true","<div class = centerbox><div  id = stim2></div></div>","32","32","750","","test","go","96","random","","",""
"","331","32","1477","0","test_block","poldrack-single-stim","111","248735","0.0-5.0-97.0","go-nogo","false","0","","true","<div class = centerbox><div  id = stim2></div></div>","32","32","750","","test","go","97","random","","",""
"","326","32","1284","0","test_block","poldrack-single-stim","112","250170","0.0-5.0-98.0","go-nogo","false","0","","true","<div class = centerbox><div  id = stim2></div></div>","32","32","750","","test","go","98","random","","",""
"","304","32","1266","0","test_block","poldrack-single-stim","113","251575","0.0-5.0-99.0","go-nogo","false","0","","true","<div class = centerbox><div  id = stim2></div></div>","32","32","750","","test","go","99","random","","",""
"","283","32","1209","0","test_block","poldrack-single-stim","114","252993","0.0-5.0-100.0","go-nogo","false","0","","true","<div class = centerbox><div  id = stim2></div></div>","32","32","750","","test","go","100","random","","",""
"","331","32","1375","0","test_block","poldrack-single-stim","115","254506","0.0-5.0-101.0","go-nogo","false","0","","true","<div class = centerbox><div  id = stim2></div></div>","32","32","750","","test","go","101","random","","",""
"","353","32","1201","0","test_block","poldrack-single-stim","116","255847","0.0-5.0-102.0","go-nogo","false","0","","true","<div class = centerbox><div  id = stim2></div></div>","32","32","750","","test","go","102","random","","",""
"","159","32","1124","0","test_block","poldrack-single-stim","117","257112","0.0-5.0-103.0","go-nogo","false","0","","true","<div class = centerbox><div  id = stim2></div></div>","32","32","750","","test","go","103","random","","",""
"","314","32","1407","0","test_block","poldrack-single-stim","118","258672","0.0-5.0-104.0","go-nogo","false","0","","true","<div class = centerbox><div  id = stim2></div></div>","32","32","750","","test","go","104","random","","",""
"","286","32","1183","0","test_block","poldrack-single-stim","119","259997","0.0-5.0-105.0","go-nogo","false","0","","true","<div class = centerbox><div  id = stim2></div></div>","32","32","750","","test","go","105","random","","",""
"","263","32","1347","0","test_block","poldrack-single-stim","120","261480","0.0-5.0-106.0","go-nogo","false","0","","true","<div class = centerbox><div  id = stim2></div></div>","32","32","750","","test","go","106","random","","",""
"","530","32","1454","0","test_block","poldrack-single-stim","121","263070","0.0-5.0-107.0","go-nogo","false","0","","true","<div class = centerbox><div  id = stim2></div></div>","32","32","750","","test","go","107","random","","",""
"","-1","-1","1388","0","test_block","poldrack-single-stim","122","264600","0.0-5.0-108.0","go-nogo","false","0","","true","<div class = centerbox><div  id = stim1></div></div>","-1","32","750","","test","nogo","108","random","","",""
"","368","32","1176","0","test_block","poldrack-single-stim","123","265910","0.0-5.0-109.0","go-nogo","false","0","","true","<div class = centerbox><div  id = stim2></div></div>","32","32","750","","test","go","109","random","","",""
"","332","32","1465","0","test_block","poldrack-single-stim","124","267517","0.0-5.0-110.0","go-nogo","false","0","","true","<div class = centerbox><div  id = stim2></div></div>","32","32","750","","test","go","110","random","","",""
"","95","32","1352","0","test_block","poldrack-single-stim","125","269014","0.0-5.0-111.0","go-nogo","false","0","","true","<div class = centerbox><div  id = stim2></div></div>","32","32","750","","test","go","111","random","","",""
"","303","32","1286","0","test_block","poldrack-single-stim","126","270449","0.0-5.0-112.0","go-nogo","false","0","","true","<div class = centerbox><div  id = stim2></div></div>","32","32","750","","test","go","112","random","","",""
"","308","32","1004","0","test_block","poldrack-single-stim","127","271619","0.0-5.0-113.0","go-nogo","false","0","","true","<div class = centerbox><div  id = stim2></div></div>","32","32","750","","test","go","113","random","","",""
"","327","32","1458","0","test_block","poldrack-single-stim","128","273226","0.0-5.0-114.0","go-nogo","false","0","","true","<div class = centerbox><div  id = stim2></div></div>","32","32","750","","test","go","114","random","","",""
"","298","32","1008","0","test_block","poldrack-single-stim","129","274382","0.0-5.0-115.0","go-nogo","false","0","","true","<div class = centerbox><div  id = stim2></div></div>","32","32","750","","test","go","115","random","","",""
"","301","32","1089","0","test_block","poldrack-single-stim","130","275614","0.0-5.0-116.0","go-nogo","false","0","","true","<div class = centerbox><div  id = stim2></div></div>","32","32","750","","test","go","116","random","","",""
"","224","32","1351","0","test_block","poldrack-single-stim","131","277111","0.0-5.0-117.0","go-nogo","false","0","","true","<div class = centerbox><div  id = stim2></div></div>","32","32","750","","test","go","117","random","","",""
"","287","32","1169","0","test_block","poldrack-single-stim","132","278421","0.0-5.0-118.0","go-nogo","false","0","","true","<div class = centerbox><div  id = stim2></div></div>","32","32","750","","test","go","118","random","","",""
"","330","32","1255","0","test_block","poldrack-single-stim","133","279809","0.0-5.0-119.0","go-nogo","false","0","","true","<div class = centerbox><div  id = stim2></div></div>","32","32","750","","test","go","119","random","","",""
"","285","32","1087","0","test_block","poldrack-single-stim","134","281042","0.0-5.0-120.0","go-nogo","false","0","","true","<div class = centerbox><div  id = stim2></div></div>","32","32","750","","test","go","120","random","","",""
"","259","32","1080","0","test_block","poldrack-single-stim","135","282259","0.0-5.0-121.0","go-nogo","false","0","","true","<div class = centerbox><div  id = stim2></div></div>","32","32","750","","test","go","121","random","","",""
"","409","32","1119","0","test_block","poldrack-single-stim","136","283522","0.0-5.0-122.0","go-nogo","false","0","","true","<div class = centerbox><div  id = stim2></div></div>","32","32","750","","test","go","122","random","","",""
"","283","32","1446","0","test_block","poldrack-single-stim","137","285114","0.0-5.0-123.0","go-nogo","false","0","","true","<div class = centerbox><div  id = stim2></div></div>","32","32","750","","test","go","123","random","","",""
"","302","32","1415","0","test_block","poldrack-single-stim","138","286673","0.0-5.0-124.0","go-nogo","false","0","","true","<div class = centerbox><div  id = stim2></div></div>","32","32","750","","test","go","124","random","","",""
"","272","32","1256","0","test_block","poldrack-single-stim","139","288078","0.0-5.0-125.0","go-nogo","false","0","","true","<div class = centerbox><div  id = stim2></div></div>","32","32","750","","test","go","125","random","","",""
"","277","32","1187","0","test_block","poldrack-single-stim","140","289406","0.0-5.0-126.0","go-nogo","false","0","","true","<div class = centerbox><div  id = stim2></div></div>","32","32","750","","test","go","126","random","","",""
"","209","32","1082","0","test_block","poldrack-single-stim","141","290652","0.0-5.0-127.0","go-nogo","false","0","","true","<div class = centerbox><div  id = stim2></div></div>","32","32","750","","test","go","127","random","","",""
"","175","32","1034","0","test_block","poldrack-single-stim","142","291821","0.0-5.0-128.0","go-nogo","false","0","","true","<div class = centerbox><div  id = stim2></div></div>","32","32","750","","test","go","128","random","","",""
"","1","32","1418","0","test_block","poldrack-single-stim","143","293398","0.0-5.0-129.0","go-nogo","false","0","","true","<div class = centerbox><div  id = stim2></div></div>","32","32","750","","test","go","129","random","","",""
"","326","32","1117","0","test_block","poldrack-single-stim","144","294676","0.0-5.0-130.0","go-nogo","false","0","","true","<div class = centerbox><div  id = stim2></div></div>","32","32","750","","test","go","130","random","","",""
"","433","32","1033","0","test_block","poldrack-single-stim","145","295847","0.0-5.0-131.0","go-nogo","false","0","","true","<div class = centerbox><div  id = stim2></div></div>","32","32","750","","test","go","131","random","","",""
"","472","32","1464","0","test_block","poldrack-single-stim","146","297454","0.0-5.0-132.0","go-nogo","false","0","","true","<div class = centerbox><div  id = stim2></div></div>","32","32","750","","test","go","132","random","","",""
"","145","32","1233","0","test_block","poldrack-single-stim","147","298843","0.0-5.0-133.0","go-nogo","false","0","","true","<div class = centerbox><div  id = stim2></div></div>","32","32","750","","test","go","133","random","","",""
"","326","32","1067","0","test_block","poldrack-single-stim","148","300043","0.0-5.0-134.0","go-nogo","false","0","","true","<div class = centerbox><div  id = stim2></div></div>","32","32","750","","test","go","134","random","","",""
"","336","32","1106","0","test_block","poldrack-single-stim","149","301291","0.0-5.0-135.0","go-nogo","false","0","","true","<div class = centerbox><div  id = stim2></div></div>","32","32","750","","test","go","135","random","","",""
"","219","32","1274","0","test_block","poldrack-single-stim","150","302711","0.0-5.0-136.0","go-nogo","false","0","","true","<div class = centerbox><div  id = stim2></div></div>","32","32","750","","test","go","136","random","","",""
"","1","32","1441","0","test_block","poldrack-single-stim","151","304302","0.0-5.0-137.0","go-nogo","false","0","","true","<div class = centerbox><div  id = stim2></div></div>","32","32","750","","test","go","137","random","","",""
"","306","32","1151","0","test_block","poldrack-single-stim","152","305581","0.0-5.0-138.0","go-nogo","false","0","","true","<div class = centerbox><div  id = stim2></div></div>","32","32","750","","test","go","138","random","","",""
"","315","32","1119","0","test_block","poldrack-single-stim","153","306845","0.0-5.0-139.0","go-nogo","false","0","","true","<div class = centerbox><div  id = stim2></div></div>","32","32","750","","test","go","139","random","","",""
"","287","32","1407","0","test_block","poldrack-single-stim","154","308389","0.0-5.0-140.0","go-nogo","false","0","","true","<div class = centerbox><div  id = stim2></div></div>","32","32","750","","test","go","140","random","","",""
"","291","32","1054","0","test_block","poldrack-single-stim","155","309606","0.0-5.0-141.0","go-nogo","false","0","","true","<div class = centerbox><div  id = stim2></div></div>","32","32","750","","test","go","141","random","","",""
"","214","32","1333","0","test_block","poldrack-single-stim","156","311088","0.0-5.0-142.0","go-nogo","false","0","","true","<div class = centerbox><div  id = stim2></div></div>","32","32","750","","test","go","142","random","","",""
"","224","32","1428","0","test_block","poldrack-single-stim","157","312648","0.0-5.0-143.0","go-nogo","false","0","","true","<div class = centerbox><div  id = stim2></div></div>","32","32","750","","test","go","143","random","","",""
"","2","32","1170","0","test_block","poldrack-single-stim","158","313958","0.0-5.0-144.0","go-nogo","false","0","","true","<div class = centerbox><div  id = stim2></div></div>","32","32","750","","test","go","144","random","","",""
"","324","32","1062","0","test_block","poldrack-single-stim","159","315175","0.0-5.0-145.0","go-nogo","false","0","","true","<div class = centerbox><div  id = stim2></div></div>","32","32","750","","test","go","145","random","","",""
"","-1","-1","1330","0","test_block","poldrack-single-stim","160","316657","0.0-5.0-146.0","go-nogo","false","0","","true","<div class = centerbox><div  id = stim1></div></div>","-1","32","750","","test","nogo","146","random","","",""
"","366","32","1247","0","test_block","poldrack-single-stim","161","318045","0.0-5.0-147.0","go-nogo","false","0","","true","<div class = centerbox><div  id = stim2></div></div>","32","32","750","","test","go","147","random","","",""
"","269","32","1490","0","test_block","poldrack-single-stim","162","319684","0.0-5.0-148.0","go-nogo","false","0","","true","<div class = centerbox><div  id = stim2></div></div>","32","32","750","","test","go","148","random","","",""
"","322","32","1028","0","test_block","poldrack-single-stim","163","320870","0.0-5.0-149.0","go-nogo","false","0","","true","<div class = centerbox><div  id = stim2></div></div>","32","32","750","","test","go","149","random","","",""
"","342","32","1426","0","test_block","poldrack-single-stim","164","322445","0.0-5.0-150.0","go-nogo","false","0","","true","<div class = centerbox><div  id = stim2></div></div>","32","32","750","","test","go","150","random","","",""
"","275","32","1075","0","test_block","poldrack-single-stim","165","323677","0.0-5.0-151.0","go-nogo","false","0","","true","<div class = centerbox><div  id = stim2></div></div>","32","32","750","","test","go","151","random","","",""
"","445","32","1263","0","test_block","poldrack-single-stim","166","325083","0.0-5.0-152.0","go-nogo","false","0","","true","<div class = centerbox><div  id = stim2></div></div>","32","32","750","","test","go","152","random","","",""
"","385","32","1171","0","test_block","poldrack-single-stim","167","326408","0.0-5.0-153.0","go-nogo","false","0","","false","<div class = centerbox><div  id = stim1></div></div>","-1","32","750","","test","nogo","153","random","","",""
"","-1","-1","1189","0","test_block","poldrack-single-stim","168","327734","0.0-5.0-154.0","go-nogo","false","0","","true","<div class = centerbox><div  id = stim1></div></div>","-1","32","750","","test","nogo","154","random","","",""
"","-1","-1","1100","0","test_block","poldrack-single-stim","169","328981","0.0-5.0-155.0","go-nogo","false","0","","true","<div class = centerbox><div  id = stim1></div></div>","-1","32","750","","test","nogo","155","random","","",""
"","478","32","1493","0","test_block","poldrack-single-stim","170","330620","0.0-5.0-156.0","go-nogo","false","0","","true","<div class = centerbox><div  id = stim2></div></div>","32","32","750","","test","go","156","random","","",""
"","336","32","1430","0","test_block","poldrack-single-stim","171","332210","0.0-5.0-157.0","go-nogo","false","0","","true","<div class = centerbox><div  id = stim2></div></div>","32","32","750","","test","go","157","random","","",""
"","-1","-1","1392","0","test_block","poldrack-single-stim","172","333740","0.0-5.0-158.0","go-nogo","false","0","","false","<div class = centerbox><div  id = stim2></div></div>","32","32","750","","test","go","158","random","","",""
"","315","32","1255","0","test_block","poldrack-single-stim","173","335128","0.0-5.0-159.0","go-nogo","false","0","","true","<div class = centerbox><div  id = stim2></div></div>","32","32","750","","test","go","159","random","","",""
"","-1","-1","1481","0","test_block","poldrack-single-stim","174","336751","0.0-5.0-160.0","go-nogo","false","0","","true","<div class = centerbox><div  id = stim1></div></div>","-1","32","750","","test","nogo","160","random","","",""
"","341","32","1075","0","test_block","poldrack-single-stim","175","337967","0.0-5.0-161.0","go-nogo","false","0","","true","<div class = centerbox><div  id = stim2></div></div>","32","32","750","","test","go","161","random","","",""
"","297","32","1054","0","test_block","poldrack-single-stim","176","339168","0.0-5.0-162.0","go-nogo","false","0","","true","<div class = centerbox><div  id = stim2></div></div>","32","32","750","","test","go","162","random","","",""
"","318","32","1016","0","test_block","poldrack-single-stim","177","340323","0.0-5.0-163.0","go-nogo","false","0","","true","<div class = centerbox><div  id = stim2></div></div>","32","32","750","","test","go","163","random","","",""
"","275","32","1077","0","test_block","poldrack-single-stim","178","341539","0.0-5.0-164.0","go-nogo","false","0","","true","<div class = centerbox><div  id = stim2></div></div>","32","32","750","","test","go","164","random","","",""
"","328","32","1009","0","test_block","poldrack-single-stim","179","342694","0.0-5.0-165.0","go-nogo","false","0","","false","<div class = centerbox><div  id = stim1></div></div>","-1","32","750","","test","nogo","165","random","","",""
"","334","32","1451","0","test_block","poldrack-single-stim","180","344301","0.0-5.0-166.0","go-nogo","false","0","","true","<div class = centerbox><div  id = stim2></div></div>","32","32","750","","test","go","166","random","","",""
"","348","32","1429","0","test_block","poldrack-single-stim","181","345909","0.0-5.0-167.0","go-nogo","false","0","","true","<div class = centerbox><div  id = stim2></div></div>","32","32","750","","test","go","167","random","","",""
"","537","32","1108","0","test_block","poldrack-single-stim","182","347155","0.0-5.0-168.0","go-nogo","false","0","","true","<div class = centerbox><div  id = stim2></div></div>","32","32","750","","test","go","168","random","","",""
"","437","32","1301","0","test_block","poldrack-single-stim","183","348606","0.0-5.0-169.0","go-nogo","false","0","","true","<div class = centerbox><div  id = stim2></div></div>","32","32","750","","test","go","169","random","","",""
"","309","32","1010","0","test_block","poldrack-single-stim","184","349760","0.0-5.0-170.0","go-nogo","false","0","","true","<div class = centerbox><div  id = stim2></div></div>","32","32","750","","test","go","170","random","","",""
"","245","32","1469","0","test_block","poldrack-single-stim","185","351383","0.0-5.0-171.0","go-nogo","false","0","","true","<div class = centerbox><div  id = stim2></div></div>","32","32","750","","test","go","171","random","","",""
"","388","32","1111","0","test_block","poldrack-single-stim","186","352647","0.0-5.0-172.0","go-nogo","false","0","","true","<div class = centerbox><div  id = stim2></div></div>","32","32","750","","test","go","172","random","","",""
"","303","32","1429","0","test_block","poldrack-single-stim","187","354222","0.0-5.0-173.0","go-nogo","false","0","","true","<div class = centerbox><div  id = stim2></div></div>","32","32","750","","test","go","173","random","","",""
"","376","32","1048","0","test_block","poldrack-single-stim","188","355439","0.0-5.0-174.0","go-nogo","false","0","","true","<div class = centerbox><div  id = stim2></div></div>","32","32","750","","test","go","174","random","","",""
"","308","32","1069","0","test_block","poldrack-single-stim","189","356656","0.0-5.0-175.0","go-nogo","false","0","","true","<div class = centerbox><div  id = stim2></div></div>","32","32","750","","test","go","175","random","","",""
"","238","32","1020","0","test_block","poldrack-single-stim","190","357811","0.0-5.0-176.0","go-nogo","false","0","","true","<div class = centerbox><div  id = stim2></div></div>","32","32","750","","test","go","176","random","","",""
"","218","32","1150","0","test_block","poldrack-single-stim","191","359106","0.0-5.0-177.0","go-nogo","false","0","","true","<div class = centerbox><div  id = stim2></div></div>","32","32","750","","test","go","177","random","","",""
"","265","32","1188","0","test_block","poldrack-single-stim","192","360432","0.0-5.0-178.0","go-nogo","false","0","","true","<div class = centerbox><div  id = stim2></div></div>","32","32","750","","test","go","178","random","","",""
"","27","32","1333","0","test_block","poldrack-single-stim","193","361914","0.0-5.0-179.0","go-nogo","false","0","","true","<div class = centerbox><div  id = stim2></div></div>","32","32","750","","test","go","179","random","","",""
"","299","32","1361","0","test_block","poldrack-single-stim","194","363410","0.0-5.0-180.0","go-nogo","false","0","","true","<div class = centerbox><div  id = stim2></div></div>","32","32","750","","test","go","180","random","","",""
"","299","32","1482","0","test_block","poldrack-single-stim","195","365034","0.0-5.0-181.0","go-nogo","false","0","","true","<div class = centerbox><div  id = stim2></div></div>","32","32","750","","test","go","181","random","","",""
"","368","32","1000","0","test_block","poldrack-single-stim","196","366188","0.0-5.0-182.0","go-nogo","false","0","","true","<div class = centerbox><div  id = stim2></div></div>","32","32","750","","test","go","182","random","","",""
"","304","32","1067","0","test_block","poldrack-single-stim","197","367405","0.0-5.0-183.0","go-nogo","false","0","","true","<div class = centerbox><div  id = stim2></div></div>","32","32","750","","test","go","183","random","","",""
"","371","32","1122","0","test_block","poldrack-single-stim","198","368668","0.0-5.0-184.0","go-nogo","false","0","","true","<div class = centerbox><div  id = stim2></div></div>","32","32","750","","test","go","184","random","","",""
"","285","32","1394","0","test_block","poldrack-single-stim","199","370196","0.0-5.0-185.0","go-nogo","false","0","","true","<div class = centerbox><div  id = stim2></div></div>","32","32","750","","test","go","185","random","","",""
"","289","32","1189","0","test_block","poldrack-single-stim","200","371539","0.0-5.0-186.0","go-nogo","false","0","","true","<div class = centerbox><div  id = stim2></div></div>","32","32","750","","test","go","186","random","","",""
"","-1","-1","1149","0","test_block","poldrack-single-stim","201","372834","0.0-5.0-187.0","go-nogo","false","0","","true","<div class = centerbox><div  id = stim1></div></div>","-1","32","750","","test","nogo","187","random","","",""
"","307","32","1230","0","test_block","poldrack-single-stim","202","374206","0.0-5.0-188.0","go-nogo","false","0","","true","<div class = centerbox><div  id = stim2></div></div>","32","32","750","","test","go","188","random","","",""
"","341","32","1362","0","test_block","poldrack-single-stim","203","375719","0.0-5.0-189.0","go-nogo","false","0","","true","<div class = centerbox><div  id = stim2></div></div>","32","32","750","","test","go","189","random","","",""
"","296","32","1107","0","test_block","poldrack-single-stim","204","376967","0.0-5.0-190.0","go-nogo","false","0","","true","<div class = centerbox><div  id = stim2></div></div>","32","32","750","","test","go","190","random","","",""
"","278","32","1235","0","test_block","poldrack-single-stim","205","378340","0.0-5.0-191.0","go-nogo","false","0","","true","<div class = centerbox><div  id = stim2></div></div>","32","32","750","","test","go","191","random","","",""
"","293","32","1493","0","test_block","poldrack-single-stim","206","379978","0.0-5.0-192.0","go-nogo","false","0","","true","<div class = centerbox><div  id = stim2></div></div>","32","32","750","","test","go","192","random","","",""
"","306","32","1268","0","test_block","poldrack-single-stim","207","381382","0.0-5.0-193.0","go-nogo","false","0","","true","<div class = centerbox><div  id = stim2></div></div>","32","32","750","","test","go","193","random","","",""
"","255","32","1176","0","test_block","poldrack-single-stim","208","382693","0.0-5.0-194.0","go-nogo","false","0","","true","<div class = centerbox><div  id = stim2></div></div>","32","32","750","","test","go","194","random","","",""
"","289","32","1141","0","test_block","poldrack-single-stim","209","383987","0.0-5.0-195.0","go-nogo","false","0","","true","<div class = centerbox><div  id = stim2></div></div>","32","32","750","","test","go","195","random","","",""
"","299","32","1281","0","test_block","poldrack-single-stim","210","385407","0.0-5.0-196.0","go-nogo","false","0","","false","<div class = centerbox><div  id = stim1></div></div>","-1","32","750","","test","nogo","196","random","","",""
"","-1","-1","1039","0","test_block","poldrack-single-stim","211","386578","0.0-5.0-197.0","go-nogo","false","1","","false","<div class = centerbox><div  id = stim2></div></div>","32","32","750","","test","go","197","random","","",""
"","-1","-1","1238","0","test_block","poldrack-single-stim","212","387950","0.0-5.0-198.0","go-nogo","false","0","","true","<div class = centerbox><div  id = stim1></div></div>","-1","32","750","","test","nogo","198","random","","",""
"","-1","-1","1334","0","test_block","poldrack-single-stim","213","389464","0.0-5.0-199.0","go-nogo","false","0","","false","<div class = centerbox><div  id = stim2></div></div>","32","32","750","","test","go","199","random","","",""
"","241","32","1286","0","test_block","poldrack-single-stim","214","390883","0.0-5.0-200.0","go-nogo","false","0","","true","<div class = centerbox><div  id = stim2></div></div>","32","32","750","","test","go","200","random","","",""
"","263","32","1486","0","test_block","poldrack-single-stim","215","392536","0.0-5.0-201.0","go-nogo","false","0","","true","<div class = centerbox><div  id = stim2></div></div>","32","32","750","","test","go","201","random","","",""
"","-1","-1","1400","0","test_block","poldrack-single-stim","216","394290","0.0-5.0-202.0","go-nogo","false","1","","false","<div class = centerbox><div  id = stim2></div></div>","32","32","750","","test","go","202","random","","",""
"","-1","-1","1012","0","test_block","poldrack-single-stim","217","395504","0.0-5.0-203.0","go-nogo","false","0","","false","<div class = centerbox><div  id = stim2></div></div>","32","32","750","","test","go","203","random","","",""
"","-1","-1","1432","0","test_block","poldrack-single-stim","218","397094","0.0-5.0-204.0","go-nogo","false","0","","false","<div class = centerbox><div  id = stim2></div></div>","32","32","750","","test","go","204","random","","",""
"","-1","-1","1283","0","test_block","poldrack-single-stim","219","398529","0.0-5.0-205.0","go-nogo","false","0","","false","<div class = centerbox><div  id = stim2></div></div>","32","32","750","","test","go","205","random","","",""
"","-1","-1","1376","0","test_block","poldrack-single-stim","220","400167","0.0-5.0-206.0","go-nogo","false","0","","false","<div class = centerbox><div  id = stim2></div></div>","32","32","750","","test","go","206","random","","",""
"","-1","-1","1377","0","test_block","poldrack-single-stim","221","401730","0.0-5.0-207.0","go-nogo","false","0","","false","<div class = centerbox><div  id = stim2></div></div>","32","32","750","","test","go","207","random","","",""
"","-1","-1","1481","0","test_block","poldrack-single-stim","222","403522","0.0-5.0-208.0","go-nogo","false","0","","false","<div class = centerbox><div  id = stim2></div></div>","32","32","750","","test","go","208","random","","",""
"","-1","-1","1146","0","test_block","poldrack-single-stim","223","407944","0.0-5.0-209.0","go-nogo","false","0","","false","<div class = centerbox><div  id = stim2></div></div>","32","32","750","","test","go","209","random","","",""
"","-1","-1","1146","0","test_block","poldrack-single-stim","224","409299","0.0-5.0-210.0","go-nogo","false","0","","false","<div class = centerbox><div  id = stim2></div></div>","32","32","750","","test","go","210","random","","",""
"","-1","-1","1194","0","test_block","poldrack-single-stim","225","410644","0.0-5.0-211.0","go-nogo","false","1","","false","<div class = centerbox><div  id = stim2></div></div>","32","32","750","","test","go","211","random","","",""
"","385","32","1425","0","test_block","poldrack-single-stim","226","412254","0.0-5.0-212.0","go-nogo","false","0","","true","<div class = centerbox><div  id = stim2></div></div>","32","32","750","","test","go","212","random","","",""
"","329","32","1367","0","test_block","poldrack-single-stim","227","413795","0.0-5.0-213.0","go-nogo","false","0","","true","<div class = centerbox><div  id = stim2></div></div>","32","32","750","","test","go","213","random","","",""
"","290","32","1086","0","test_block","poldrack-single-stim","228","415013","0.0-5.0-214.0","go-nogo","false","0","","true","<div class = centerbox><div  id = stim2></div></div>","32","32","750","","test","go","214","random","","",""
"","454","32","1057","0","test_block","poldrack-single-stim","229","416213","0.0-5.0-215.0","go-nogo","false","0","","true","<div class = centerbox><div  id = stim2></div></div>","32","32","750","","test","go","215","random","","",""
"","428","32","1061","0","test_block","poldrack-single-stim","230","417398","0.0-5.0-216.0","go-nogo","false","0","","true","<div class = centerbox><div  id = stim2></div></div>","32","32","750","","test","go","216","random","","",""
"","309","32","1127","0","test_block","poldrack-single-stim","231","418678","0.0-5.0-217.0","go-nogo","false","0","","true","<div class = centerbox><div  id = stim2></div></div>","32","32","750","","test","go","217","random","","",""
"","282","32","1215","0","test_block","poldrack-single-stim","232","420034","0.0-5.0-218.0","go-nogo","false","0","","true","<div class = centerbox><div  id = stim2></div></div>","32","32","750","","test","go","218","random","","",""
"","276","32","1114","0","test_block","poldrack-single-stim","233","421283","0.0-5.0-219.0","go-nogo","false","0","","true","<div class = centerbox><div  id = stim2></div></div>","32","32","750","","test","go","219","random","","",""
"","303","32","1204","0","test_block","poldrack-single-stim","234","422626","0.0-5.0-220.0","go-nogo","false","0","","true","<div class = centerbox><div  id = stim2></div></div>","32","32","750","","test","go","220","random","","",""
"","279","32","1111","0","test_block","poldrack-single-stim","235","423903","0.0-5.0-221.0","go-nogo","false","0","","true","<div class = centerbox><div  id = stim2></div></div>","32","32","750","","test","go","221","random","","",""
"","284","32","1099","0","test_block","poldrack-single-stim","236","425137","0.0-5.0-222.0","go-nogo","false","0","","true","<div class = centerbox><div  id = stim2></div></div>","32","32","750","","test","go","222","random","","",""
"","254","32","1382","0","test_block","poldrack-single-stim","237","426654","0.0-5.0-223.0","go-nogo","false","0","","false","<div class = centerbox><div  id = stim1></div></div>","-1","32","750","","test","nogo","223","random","","",""
"","295","32","1207","0","test_block","poldrack-single-stim","238","428024","0.0-5.0-224.0","go-nogo","false","0","","true","<div class = centerbox><div  id = stim2></div></div>","32","32","750","","test","go","224","random","","",""
"","287","32","1269","0","test_block","poldrack-single-stim","239","429442","0.0-5.0-225.0","go-nogo","false","0","","true","<div class = centerbox><div  id = stim2></div></div>","32","32","750","","test","go","225","random","","",""
"","358","32","1219","0","test_block","poldrack-single-stim","240","430799","0.0-5.0-226.0","go-nogo","false","0","","true","<div class = centerbox><div  id = stim2></div></div>","32","32","750","","test","go","226","random","","",""
"","246","32","1318","0","test_block","poldrack-single-stim","241","432266","0.0-5.0-227.0","go-nogo","false","0","","false","<div class = centerbox><div  id = stim1></div></div>","-1","32","750","","test","nogo","227","random","","",""
"","311","32","1131","0","test_block","poldrack-single-stim","242","433529","0.0-5.0-228.0","go-nogo","false","0","","true","<div class = centerbox><div  id = stim2></div></div>","32","32","750","","test","go","228","random","","",""
"","332","32","1439","0","test_block","poldrack-single-stim","243","435104","0.0-5.0-229.0","go-nogo","false","0","","true","<div class = centerbox><div  id = stim2></div></div>","32","32","750","","test","go","229","random","","",""
"","310","32","1011","0","test_block","poldrack-single-stim","244","436259","0.0-5.0-230.0","go-nogo","false","0","","true","<div class = centerbox><div  id = stim2></div></div>","32","32","750","","test","go","230","random","","",""
"","347","32","1303","0","test_block","poldrack-single-stim","245","437711","0.0-5.0-231.0","go-nogo","false","0","","true","<div class = centerbox><div  id = stim2></div></div>","32","32","750","","test","go","231","random","","",""
"","309","32","1062","0","test_block","poldrack-single-stim","246","438912","0.0-5.0-232.0","go-nogo","false","0","","true","<div class = centerbox><div  id = stim2></div></div>","32","32","750","","test","go","232","random","","",""
"","311","32","1366","0","test_block","poldrack-single-stim","247","440424","0.0-5.0-233.0","go-nogo","false","0","","true","<div class = centerbox><div  id = stim2></div></div>","32","32","750","","test","go","233","random","","",""
"","327","32","1262","0","test_block","poldrack-single-stim","248","441828","0.0-5.0-234.0","go-nogo","false","0","","true","<div class = centerbox><div  id = stim2></div></div>","32","32","750","","test","go","234","random","","",""
"","376","32","1455","0","test_block","poldrack-single-stim","249","443419","0.0-5.0-235.0","go-nogo","false","0","","true","<div class = centerbox><div  id = stim2></div></div>","32","32","750","","test","go","235","random","","",""
"","299","32","1412","0","test_block","poldrack-single-stim","250","444995","0.0-5.0-236.0","go-nogo","false","0","","true","<div class = centerbox><div  id = stim2></div></div>","32","32","750","","test","go","236","random","","",""
"","512","32","1055","0","test_block","poldrack-single-stim","251","446196","0.0-5.0-237.0","go-nogo","false","0","","true","<div class = centerbox><div  id = stim2></div></div>","32","32","750","","test","go","237","random","","",""
"","523","32","1332","0","test_block","poldrack-single-stim","252","447663","0.0-5.0-238.0","go-nogo","false","0","","true","<div class = centerbox><div  id = stim2></div></div>","32","32","750","","test","go","238","random","","",""
"","326","32","1071","0","test_block","poldrack-single-stim","253","448879","0.0-5.0-239.0","go-nogo","false","0","","true","<div class = centerbox><div  id = stim2></div></div>","32","32","750","","test","go","239","random","","",""
"","303","32","1147","0","test_block","poldrack-single-stim","254","450175","0.0-5.0-240.0","go-nogo","false","0","","true","<div class = centerbox><div  id = stim2></div></div>","32","32","750","","test","go","240","random","","",""
"","340","32","1016","0","test_block","poldrack-single-stim","255","451328","0.0-5.0-241.0","go-nogo","false","0","","true","<div class = centerbox><div  id = stim2></div></div>","32","32","750","","test","go","241","random","","",""
"","283","32","1337","0","test_block","poldrack-single-stim","256","452811","0.0-5.0-242.0","go-nogo","false","0","","false","<div class = centerbox><div  id = stim1></div></div>","-1","32","750","","test","nogo","242","random","","",""
"","304","32","1161","0","test_block","poldrack-single-stim","257","454105","0.0-5.0-243.0","go-nogo","false","0","","true","<div class = centerbox><div  id = stim2></div></div>","32","32","750","","test","go","243","random","","",""
"","329","32","1253","0","test_block","poldrack-single-stim","258","455494","0.0-5.0-244.0","go-nogo","false","0","","true","<div class = centerbox><div  id = stim2></div></div>","32","32","750","","test","go","244","random","","",""
"","369","32","1309","0","test_block","poldrack-single-stim","259","456945","0.0-5.0-245.0","go-nogo","false","0","","true","<div class = centerbox><div  id = stim2></div></div>","32","32","750","","test","go","245","random","","",""
"","316","32","1065","0","test_block","poldrack-single-stim","260","458146","0.0-5.0-246.0","go-nogo","false","0","","true","<div class = centerbox><div  id = stim2></div></div>","32","32","750","","test","go","246","random","","",""
"","376","32","1352","0","test_block","poldrack-single-stim","261","459645","0.0-5.0-247.0","go-nogo","false","0","","true","<div class = centerbox><div  id = stim2></div></div>","32","32","750","","test","go","247","random","","",""
"","306","32","1254","0","test_block","poldrack-single-stim","262","461064","0.0-5.0-248.0","go-nogo","false","0","","true","<div class = centerbox><div  id = stim2></div></div>","32","32","750","","test","go","248","random","","",""
"","-1","-1","1313","0","test_block","poldrack-single-stim","263","462546","0.0-5.0-249.0","go-nogo","false","0","","true","<div class = centerbox><div  id = stim1></div></div>","-1","32","750","","test","nogo","249","random","","",""
"","339","32","1292","0","test_block","poldrack-single-stim","264","463997","0.0-5.0-250.0","go-nogo","false","0","","true","<div class = centerbox><div  id = stim2></div></div>","32","32","750","","test","go","250","random","","",""
"","330","32","1348","0","test_block","poldrack-single-stim","265","465494","0.0-5.0-251.0","go-nogo","false","0","","true","<div class = centerbox><div  id = stim2></div></div>","32","32","750","","test","go","251","random","","",""
"","451","32","1491","0","test_block","poldrack-single-stim","266","467116","0.0-5.0-252.0","go-nogo","false","0","","true","<div class = centerbox><div  id = stim2></div></div>","32","32","750","","test","go","252","random","","",""
"","381","32","1301","0","test_block","poldrack-single-stim","267","468567","0.0-5.0-253.0","go-nogo","false","0","","true","<div class = centerbox><div  id = stim2></div></div>","32","32","750","","test","go","253","random","","",""
"","-1","-1","1438","0","test_block","poldrack-single-stim","268","470144","0.0-5.0-254.0","go-nogo","false","0","","true","<div class = centerbox><div  id = stim1></div></div>","-1","32","750","","test","nogo","254","random","","",""
"","455","32","1125","0","test_block","poldrack-single-stim","269","471422","0.0-5.0-255.0","go-nogo","false","0","","true","<div class = centerbox><div  id = stim2></div></div>","32","32","750","","test","go","255","random","","",""
"","771","32","1220","0","test_block","poldrack-single-stim","270","472794","0.0-5.0-256.0","go-nogo","false","0","","true","<div class = centerbox><div  id = stim2></div></div>","32","32","750","","test","go","256","random","","",""
"","414","32","1279","0","test_block","poldrack-single-stim","271","474214","0.0-5.0-257.0","go-nogo","false","0","","true","<div class = centerbox><div  id = stim2></div></div>","32","32","750","","test","go","257","random","","",""
"","317","32","1000","0","test_block","poldrack-single-stim","272","475353","0.0-5.0-258.0","go-nogo","false","0","","true","<div class = centerbox><div  id = stim2></div></div>","32","32","750","","test","go","258","random","","",""
"","596","32","1124","0","test_block","poldrack-single-stim","273","476617","0.0-5.0-259.0","go-nogo","false","0","","true","<div class = centerbox><div  id = stim2></div></div>","32","32","750","","test","go","259","random","","",""
"","982","32","1121","0","test_block","poldrack-single-stim","274","477881","0.0-5.0-260.0","go-nogo","false","0","","true","<div class = centerbox><div  id = stim2></div></div>","32","32","750","","test","go","260","random","","",""
"","-1","-1","1479","0","test_block","poldrack-single-stim","275","479503","0.0-5.0-261.0","go-nogo","false","0","","false","<div class = centerbox><div  id = stim2></div></div>","32","32","750","","test","go","261","random","","",""
"","336","32","1160","0","test_block","poldrack-single-stim","276","480813","0.0-5.0-262.0","go-nogo","false","0","","true","<div class = centerbox><div  id = stim2></div></div>","32","32","750","","test","go","262","random","","",""
"","621","32","1368","0","test_block","poldrack-single-stim","277","482327","0.0-5.0-263.0","go-nogo","false","0","","true","<div class = centerbox><div  id = stim2></div></div>","32","32","750","","test","go","263","random","","",""
"","-1","-1","1088","0","test_block","poldrack-single-stim","278","483560","0.0-5.0-264.0","go-nogo","false","0","","true","<div class = centerbox><div  id = stim1></div></div>","-1","32","750","","test","nogo","264","random","","",""
"","-1","-1","1318","0","test_block","poldrack-single-stim","279","485025","0.0-5.0-265.0","go-nogo","false","0","","true","<div class = centerbox><div  id = stim1></div></div>","-1","32","750","","test","nogo","265","random","","",""
"","561","32","1424","0","test_block","poldrack-single-stim","280","486585","0.0-5.0-266.0","go-nogo","false","0","","true","<div class = centerbox><div  id = stim2></div></div>","32","32","750","","test","go","266","random","","",""
"","991","32","1401","0","test_block","poldrack-single-stim","281","488130","0.0-5.0-267.0","go-nogo","false","0","","true","<div class = centerbox><div  id = stim2></div></div>","32","32","750","","test","go","267","random","","",""
"","332","32","1429","0","test_block","poldrack-single-stim","282","489705","0.0-5.0-268.0","go-nogo","false","0","","true","<div class = centerbox><div  id = stim2></div></div>","32","32","750","","test","go","268","random","","",""
"","326","32","1071","0","test_block","poldrack-single-stim","283","490923","0.0-5.0-269.0","go-nogo","false","0","","true","<div class = centerbox><div  id = stim2></div></div>","32","32","750","","test","go","269","random","","",""
"","670","32","1292","0","test_block","poldrack-single-stim","284","492357","0.0-5.0-270.0","go-nogo","false","0","","true","<div class = centerbox><div  id = stim2></div></div>","32","32","750","","test","go","270","random","","",""
"","396","32","1090","0","test_block","poldrack-single-stim","285","493590","0.0-5.0-271.0","go-nogo","false","0","","true","<div class = centerbox><div  id = stim2></div></div>","32","32","750","","test","go","271","random","","",""
"","361","32","1363","0","test_block","poldrack-single-stim","286","495103","0.0-5.0-272.0","go-nogo","false","0","","true","<div class = centerbox><div  id = stim2></div></div>","32","32","750","","test","go","272","random","","",""
"","492","32","1011","0","test_block","poldrack-single-stim","287","496257","0.0-5.0-273.0","go-nogo","false","0","","true","<div class = centerbox><div  id = stim2></div></div>","32","32","750","","test","go","273","random","","",""
"","378","32","1453","0","test_block","poldrack-single-stim","288","497849","0.0-5.0-274.0","go-nogo","false","0","","true","<div class = centerbox><div  id = stim2></div></div>","32","32","750","","test","go","274","random","","",""
"","315","32","1205","0","test_block","poldrack-single-stim","289","499221","0.0-5.0-275.0","go-nogo","false","0","","true","<div class = centerbox><div  id = stim2></div></div>","32","32","750","","test","go","275","random","","",""
"","490","32","1328","0","test_block","poldrack-single-stim","290","500704","0.0-5.0-276.0","go-nogo","false","0","","true","<div class = centerbox><div  id = stim2></div></div>","32","32","750","","test","go","276","random","","",""
"","361","32","1082","0","test_block","poldrack-single-stim","291","501936","0.0-5.0-277.0","go-nogo","false","0","","true","<div class = centerbox><div  id = stim2></div></div>","32","32","750","","test","go","277","random","","",""
"","274","32","1177","0","test_block","poldrack-single-stim","292","503262","0.0-5.0-278.0","go-nogo","false","0","","true","<div class = centerbox><div  id = stim2></div></div>","32","32","750","","test","go","278","random","","",""
"","308","32","1145","0","test_block","poldrack-single-stim","293","504558","0.0-5.0-279.0","go-nogo","false","0","","true","<div class = centerbox><div  id = stim2></div></div>","32","32","750","","test","go","279","random","","",""
"","285","32","1068","0","test_block","poldrack-single-stim","294","505773","0.0-5.0-280.0","go-nogo","false","0","","true","<div class = centerbox><div  id = stim2></div></div>","32","32","750","","test","go","280","random","","",""
"","280","32","1474","0","test_block","poldrack-single-stim","295","507380","0.0-5.0-281.0","go-nogo","false","0","","true","<div class = centerbox><div  id = stim2></div></div>","32","32","750","","test","go","281","random","","",""
"","324","32","1132","0","test_block","poldrack-single-stim","296","508691","0.0-5.0-282.0","go-nogo","false","0","","true","<div class = centerbox><div  id = stim2></div></div>","32","32","750","","test","go","282","random","","",""
"","324","32","1105","0","test_block","poldrack-single-stim","297","509939","0.0-5.0-283.0","go-nogo","false","0","","true","<div class = centerbox><div  id = stim2></div></div>","32","32","750","","test","go","283","random","","",""
"","375","32","1396","0","test_block","poldrack-single-stim","298","511483","0.0-5.0-284.0","go-nogo","false","0","","true","<div class = centerbox><div  id = stim2></div></div>","32","32","750","","test","go","284","random","","",""
"","270","32","1099","0","test_block","poldrack-single-stim","299","512731","0.0-5.0-285.0","go-nogo","false","0","","true","<div class = centerbox><div  id = stim2></div></div>","32","32","750","","test","go","285","random","","",""
"","324","32","1334","0","test_block","poldrack-single-stim","300","514214","0.0-5.0-286.0","go-nogo","false","0","","true","<div class = centerbox><div  id = stim2></div></div>","32","32","750","","test","go","286","random","","",""
"","293","32","1288","0","test_block","poldrack-single-stim","301","515664","0.0-5.0-287.0","go-nogo","false","0","","true","<div class = centerbox><div  id = stim2></div></div>","32","32","750","","test","go","287","random","","",""
"","289","32","1026","0","test_block","poldrack-single-stim","302","516834","0.0-5.0-288.0","go-nogo","false","0","","true","<div class = centerbox><div  id = stim2></div></div>","32","32","750","","test","go","288","random","","",""
"","305","32","1342","0","test_block","poldrack-single-stim","303","518316","0.0-5.0-289.0","go-nogo","false","0","","true","<div class = centerbox><div  id = stim2></div></div>","32","32","750","","test","go","289","random","","",""
"","0","32","1438","0","test_block","poldrack-single-stim","304","519908","0.0-5.0-290.0","go-nogo","false","0","","true","<div class = centerbox><div  id = stim2></div></div>","32","32","750","","test","go","290","random","","",""
"","-1","-1","1073","0","test_block","poldrack-single-stim","305","521140","0.0-5.0-291.0","go-nogo","false","0","","true","<div class = centerbox><div  id = stim1></div></div>","-1","32","750","","test","nogo","291","random","","",""
"","960","32","1346","0","test_block","poldrack-single-stim","306","522622","0.0-5.0-292.0","go-nogo","false","0","","true","<div class = centerbox><div  id = stim2></div></div>","32","32","750","","test","go","292","random","","",""
"","288","32","1264","0","test_block","poldrack-single-stim","307","524026","0.0-5.0-293.0","go-nogo","false","0","","true","<div class = centerbox><div  id = stim2></div></div>","32","32","750","","test","go","293","random","","",""
"","289","32","1019","0","test_block","poldrack-single-stim","308","525180","0.0-5.0-294.0","go-nogo","false","0","","true","<div class = centerbox><div  id = stim2></div></div>","32","32","750","","test","go","294","random","","",""
"","349","32","1448","0","test_block","poldrack-single-stim","309","526803","0.0-5.0-295.0","go-nogo","false","0","","true","<div class = centerbox><div  id = stim2></div></div>","32","32","750","","test","go","295","random","","",""
"","268","32","1455","0","test_block","poldrack-single-stim","310","528440","0.0-5.0-296.0","go-nogo","false","0","","true","<div class = centerbox><div  id = stim2></div></div>","32","32","750","","test","go","296","random","","",""
"","287","32","1188","0","test_block","poldrack-single-stim","311","529798","0.0-5.0-297.0","go-nogo","false","0","","true","<div class = centerbox><div  id = stim2></div></div>","32","32","750","","test","go","297","random","","",""
"","300","32","1241","0","test_block","poldrack-single-stim","312","531186","0.0-5.0-298.0","go-nogo","false","0","","true","<div class = centerbox><div  id = stim2></div></div>","32","32","750","","test","go","298","random","","",""
"","264","32","1376","0","test_block","poldrack-single-stim","313","532699","0.0-5.0-299.0","go-nogo","false","0","","true","<div class = centerbox><div  id = stim2></div></div>","32","32","750","","test","go","299","random","","",""
"","513","32","1035","0","test_block","poldrack-single-stim","314","533885","0.0-5.0-300.0","go-nogo","false","0","","true","<div class = centerbox><div  id = stim2></div></div>","32","32","750","","test","go","300","random","","",""
"","302","32","1064","0","test_block","poldrack-single-stim","315","535086","0.0-5.0-301.0","go-nogo","false","0","","true","<div class = centerbox><div  id = stim2></div></div>","32","32","750","","test","go","301","random","","",""
"","238","32","1492","0","test_block","poldrack-single-stim","316","536724","0.0-5.0-302.0","go-nogo","false","0","","true","<div class = centerbox><div  id = stim2></div></div>","32","32","750","","test","go","302","random","","",""
"","238","32","1240","0","test_block","poldrack-single-stim","317","538096","0.0-5.0-303.0","go-nogo","false","0","","false","<div class = centerbox><div  id = stim1></div></div>","-1","32","750","","test","nogo","303","random","","",""
"","281","32","1156","0","test_block","poldrack-single-stim","318","539392","0.0-5.0-304.0","go-nogo","false","0","","true","<div class = centerbox><div  id = stim2></div></div>","32","32","750","","test","go","304","random","","",""
"","349","32","1335","0","test_block","poldrack-single-stim","319","540874","0.0-5.0-305.0","go-nogo","false","0","","true","<div class = centerbox><div  id = stim2></div></div>","32","32","750","","test","go","305","random","","",""
"","267","32","1221","0","test_block","poldrack-single-stim","320","542246","0.0-5.0-306.0","go-nogo","false","0","","false","<div class = centerbox><div  id = stim1></div></div>","-1","32","750","","test","nogo","306","random","","",""
"","265","32","1231","0","test_block","poldrack-single-stim","321","543635","0.0-5.0-307.0","go-nogo","false","0","","true","<div class = centerbox><div  id = stim2></div></div>","32","32","750","","test","go","307","random","","",""
"","308","32","1295","0","test_block","poldrack-single-stim","322","545101","0.0-5.0-308.0","go-nogo","false","0","","true","<div class = centerbox><div  id = stim2></div></div>","32","32","750","","test","go","308","random","","",""
"","270","32","1445","0","test_block","poldrack-single-stim","323","546693","0.0-5.0-309.0","go-nogo","false","0","","true","<div class = centerbox><div  id = stim2></div></div>","32","32","750","","test","go","309","random","","",""
"","305","32","1087","0","test_block","poldrack-single-stim","324","547925","0.0-5.0-310.0","go-nogo","false","0","","true","<div class = centerbox><div  id = stim2></div></div>","32","32","750","","test","go","310","random","","",""
"","522","32","1214","0","test_block","poldrack-single-stim","325","549283","0.0-5.0-311.0","go-nogo","false","0","","true","<div class = centerbox><div  id = stim2></div></div>","32","32","750","","test","go","311","random","","",""
"","381","32","1293","0","test_block","poldrack-single-stim","326","550717","0.0-5.0-312.0","go-nogo","false","0","","true","<div class = centerbox><div  id = stim2></div></div>","32","32","750","","test","go","312","random","","",""
"","289","32","1398","0","test_block","poldrack-single-stim","327","552262","0.0-5.0-313.0","go-nogo","false","0","","true","<div class = centerbox><div  id = stim2></div></div>","32","32","750","","test","go","313","random","","",""
"","294","32","1227","0","test_block","poldrack-single-stim","328","553651","0.0-5.0-314.0","go-nogo","false","0","","true","<div class = centerbox><div  id = stim2></div></div>","32","32","750","","test","go","314","random","","",""
"","315","32","1431","0","test_block","poldrack-single-stim","329","555226","0.0-5.0-315.0","go-nogo","false","0","","true","<div class = centerbox><div  id = stim2></div></div>","32","32","750","","test","go","315","random","","",""
"","380","32","1149","0","test_block","poldrack-single-stim","330","556537","0.0-5.0-316.0","go-nogo","false","0","","true","<div class = centerbox><div  id = stim2></div></div>","32","32","750","","test","go","316","random","","",""
"","440","32","1331","0","test_block","poldrack-single-stim","331","558003","0.0-5.0-317.0","go-nogo","false","0","","true","<div class = centerbox><div  id = stim2></div></div>","32","32","750","","test","go","317","random","","",""
"","310","32","1331","0","test_block","poldrack-single-stim","332","559469","0.0-5.0-318.0","go-nogo","false","0","","true","<div class = centerbox><div  id = stim2></div></div>","32","32","750","","test","go","318","random","","",""
"","331","32","1036","0","test_block","poldrack-single-stim","333","560655","0.0-5.0-319.0","go-nogo","false","0","","true","<div class = centerbox><div  id = stim2></div></div>","32","32","750","","test","go","319","random","","",""
"","365","32","1082","0","test_block","poldrack-single-stim","334","561887","0.0-5.0-320.0","go-nogo","false","0","","true","<div class = centerbox><div  id = stim2></div></div>","32","32","750","","test","go","320","random","","",""
"","317","32","1474","0","test_block","poldrack-single-stim","335","563493","0.0-5.0-321.0","go-nogo","false","0","","true","<div class = centerbox><div  id = stim2></div></div>","32","32","750","","test","go","321","random","","",""
"","366","32","1459","0","test_block","poldrack-single-stim","336","565100","0.0-5.0-322.0","go-nogo","false","0","","true","<div class = centerbox><div  id = stim2></div></div>","32","32","750","","test","go","322","random","","",""
"","307","32","1223","0","test_block","poldrack-single-stim","337","566474","0.0-5.0-323.0","go-nogo","false","0","","true","<div class = centerbox><div  id = stim2></div></div>","32","32","750","","test","go","323","random","","",""
"","-1","-1","1105","0","test_block","poldrack-single-stim","338","567722","0.0-5.0-324.0","go-nogo","false","0","","true","<div class = centerbox><div  id = stim1></div></div>","-1","32","750","","test","nogo","324","random","","",""
"","392","32","1283","0","test_block","poldrack-single-stim","339","569141","0.0-5.0-325.0","go-nogo","false","0","","true","<div class = centerbox><div  id = stim2></div></div>","32","32","750","","test","go","325","random","","",""
"","350","32","1048","0","test_block","poldrack-single-stim","340","570343","0.0-5.0-326.0","go-nogo","false","0","","true","<div class = centerbox><div  id = stim2></div></div>","32","32","750","","test","go","326","random","","",""
"","278","32","1081","0","test_block","poldrack-single-stim","341","571575","0.0-5.0-327.0","go-nogo","false","0","","true","<div class = centerbox><div  id = stim2></div></div>","32","32","750","","test","go","327","random","","",""
"","-1","-1","1336","0","test_block","poldrack-single-stim","342","573057","0.0-5.0-328.0","go-nogo","false","0","","true","<div class = centerbox><div  id = stim1></div></div>","-1","32","750","","test","nogo","328","random","","",""
"","298","32","1331","0","test_block","poldrack-single-stim","343","574539","0.0-5.0-329.0","go-nogo","false","0","","true","<div class = centerbox><div  id = stim2></div></div>","32","32","750","","test","go","329","random","","",""
"","346","32","1417","0","test_block","poldrack-single-stim","344","576099","0.0-5.0-330.0","go-nogo","false","0","","true","<div class = centerbox><div  id = stim2></div></div>","32","32","750","","test","go","330","random","","",""
"","314","32","1354","0","test_block","poldrack-single-stim","345","577613","0.0-5.0-331.0","go-nogo","false","0","","true","<div class = centerbox><div  id = stim2></div></div>","32","32","750","","test","go","331","random","","",""
"","336","32","1084","0","test_block","poldrack-single-stim","346","578860","0.0-5.0-332.0","go-nogo","false","0","","true","<div class = centerbox><div  id = stim2></div></div>","32","32","750","","test","go","332","random","","",""
"","433","32","1155","0","test_block","poldrack-single-stim","347","580171","0.0-5.0-333.0","go-nogo","false","0","","true","<div class = centerbox><div  id = stim2></div></div>","32","32","750","","test","go","333","random","","",""
"","288","32","1060","0","test_block","poldrack-single-stim","348","581388","0.0-5.0-334.0","go-nogo","false","0","","true","<div class = centerbox><div  id = stim2></div></div>","32","32","750","","test","go","334","random","","",""
"","303","32","1079","0","test_block","poldrack-single-stim","349","582620","0.0-5.0-335.0","go-nogo","false","0","","true","<div class = centerbox><div  id = stim2></div></div>","32","32","750","","test","go","335","random","","",""
"","313","32","1155","0","test_block","poldrack-single-stim","350","583914","0.0-5.0-336.0","go-nogo","false","0","","true","<div class = centerbox><div  id = stim2></div></div>","32","32","750","","test","go","336","random","","",""
"","286","32","1339","0","test_block","poldrack-single-stim","351","585400","0.0-5.0-337.0","go-nogo","false","0","","true","<div class = centerbox><div  id = stim2></div></div>","32","32","750","","test","go","337","random","","",""
"","334","32","1038","0","test_block","poldrack-single-stim","352","586597","0.0-5.0-338.0","go-nogo","false","0","","true","<div class = centerbox><div  id = stim2></div></div>","32","32","750","","test","go","338","random","","",""
"","267","32","1307","0","test_block","poldrack-single-stim","353","588049","0.0-5.0-339.0","go-nogo","false","0","","true","<div class = centerbox><div  id = stim2></div></div>","32","32","750","","test","go","339","random","","",""
"","288","32","1340","0","test_block","poldrack-single-stim","354","589530","0.0-5.0-340.0","go-nogo","false","0","","true","<div class = centerbox><div  id = stim2></div></div>","32","32","750","","test","go","340","random","","",""
"","309","32","1017","0","test_block","poldrack-single-stim","355","590701","0.0-5.0-341.0","go-nogo","false","0","","true","<div class = centerbox><div  id = stim2></div></div>","32","32","750","","test","go","341","random","","",""
"","398","32","1084","0","test_block","poldrack-single-stim","356","591933","0.0-5.0-342.0","go-nogo","false","0","","true","<div class = centerbox><div  id = stim2></div></div>","32","32","750","","test","go","342","random","","",""
"","289","32","1280","0","test_block","poldrack-single-stim","357","593368","0.0-5.0-343.0","go-nogo","false","0","","true","<div class = centerbox><div  id = stim2></div></div>","32","32","750","","test","go","343","random","","",""
"","271","32","1107","0","test_block","poldrack-single-stim","358","594617","0.0-5.0-344.0","go-nogo","false","0","","true","<div class = centerbox><div  id = stim2></div></div>","32","32","750","","test","go","344","random","","",""
"","243","32","1142","0","test_block","poldrack-single-stim","359","595896","0.0-5.0-345.0","go-nogo","false","0","","true","<div class = centerbox><div  id = stim2></div></div>","32","32","750","","test","go","345","random","","",""
"","264","32","1192","0","test_block","poldrack-single-stim","360","597253","0.0-5.0-346.0","go-nogo","false","0","","true","<div class = centerbox><div  id = stim2></div></div>","32","32","750","","test","go","346","random","","",""
"","4","32","1267","0","test_block","poldrack-single-stim","361","598673","0.0-5.0-347.0","go-nogo","false","0","","true","<div class = centerbox><div  id = stim2></div></div>","32","32","750","","test","go","347","random","","",""
"","597","32","1457","0","test_block","poldrack-single-stim","362","600311","0.0-5.0-348.0","go-nogo","false","0","","false","<div class = centerbox><div  id = stim1></div></div>","-1","32","750","","test","nogo","348","random","","",""
"","-1","-1","1323","0","test_block","poldrack-single-stim","363","601778","0.0-5.0-349.0","go-nogo","false","1","","true","<div class = centerbox><div  id = stim1></div></div>","-1","32","750","","test","nogo","349","random","","",""
"","52418","","","","post task questions","survey-text","364","654360","0.0-7.0","go-nogo","false","0","","","","","","","","","","","","{""Q0"":""i was asked to click anytime blue appears and not to click when yellow does"",""Q1"":""""}","",""
"<div class = centerbox><p class = center-block-text>Thanks for completing this task!</p><p class = center-block-text>Insert the following code to collect your payment at Amazon Mechanical Turk:</p><p class = center-block-text>117427317</p><p class = center-block-text>Press <strong>enter</strong> to continue.</p></div>","-1","-1","180000","0","end","poldrack-text","365","835388","0.0-8.0","go-nogo","false","2","","","","","","","","","","","","","117427317","true"
