"text","rt","key_press","block_duration","timing_post_trial","trial_id","trial_type","trial_index","time_elapsed","internal_node_id","exp_id","full_screen","focus_shifts","view_history","correct","stimulus","correct_response","possible_responses","stim_duration","feedback_duration","exp_stage","condition","trial_num","mode","responses","payment_id","credit_var"
"<div class = centerbox><p class = center-block-text>Welcome to the experiment. This task will take around 10 minutes. Press <strong>enter</strong> to begin.</p></div>","5763","13","5763","0","instruction","poldrack-text","0","5765","0.0-0.0-0.0","go-nogo","true","0","","","","","","","","","","","","","",""
"","11802","","","","instruction","poldrack-instructions","1","17567","0.0-0.0-1.0","go-nogo","true","0","[{""page_index"":0,""viewing_time"":11801}]","","","","","","","","","","","","",""
"","512","32","1330","250","practice","poldrack-categorize","2","20907","0.0-1.0-0.0","go-nogo","true","0","","true","<div class = centerbox><div  id = stim1></div></div>","32","32","750","1000","practice","go","0","random","","",""
"","417","32","1210","250","practice","poldrack-categorize","3","23376","0.0-1.0-1.0","go-nogo","true","0","","true","<div class = centerbox><div  id = stim1></div></div>","32","32","750","1000","practice","go","1","random","","",""
"","-1","-1","1420","250","practice","poldrack-categorize","4","26055","0.0-1.0-2.0","go-nogo","true","0","","true","<div class = centerbox><div id = stim2></div></div>","-1","32","750","1000","practice","nogo","2","random","","",""
"","-1","-1","1103","250","practice","poldrack-categorize","5","28420","0.0-1.0-3.0","go-nogo","true","0","","true","<div class = centerbox><div id = stim2></div></div>","-1","32","750","1000","practice","nogo","3","random","","",""
"","341","32","1479","250","practice","poldrack-categorize","6","31154","0.0-1.0-4.0","go-nogo","true","0","","true","<div class = centerbox><div  id = stim1></div></div>","32","32","750","1000","practice","go","4","random","","",""
"","-1","-1","1022","250","practice","poldrack-categorize","7","33432","0.0-1.0-5.0","go-nogo","true","0","","true","<div class = centerbox><div id = stim2></div></div>","-1","32","750","1000","practice","nogo","5","random","","",""
"","336","32","1424","250","practice","poldrack-categorize","8","36116","0.0-1.0-6.0","go-nogo","true","0","","true","<div class = centerbox><div  id = stim1></div></div>","32","32","750","1000","practice","go","6","random","","",""
"","-1","-1","1253","250","practice","poldrack-categorize","9","38630","0.0-1.0-7.0","go-nogo","true","0","","true","<div class = centerbox><div id = stim2></div></div>","-1","32","750","1000","practice","nogo","7","random","","",""
"","319","32","1357","250","practice","poldrack-categorize","10","41249","0.0-1.0-8.0","go-nogo","true","0","","true","<div class = centerbox><div  id = stim1></div></div>","32","32","750","1000","practice","go","8","random","","",""
"","-1","-1","1065","250","practice","poldrack-categorize","11","43571","0.0-1.0-9.0","go-nogo","true","0","","true","<div class = centerbox><div id = stim2></div></div>","-1","32","750","1000","practice","nogo","9","random","","",""
"","","","","","reset_trial","call-function","12","43827","0.0-3.0","go-nogo","true","0","","","","","","","","","","","","","",""
"<div class = centerbox><p class = block-text>Practice is over, we will now begin the experiment. You will no longer get feedback about your responses.</p><p class = block-text>Remember, if you see the <font color=""orange"">orange</font> square you should <strong> respond by pressing the spacebar as quickly as possible</strong>. If you see the <font color=""blue"">blue</font> square you should <strong> not respond</strong>. Press <strong>enter</strong> to begin.</p></div>","12489","13","12489","1000","test_intro","poldrack-text","13","56317","0.0-4.0","go-nogo","true","0","","","","","","","","","","","","","",""
"","581","32","1294","0","test_block","poldrack-single-stim","14","58614","0.0-5.0-0.0","go-nogo","true","0","","true","<div class = centerbox><div  id = stim1></div></div>","32","32","750","","test","go","0","random","","",""
"","497","32","1474","0","test_block","poldrack-single-stim","15","60143","0.0-5.0-1.0","go-nogo","true","0","","true","<div class = centerbox><div  id = stim1></div></div>","32","32","750","","test","go","1","random","","",""
"","326","32","1040","0","test_block","poldrack-single-stim","16","61228","0.0-5.0-2.0","go-nogo","true","0","","true","<div class = centerbox><div  id = stim1></div></div>","32","32","750","","test","go","2","random","","",""
"","452","32","1441","0","test_block","poldrack-single-stim","17","62710","0.0-5.0-3.0","go-nogo","true","0","","true","<div class = centerbox><div  id = stim1></div></div>","32","32","750","","test","go","3","random","","",""
"","-1","-1","1155","0","test_block","poldrack-single-stim","18","63907","0.0-5.0-4.0","go-nogo","true","0","","true","<div class = centerbox><div  id = stim2></div></div>","-1","32","750","","test","nogo","4","random","","",""
"","315","32","1182","0","test_block","poldrack-single-stim","19","65131","0.0-5.0-5.0","go-nogo","true","0","","true","<div class = centerbox><div  id = stim1></div></div>","32","32","750","","test","go","5","random","","",""
"","330","32","1094","0","test_block","poldrack-single-stim","20","66269","0.0-5.0-6.0","go-nogo","true","0","","true","<div class = centerbox><div  id = stim1></div></div>","32","32","750","","test","go","6","random","","",""
"","289","32","1343","0","test_block","poldrack-single-stim","21","67654","0.0-5.0-7.0","go-nogo","true","0","","true","<div class = centerbox><div  id = stim1></div></div>","32","32","750","","test","go","7","random","","",""
"","287","32","1202","0","test_block","poldrack-single-stim","22","68888","0.0-5.0-8.0","go-nogo","true","0","","true","<div class = centerbox><div  id = stim1></div></div>","32","32","750","","test","go","8","random","","",""
"","276","32","1338","0","test_block","poldrack-single-stim","23","70263","0.0-5.0-9.0","go-nogo","true","0","","true","<div class = centerbox><div  id = stim1></div></div>","32","32","750","","test","go","9","random","","",""
"","391","32","1255","0","test_block","poldrack-single-stim","24","71557","0.0-5.0-10.0","go-nogo","true","0","","true","<div class = centerbox><div  id = stim1></div></div>","32","32","750","","test","go","10","random","","",""
"","325","32","1337","0","test_block","poldrack-single-stim","25","72931","0.0-5.0-11.0","go-nogo","true","0","","true","<div class = centerbox><div  id = stim1></div></div>","32","32","750","","test","go","11","random","","",""
"","313","32","1014","0","test_block","poldrack-single-stim","26","73978","0.0-5.0-12.0","go-nogo","true","0","","true","<div class = centerbox><div  id = stim1></div></div>","32","32","750","","test","go","12","random","","",""
"","336","32","1053","0","test_block","poldrack-single-stim","27","75071","0.0-5.0-13.0","go-nogo","true","0","","true","<div class = centerbox><div  id = stim1></div></div>","32","32","750","","test","go","13","random","","",""
"","326","32","1010","0","test_block","poldrack-single-stim","28","76126","0.0-5.0-14.0","go-nogo","true","0","","true","<div class = centerbox><div  id = stim1></div></div>","32","32","750","","test","go","14","random","","",""
"","358","32","1372","0","test_block","poldrack-single-stim","29","77536","0.0-5.0-15.0","go-nogo","true","0","","true","<div class = centerbox><div  id = stim1></div></div>","32","32","750","","test","go","15","random","","",""
"","322","32","1339","0","test_block","poldrack-single-stim","30","78912","0.0-5.0-16.0","go-nogo","true","0","","true","<div class = centerbox><div  id = stim1></div></div>","32","32","750","","test","go","16","random","","",""
"","268","32","1240","0","test_block","poldrack-single-stim","31","80189","0.0-5.0-17.0","go-nogo","true","0","","true","<div class = centerbox><div  id = stim1></div></div>","32","32","750","","test","go","17","random","","",""
"","282","32","1437","0","test_block","poldrack-single-stim","32","81659","0.0-5.0-18.0","go-nogo","true","0","","true","<div class = centerbox><div  id = stim1></div></div>","32","32","750","","test","go","18","random","","",""
"","341","32","1422","0","test_block","poldrack-single-stim","33","83111","0.0-5.0-19.0","go-nogo","true","0","","true","<div class = centerbox><div  id = stim1></div></div>","32","32","750","","test","go","19","random","","",""
"","310","32","1379","0","test_block","poldrack-single-stim","34","84526","0.0-5.0-20.0","go-nogo","true","0","","true","<div class = centerbox><div  id = stim1></div></div>","32","32","750","","test","go","20","random","","",""
"","319","32","1012","0","test_block","poldrack-single-stim","35","85571","0.0-5.0-21.0","go-nogo","true","0","","true","<div class = centerbox><div  id = stim1></div></div>","32","32","750","","test","go","21","random","","",""
"","322","32","1344","0","test_block","poldrack-single-stim","36","86948","0.0-5.0-22.0","go-nogo","true","0","","true","<div class = centerbox><div  id = stim1></div></div>","32","32","750","","test","go","22","random","","",""
"","316","32","1182","0","test_block","poldrack-single-stim","37","88171","0.0-5.0-23.0","go-nogo","true","0","","true","<div class = centerbox><div  id = stim1></div></div>","32","32","750","","test","go","23","random","","",""
"","294","32","1448","0","test_block","poldrack-single-stim","38","89657","0.0-5.0-24.0","go-nogo","true","0","","true","<div class = centerbox><div  id = stim1></div></div>","32","32","750","","test","go","24","random","","",""
"","296","32","1047","0","test_block","poldrack-single-stim","39","90738","0.0-5.0-25.0","go-nogo","true","0","","true","<div class = centerbox><div  id = stim1></div></div>","32","32","750","","test","go","25","random","","",""
"","-1","-1","1499","0","test_block","poldrack-single-stim","40","92271","0.0-5.0-26.0","go-nogo","true","0","","true","<div class = centerbox><div  id = stim2></div></div>","-1","32","750","","test","nogo","26","random","","",""
"","279","32","1361","0","test_block","poldrack-single-stim","41","93665","0.0-5.0-27.0","go-nogo","true","0","","true","<div class = centerbox><div  id = stim1></div></div>","32","32","750","","test","go","27","random","","",""
"","286","32","1117","0","test_block","poldrack-single-stim","42","94813","0.0-5.0-28.0","go-nogo","true","0","","true","<div class = centerbox><div  id = stim1></div></div>","32","32","750","","test","go","28","random","","",""
"","-1","-1","1129","0","test_block","poldrack-single-stim","43","95973","0.0-5.0-29.0","go-nogo","true","0","","true","<div class = centerbox><div  id = stim2></div></div>","-1","32","750","","test","nogo","29","random","","",""
"","269","32","1462","0","test_block","poldrack-single-stim","44","97471","0.0-5.0-30.0","go-nogo","true","0","","true","<div class = centerbox><div  id = stim1></div></div>","32","32","750","","test","go","30","random","","",""
"","290","32","1263","0","test_block","poldrack-single-stim","45","98766","0.0-5.0-31.0","go-nogo","true","0","","true","<div class = centerbox><div  id = stim1></div></div>","32","32","750","","test","go","31","random","","",""
"","301","32","1460","0","test_block","poldrack-single-stim","46","100258","0.0-5.0-32.0","go-nogo","true","0","","true","<div class = centerbox><div  id = stim1></div></div>","32","32","750","","test","go","32","random","","",""
"","287","32","1089","0","test_block","poldrack-single-stim","47","101379","0.0-5.0-33.0","go-nogo","true","0","","true","<div class = centerbox><div  id = stim1></div></div>","32","32","750","","test","go","33","random","","",""
"","332","32","1394","0","test_block","poldrack-single-stim","48","102808","0.0-5.0-34.0","go-nogo","true","0","","true","<div class = centerbox><div  id = stim1></div></div>","32","32","750","","test","go","34","random","","",""
"","301","32","1237","0","test_block","poldrack-single-stim","49","104081","0.0-5.0-35.0","go-nogo","true","0","","true","<div class = centerbox><div  id = stim1></div></div>","32","32","750","","test","go","35","random","","",""
"","254","32","1247","0","test_block","poldrack-single-stim","50","105363","0.0-5.0-36.0","go-nogo","true","0","","true","<div class = centerbox><div  id = stim1></div></div>","32","32","750","","test","go","36","random","","",""
"","270","32","1466","0","test_block","poldrack-single-stim","51","106863","0.0-5.0-37.0","go-nogo","true","0","","false","<div class = centerbox><div  id = stim2></div></div>","-1","32","750","","test","nogo","37","random","","",""
"","312","32","1161","0","test_block","poldrack-single-stim","52","108055","0.0-5.0-38.0","go-nogo","true","0","","true","<div class = centerbox><div  id = stim1></div></div>","32","32","750","","test","go","38","random","","",""
"","314","32","1185","0","test_block","poldrack-single-stim","53","109271","0.0-5.0-39.0","go-nogo","true","0","","true","<div class = centerbox><div  id = stim1></div></div>","32","32","750","","test","go","39","random","","",""
"","339","32","1417","0","test_block","poldrack-single-stim","54","110719","0.0-5.0-40.0","go-nogo","true","0","","true","<div class = centerbox><div  id = stim1></div></div>","32","32","750","","test","go","40","random","","",""
"","339","32","1376","0","test_block","poldrack-single-stim","55","112124","0.0-5.0-41.0","go-nogo","true","0","","true","<div class = centerbox><div  id = stim1></div></div>","32","32","750","","test","go","41","random","","",""
"","341","32","1425","0","test_block","poldrack-single-stim","56","113581","0.0-5.0-42.0","go-nogo","true","0","","true","<div class = centerbox><div  id = stim1></div></div>","32","32","750","","test","go","42","random","","",""
"","339","32","1044","0","test_block","poldrack-single-stim","57","114660","0.0-5.0-43.0","go-nogo","true","0","","true","<div class = centerbox><div  id = stim1></div></div>","32","32","750","","test","go","43","random","","",""
"","338","32","1288","0","test_block","poldrack-single-stim","58","115980","0.0-5.0-44.0","go-nogo","true","0","","true","<div class = centerbox><div  id = stim1></div></div>","32","32","750","","test","go","44","random","","",""
"","316","32","1372","0","test_block","poldrack-single-stim","59","117383","0.0-5.0-45.0","go-nogo","true","0","","true","<div class = centerbox><div  id = stim1></div></div>","32","32","750","","test","go","45","random","","",""
"","339","32","1007","0","test_block","poldrack-single-stim","60","118423","0.0-5.0-46.0","go-nogo","true","0","","true","<div class = centerbox><div  id = stim1></div></div>","32","32","750","","test","go","46","random","","",""
"","459","32","1335","0","test_block","poldrack-single-stim","61","119789","0.0-5.0-47.0","go-nogo","true","0","","true","<div class = centerbox><div  id = stim1></div></div>","32","32","750","","test","go","47","random","","",""
"","-1","-1","1037","0","test_block","poldrack-single-stim","62","120861","0.0-5.0-48.0","go-nogo","true","0","","true","<div class = centerbox><div  id = stim2></div></div>","-1","32","750","","test","nogo","48","random","","",""
"","291","32","1402","0","test_block","poldrack-single-stim","63","122296","0.0-5.0-49.0","go-nogo","true","0","","true","<div class = centerbox><div  id = stim1></div></div>","32","32","750","","test","go","49","random","","",""
"","298","32","1328","0","test_block","poldrack-single-stim","64","123657","0.0-5.0-50.0","go-nogo","true","0","","true","<div class = centerbox><div  id = stim1></div></div>","32","32","750","","test","go","50","random","","",""
"","322","32","1130","0","test_block","poldrack-single-stim","65","124819","0.0-5.0-51.0","go-nogo","true","0","","true","<div class = centerbox><div  id = stim1></div></div>","32","32","750","","test","go","51","random","","",""
"","-1","-1","1376","0","test_block","poldrack-single-stim","66","126229","0.0-5.0-52.0","go-nogo","true","0","","true","<div class = centerbox><div  id = stim2></div></div>","-1","32","750","","test","nogo","52","random","","",""
"","278","32","1319","0","test_block","poldrack-single-stim","67","127577","0.0-5.0-53.0","go-nogo","true","0","","true","<div class = centerbox><div  id = stim1></div></div>","32","32","750","","test","go","53","random","","",""
"","288","32","1015","0","test_block","poldrack-single-stim","68","128622","0.0-5.0-54.0","go-nogo","true","0","","true","<div class = centerbox><div  id = stim1></div></div>","32","32","750","","test","go","54","random","","",""
"","317","32","1309","0","test_block","poldrack-single-stim","69","129962","0.0-5.0-55.0","go-nogo","true","0","","true","<div class = centerbox><div  id = stim1></div></div>","32","32","750","","test","go","55","random","","",""
"","313","32","1078","0","test_block","poldrack-single-stim","70","131072","0.0-5.0-56.0","go-nogo","true","0","","true","<div class = centerbox><div  id = stim1></div></div>","32","32","750","","test","go","56","random","","",""
"","307","32","1254","0","test_block","poldrack-single-stim","71","132354","0.0-5.0-57.0","go-nogo","true","0","","true","<div class = centerbox><div  id = stim1></div></div>","32","32","750","","test","go","57","random","","",""
"","358","32","1256","0","test_block","poldrack-single-stim","72","133641","0.0-5.0-58.0","go-nogo","true","0","","true","<div class = centerbox><div  id = stim1></div></div>","32","32","750","","test","go","58","random","","",""
"","313","32","1256","0","test_block","poldrack-single-stim","73","134926","0.0-5.0-59.0","go-nogo","true","0","","true","<div class = centerbox><div  id = stim1></div></div>","32","32","750","","test","go","59","random","","",""
"","301","32","1071","0","test_block","poldrack-single-stim","74","136029","0.0-5.0-60.0","go-nogo","true","0","","true","<div class = centerbox><div  id = stim1></div></div>","32","32","750","","test","go","60","random","","",""
"","382","32","1296","0","test_block","poldrack-single-stim","75","137353","0.0-5.0-61.0","go-nogo","true","0","","true","<div class = centerbox><div  id = stim1></div></div>","32","32","750","","test","go","61","random","","",""
"","314","32","1082","0","test_block","poldrack-single-stim","76","138467","0.0-5.0-62.0","go-nogo","true","0","","true","<div class = centerbox><div  id = stim1></div></div>","32","32","750","","test","go","62","random","","",""
"","-1","-1","1035","0","test_block","poldrack-single-stim","77","139537","0.0-5.0-63.0","go-nogo","true","0","","true","<div class = centerbox><div  id = stim2></div></div>","-1","32","750","","test","nogo","63","random","","",""
"","1","32","1074","0","test_block","poldrack-single-stim","78","140644","0.0-5.0-64.0","go-nogo","true","0","","true","<div class = centerbox><div  id = stim1></div></div>","32","32","750","","test","go","64","random","","",""
"","399","32","1383","0","test_block","poldrack-single-stim","79","142059","0.0-5.0-65.0","go-nogo","true","0","","true","<div class = centerbox><div  id = stim1></div></div>","32","32","750","","test","go","65","random","","",""
"","286","32","1449","0","test_block","poldrack-single-stim","80","143542","0.0-5.0-66.0","go-nogo","true","0","","true","<div class = centerbox><div  id = stim1></div></div>","32","32","750","","test","go","66","random","","",""
"","348","32","1356","0","test_block","poldrack-single-stim","81","144927","0.0-5.0-67.0","go-nogo","true","0","","true","<div class = centerbox><div  id = stim1></div></div>","32","32","750","","test","go","67","random","","",""
"","314","32","1095","0","test_block","poldrack-single-stim","82","146055","0.0-5.0-68.0","go-nogo","true","0","","true","<div class = centerbox><div  id = stim1></div></div>","32","32","750","","test","go","68","random","","",""
"","430","32","1291","0","test_block","poldrack-single-stim","83","147383","0.0-5.0-69.0","go-nogo","true","0","","true","<div class = centerbox><div  id = stim1></div></div>","32","32","750","","test","go","69","random","","",""
"","393","32","1141","0","test_block","poldrack-single-stim","84","148566","0.0-5.0-70.0","go-nogo","true","0","","true","<div class = centerbox><div  id = stim1></div></div>","32","32","750","","test","go","70","random","","",""
"","293","32","1024","0","test_block","poldrack-single-stim","85","149618","0.0-5.0-71.0","go-nogo","true","0","","true","<div class = centerbox><div  id = stim1></div></div>","32","32","750","","test","go","71","random","","",""
"","-1","-1","1386","0","test_block","poldrack-single-stim","86","151035","0.0-5.0-72.0","go-nogo","true","0","","true","<div class = centerbox><div  id = stim2></div></div>","-1","32","750","","test","nogo","72","random","","",""
"","346","32","1249","0","test_block","poldrack-single-stim","87","152318","0.0-5.0-73.0","go-nogo","true","0","","true","<div class = centerbox><div  id = stim1></div></div>","32","32","750","","test","go","73","random","","",""
"","317","32","1162","0","test_block","poldrack-single-stim","88","153510","0.0-5.0-74.0","go-nogo","true","0","","true","<div class = centerbox><div  id = stim1></div></div>","32","32","750","","test","go","74","random","","",""
"","350","32","1256","0","test_block","poldrack-single-stim","89","154797","0.0-5.0-75.0","go-nogo","true","0","","true","<div class = centerbox><div  id = stim1></div></div>","32","32","750","","test","go","75","random","","",""
"","334","32","1159","0","test_block","poldrack-single-stim","90","155986","0.0-5.0-76.0","go-nogo","true","0","","true","<div class = centerbox><div  id = stim1></div></div>","32","32","750","","test","go","76","random","","",""
"","-1","-1","1088","0","test_block","poldrack-single-stim","91","157102","0.0-5.0-77.0","go-nogo","true","0","","true","<div class = centerbox><div  id = stim2></div></div>","-1","32","750","","test","nogo","77","random","","",""
"","283","32","1456","0","test_block","poldrack-single-stim","92","158590","0.0-5.0-78.0","go-nogo","true","0","","true","<div class = centerbox><div  id = stim1></div></div>","32","32","750","","test","go","78","random","","",""
"","-1","-1","1186","0","test_block","poldrack-single-stim","93","159807","0.0-5.0-79.0","go-nogo","true","0","","true","<div class = centerbox><div  id = stim2></div></div>","-1","32","750","","test","nogo","79","random","","",""
"","349","32","1217","0","test_block","poldrack-single-stim","94","161055","0.0-5.0-80.0","go-nogo","true","0","","true","<div class = centerbox><div  id = stim1></div></div>","32","32","750","","test","go","80","random","","",""
"","321","32","1149","0","test_block","poldrack-single-stim","95","162239","0.0-5.0-81.0","go-nogo","true","0","","true","<div class = centerbox><div  id = stim1></div></div>","32","32","750","","test","go","81","random","","",""
"","-1","-1","1401","0","test_block","poldrack-single-stim","96","163670","0.0-5.0-82.0","go-nogo","true","0","","true","<div class = centerbox><div  id = stim2></div></div>","-1","32","750","","test","nogo","82","random","","",""
"","310","32","1115","0","test_block","poldrack-single-stim","97","164817","0.0-5.0-83.0","go-nogo","true","0","","true","<div class = centerbox><div  id = stim1></div></div>","32","32","750","","test","go","83","random","","",""
"","306","32","1433","0","test_block","poldrack-single-stim","98","166280","0.0-5.0-84.0","go-nogo","true","0","","true","<div class = centerbox><div  id = stim1></div></div>","32","32","750","","test","go","84","random","","",""
"","330","32","1048","0","test_block","poldrack-single-stim","99","167359","0.0-5.0-85.0","go-nogo","true","0","","true","<div class = centerbox><div  id = stim1></div></div>","32","32","750","","test","go","85","random","","",""
"","308","32","1197","0","test_block","poldrack-single-stim","100","168584","0.0-5.0-86.0","go-nogo","true","0","","true","<div class = centerbox><div  id = stim1></div></div>","32","32","750","","test","go","86","random","","",""
"","289","32","1058","0","test_block","poldrack-single-stim","101","169672","0.0-5.0-87.0","go-nogo","true","0","","true","<div class = centerbox><div  id = stim1></div></div>","32","32","750","","test","go","87","random","","",""
"","332","32","1119","0","test_block","poldrack-single-stim","102","170819","0.0-5.0-88.0","go-nogo","true","0","","true","<div class = centerbox><div  id = stim1></div></div>","32","32","750","","test","go","88","random","","",""
"","319","32","1399","0","test_block","poldrack-single-stim","103","172250","0.0-5.0-89.0","go-nogo","true","0","","true","<div class = centerbox><div  id = stim1></div></div>","32","32","750","","test","go","89","random","","",""
"","353","32","1427","0","test_block","poldrack-single-stim","104","173709","0.0-5.0-90.0","go-nogo","true","0","","true","<div class = centerbox><div  id = stim1></div></div>","32","32","750","","test","go","90","random","","",""
"","325","32","1205","0","test_block","poldrack-single-stim","105","174947","0.0-5.0-91.0","go-nogo","true","0","","true","<div class = centerbox><div  id = stim1></div></div>","32","32","750","","test","go","91","random","","",""
"","337","32","1385","0","test_block","poldrack-single-stim","106","176363","0.0-5.0-92.0","go-nogo","true","0","","true","<div class = centerbox><div  id = stim1></div></div>","32","32","750","","test","go","92","random","","",""
"","341","32","1104","0","test_block","poldrack-single-stim","107","177499","0.0-5.0-93.0","go-nogo","true","0","","true","<div class = centerbox><div  id = stim1></div></div>","32","32","750","","test","go","93","random","","",""
"","328","32","1328","0","test_block","poldrack-single-stim","108","178858","0.0-5.0-94.0","go-nogo","true","0","","true","<div class = centerbox><div  id = stim1></div></div>","32","32","750","","test","go","94","random","","",""
"","330","32","1248","0","test_block","poldrack-single-stim","109","180138","0.0-5.0-95.0","go-nogo","true","0","","true","<div class = centerbox><div  id = stim1></div></div>","32","32","750","","test","go","95","random","","",""
"","322","32","1278","0","test_block","poldrack-single-stim","110","181454","0.0-5.0-96.0","go-nogo","true","0","","true","<div class = centerbox><div  id = stim1></div></div>","32","32","750","","test","go","96","random","","",""
"","323","32","1346","0","test_block","poldrack-single-stim","111","182836","0.0-5.0-97.0","go-nogo","true","0","","true","<div class = centerbox><div  id = stim1></div></div>","32","32","750","","test","go","97","random","","",""
"","313","32","1120","0","test_block","poldrack-single-stim","112","183985","0.0-5.0-98.0","go-nogo","true","0","","true","<div class = centerbox><div  id = stim1></div></div>","32","32","750","","test","go","98","random","","",""
"","299","32","1059","0","test_block","poldrack-single-stim","113","185072","0.0-5.0-99.0","go-nogo","true","0","","true","<div class = centerbox><div  id = stim1></div></div>","32","32","750","","test","go","99","random","","",""
"","276","32","1097","0","test_block","poldrack-single-stim","114","186202","0.0-5.0-100.0","go-nogo","true","0","","false","<div class = centerbox><div  id = stim2></div></div>","-1","32","750","","test","nogo","100","random","","",""
"","291","32","1185","0","test_block","poldrack-single-stim","115","187416","0.0-5.0-101.0","go-nogo","true","0","","true","<div class = centerbox><div  id = stim1></div></div>","32","32","750","","test","go","101","random","","",""
"","298","32","1070","0","test_block","poldrack-single-stim","116","188519","0.0-5.0-102.0","go-nogo","true","0","","true","<div class = centerbox><div  id = stim1></div></div>","32","32","750","","test","go","102","random","","",""
"","317","32","1365","0","test_block","poldrack-single-stim","117","189912","0.0-5.0-103.0","go-nogo","true","0","","true","<div class = centerbox><div  id = stim1></div></div>","32","32","750","","test","go","103","random","","",""
"","300","32","1384","0","test_block","poldrack-single-stim","118","191328","0.0-5.0-104.0","go-nogo","true","0","","true","<div class = centerbox><div  id = stim1></div></div>","32","32","750","","test","go","104","random","","",""
"","348","32","1309","0","test_block","poldrack-single-stim","119","192669","0.0-5.0-105.0","go-nogo","true","0","","true","<div class = centerbox><div  id = stim1></div></div>","32","32","750","","test","go","105","random","","",""
"","383","32","1310","0","test_block","poldrack-single-stim","120","194010","0.0-5.0-106.0","go-nogo","true","0","","true","<div class = centerbox><div  id = stim1></div></div>","32","32","750","","test","go","106","random","","",""
"","327","32","1059","0","test_block","poldrack-single-stim","121","195103","0.0-5.0-107.0","go-nogo","true","0","","true","<div class = centerbox><div  id = stim1></div></div>","32","32","750","","test","go","107","random","","",""
"","404","32","1323","0","test_block","poldrack-single-stim","122","196455","0.0-5.0-108.0","go-nogo","true","0","","true","<div class = centerbox><div  id = stim1></div></div>","32","32","750","","test","go","108","random","","",""
"","348","32","1476","0","test_block","poldrack-single-stim","123","197961","0.0-5.0-109.0","go-nogo","true","0","","true","<div class = centerbox><div  id = stim1></div></div>","32","32","750","","test","go","109","random","","",""
"","311","32","1298","0","test_block","poldrack-single-stim","124","199290","0.0-5.0-110.0","go-nogo","true","0","","true","<div class = centerbox><div  id = stim1></div></div>","32","32","750","","test","go","110","random","","",""
"","362","32","1418","0","test_block","poldrack-single-stim","125","200739","0.0-5.0-111.0","go-nogo","true","0","","true","<div class = centerbox><div  id = stim1></div></div>","32","32","750","","test","go","111","random","","",""
"","306","32","1470","0","test_block","poldrack-single-stim","126","202240","0.0-5.0-112.0","go-nogo","true","0","","true","<div class = centerbox><div  id = stim1></div></div>","32","32","750","","test","go","112","random","","",""
"","357","32","1286","0","test_block","poldrack-single-stim","127","203554","0.0-5.0-113.0","go-nogo","true","0","","true","<div class = centerbox><div  id = stim1></div></div>","32","32","750","","test","go","113","random","","",""
"","-1","-1","1390","0","test_block","poldrack-single-stim","128","204973","0.0-5.0-114.0","go-nogo","true","0","","true","<div class = centerbox><div  id = stim2></div></div>","-1","32","750","","test","nogo","114","random","","",""
"","303","32","1449","0","test_block","poldrack-single-stim","129","206451","0.0-5.0-115.0","go-nogo","true","0","","true","<div class = centerbox><div  id = stim1></div></div>","32","32","750","","test","go","115","random","","",""
"","906","32","1156","0","test_block","poldrack-single-stim","130","207634","0.0-5.0-116.0","go-nogo","true","0","","true","<div class = centerbox><div  id = stim1></div></div>","32","32","750","","test","go","116","random","","",""
"","554","32","1446","0","test_block","poldrack-single-stim","131","209109","0.0-5.0-117.0","go-nogo","true","0","","true","<div class = centerbox><div  id = stim1></div></div>","32","32","750","","test","go","117","random","","",""
"","319","32","1466","0","test_block","poldrack-single-stim","132","210607","0.0-5.0-118.0","go-nogo","true","0","","true","<div class = centerbox><div  id = stim1></div></div>","32","32","750","","test","go","118","random","","",""
"","334","32","1284","0","test_block","poldrack-single-stim","133","211919","0.0-5.0-119.0","go-nogo","true","0","","true","<div class = centerbox><div  id = stim1></div></div>","32","32","750","","test","go","119","random","","",""
"","574","32","1384","0","test_block","poldrack-single-stim","134","213330","0.0-5.0-120.0","go-nogo","true","0","","true","<div class = centerbox><div  id = stim1></div></div>","32","32","750","","test","go","120","random","","",""
"","313","32","1493","0","test_block","poldrack-single-stim","135","214856","0.0-5.0-121.0","go-nogo","true","0","","false","<div class = centerbox><div  id = stim2></div></div>","-1","32","750","","test","nogo","121","random","","",""
"","766","32","1024","0","test_block","poldrack-single-stim","136","215911","0.0-5.0-122.0","go-nogo","true","0","","true","<div class = centerbox><div  id = stim1></div></div>","32","32","750","","test","go","122","random","","",""
"","365","32","1199","0","test_block","poldrack-single-stim","137","217138","0.0-5.0-123.0","go-nogo","true","0","","true","<div class = centerbox><div  id = stim1></div></div>","32","32","750","","test","go","123","random","","",""
"","314","32","1103","0","test_block","poldrack-single-stim","138","218274","0.0-5.0-124.0","go-nogo","true","0","","true","<div class = centerbox><div  id = stim1></div></div>","32","32","750","","test","go","124","random","","",""
"","266","32","1479","0","test_block","poldrack-single-stim","139","219786","0.0-5.0-125.0","go-nogo","true","0","","true","<div class = centerbox><div  id = stim1></div></div>","32","32","750","","test","go","125","random","","",""
"","283","32","1070","0","test_block","poldrack-single-stim","140","220883","0.0-5.0-126.0","go-nogo","true","0","","true","<div class = centerbox><div  id = stim1></div></div>","32","32","750","","test","go","126","random","","",""
"","327","32","1394","0","test_block","poldrack-single-stim","141","222310","0.0-5.0-127.0","go-nogo","true","0","","true","<div class = centerbox><div  id = stim1></div></div>","32","32","750","","test","go","127","random","","",""
"","285","32","1284","0","test_block","poldrack-single-stim","142","223626","0.0-5.0-128.0","go-nogo","true","0","","true","<div class = centerbox><div  id = stim1></div></div>","32","32","750","","test","go","128","random","","",""
"","274","32","1427","0","test_block","poldrack-single-stim","143","225084","0.0-5.0-129.0","go-nogo","true","0","","true","<div class = centerbox><div  id = stim1></div></div>","32","32","750","","test","go","129","random","","",""
"","336","32","1498","0","test_block","poldrack-single-stim","144","226614","0.0-5.0-130.0","go-nogo","true","0","","true","<div class = centerbox><div  id = stim1></div></div>","32","32","750","","test","go","130","random","","",""
"","287","32","1354","0","test_block","poldrack-single-stim","145","227999","0.0-5.0-131.0","go-nogo","true","0","","true","<div class = centerbox><div  id = stim1></div></div>","32","32","750","","test","go","131","random","","",""
"","301","32","1490","0","test_block","poldrack-single-stim","146","229520","0.0-5.0-132.0","go-nogo","true","0","","true","<div class = centerbox><div  id = stim1></div></div>","32","32","750","","test","go","132","random","","",""
"","334","32","1426","0","test_block","poldrack-single-stim","147","230974","0.0-5.0-133.0","go-nogo","true","0","","true","<div class = centerbox><div  id = stim1></div></div>","32","32","750","","test","go","133","random","","",""
"","281","32","1133","0","test_block","poldrack-single-stim","148","232137","0.0-5.0-134.0","go-nogo","true","0","","true","<div class = centerbox><div  id = stim1></div></div>","32","32","750","","test","go","134","random","","",""
"","315","32","1093","0","test_block","poldrack-single-stim","149","233264","0.0-5.0-135.0","go-nogo","true","0","","true","<div class = centerbox><div  id = stim1></div></div>","32","32","750","","test","go","135","random","","",""
"","301","32","1024","0","test_block","poldrack-single-stim","150","234320","0.0-5.0-136.0","go-nogo","true","0","","true","<div class = centerbox><div  id = stim1></div></div>","32","32","750","","test","go","136","random","","",""
"","309","32","1342","0","test_block","poldrack-single-stim","151","235690","0.0-5.0-137.0","go-nogo","true","0","","true","<div class = centerbox><div  id = stim1></div></div>","32","32","750","","test","go","137","random","","",""
"","280","32","1167","0","test_block","poldrack-single-stim","152","236888","0.0-5.0-138.0","go-nogo","true","0","","true","<div class = centerbox><div  id = stim1></div></div>","32","32","750","","test","go","138","random","","",""
"","330","32","1344","0","test_block","poldrack-single-stim","153","238263","0.0-5.0-139.0","go-nogo","true","0","","true","<div class = centerbox><div  id = stim1></div></div>","32","32","750","","test","go","139","random","","",""
"","335","32","1304","0","test_block","poldrack-single-stim","154","239598","0.0-5.0-140.0","go-nogo","true","0","","true","<div class = centerbox><div  id = stim1></div></div>","32","32","750","","test","go","140","random","","",""
"","303","32","1342","0","test_block","poldrack-single-stim","155","240972","0.0-5.0-141.0","go-nogo","true","0","","true","<div class = centerbox><div  id = stim1></div></div>","32","32","750","","test","go","141","random","","",""
"","274","32","1275","0","test_block","poldrack-single-stim","156","242277","0.0-5.0-142.0","go-nogo","true","0","","true","<div class = centerbox><div  id = stim1></div></div>","32","32","750","","test","go","142","random","","",""
"","293","32","1232","0","test_block","poldrack-single-stim","157","243539","0.0-5.0-143.0","go-nogo","true","0","","true","<div class = centerbox><div  id = stim1></div></div>","32","32","750","","test","go","143","random","","",""
"","304","32","1382","0","test_block","poldrack-single-stim","158","244954","0.0-5.0-144.0","go-nogo","true","0","","true","<div class = centerbox><div  id = stim1></div></div>","32","32","750","","test","go","144","random","","",""
"","275","32","1146","0","test_block","poldrack-single-stim","159","246128","0.0-5.0-145.0","go-nogo","true","0","","true","<div class = centerbox><div  id = stim1></div></div>","32","32","750","","test","go","145","random","","",""
"","325","32","1325","0","test_block","poldrack-single-stim","160","247482","0.0-5.0-146.0","go-nogo","true","0","","true","<div class = centerbox><div  id = stim1></div></div>","32","32","750","","test","go","146","random","","",""
"","282","32","1295","0","test_block","poldrack-single-stim","161","248810","0.0-5.0-147.0","go-nogo","true","0","","true","<div class = centerbox><div  id = stim1></div></div>","32","32","750","","test","go","147","random","","",""
"","300","32","1101","0","test_block","poldrack-single-stim","162","249938","0.0-5.0-148.0","go-nogo","true","0","","true","<div class = centerbox><div  id = stim1></div></div>","32","32","750","","test","go","148","random","","",""
"","284","32","1347","0","test_block","poldrack-single-stim","163","251312","0.0-5.0-149.0","go-nogo","true","0","","true","<div class = centerbox><div  id = stim1></div></div>","32","32","750","","test","go","149","random","","",""
"","229","32","1447","0","test_block","poldrack-single-stim","164","252787","0.0-5.0-150.0","go-nogo","true","0","","true","<div class = centerbox><div  id = stim1></div></div>","32","32","750","","test","go","150","random","","",""
"","225","32","1400","0","test_block","poldrack-single-stim","165","254220","0.0-5.0-151.0","go-nogo","true","0","","true","<div class = centerbox><div  id = stim1></div></div>","32","32","750","","test","go","151","random","","",""
"","298","32","1373","0","test_block","poldrack-single-stim","166","255620","0.0-5.0-152.0","go-nogo","true","0","","true","<div class = centerbox><div  id = stim1></div></div>","32","32","750","","test","go","152","random","","",""
"","265","32","1245","0","test_block","poldrack-single-stim","167","256895","0.0-5.0-153.0","go-nogo","true","0","","true","<div class = centerbox><div  id = stim1></div></div>","32","32","750","","test","go","153","random","","",""
"","279","32","1073","0","test_block","poldrack-single-stim","168","257994","0.0-5.0-154.0","go-nogo","true","0","","true","<div class = centerbox><div  id = stim1></div></div>","32","32","750","","test","go","154","random","","",""
"","283","32","1076","0","test_block","poldrack-single-stim","169","259098","0.0-5.0-155.0","go-nogo","true","0","","true","<div class = centerbox><div  id = stim1></div></div>","32","32","750","","test","go","155","random","","",""
"","307","32","1174","0","test_block","poldrack-single-stim","170","260299","0.0-5.0-156.0","go-nogo","true","0","","true","<div class = centerbox><div  id = stim1></div></div>","32","32","750","","test","go","156","random","","",""
"","314","32","1420","0","test_block","poldrack-single-stim","171","261750","0.0-5.0-157.0","go-nogo","true","0","","true","<div class = centerbox><div  id = stim1></div></div>","32","32","750","","test","go","157","random","","",""
"","295","32","1433","0","test_block","poldrack-single-stim","172","263214","0.0-5.0-158.0","go-nogo","true","0","","true","<div class = centerbox><div  id = stim1></div></div>","32","32","750","","test","go","158","random","","",""
"","351","32","1295","0","test_block","poldrack-single-stim","173","264541","0.0-5.0-159.0","go-nogo","true","0","","true","<div class = centerbox><div  id = stim1></div></div>","32","32","750","","test","go","159","random","","",""
"","329","32","1429","0","test_block","poldrack-single-stim","174","266000","0.0-5.0-160.0","go-nogo","true","0","","true","<div class = centerbox><div  id = stim1></div></div>","32","32","750","","test","go","160","random","","",""
"","355","32","1077","0","test_block","poldrack-single-stim","175","267109","0.0-5.0-161.0","go-nogo","true","0","","true","<div class = centerbox><div  id = stim1></div></div>","32","32","750","","test","go","161","random","","",""
"","-1","-1","1107","0","test_block","poldrack-single-stim","176","268246","0.0-5.0-162.0","go-nogo","true","0","","true","<div class = centerbox><div  id = stim2></div></div>","-1","32","750","","test","nogo","162","random","","",""
"","302","32","1210","0","test_block","poldrack-single-stim","177","269489","0.0-5.0-163.0","go-nogo","true","0","","true","<div class = centerbox><div  id = stim1></div></div>","32","32","750","","test","go","163","random","","",""
"","307","32","1430","0","test_block","poldrack-single-stim","178","270951","0.0-5.0-164.0","go-nogo","true","0","","true","<div class = centerbox><div  id = stim1></div></div>","32","32","750","","test","go","164","random","","",""
"","325","32","1217","0","test_block","poldrack-single-stim","179","272197","0.0-5.0-165.0","go-nogo","true","0","","true","<div class = centerbox><div  id = stim1></div></div>","32","32","750","","test","go","165","random","","",""
"","326","32","1265","0","test_block","poldrack-single-stim","180","273494","0.0-5.0-166.0","go-nogo","true","0","","true","<div class = centerbox><div  id = stim1></div></div>","32","32","750","","test","go","166","random","","",""
"","310","32","1337","0","test_block","poldrack-single-stim","181","274865","0.0-5.0-167.0","go-nogo","true","0","","true","<div class = centerbox><div  id = stim1></div></div>","32","32","750","","test","go","167","random","","",""
"","381","32","1489","0","test_block","poldrack-single-stim","182","276385","0.0-5.0-168.0","go-nogo","true","0","","true","<div class = centerbox><div  id = stim1></div></div>","32","32","750","","test","go","168","random","","",""
"","317","32","1390","0","test_block","poldrack-single-stim","183","277807","0.0-5.0-169.0","go-nogo","true","0","","true","<div class = centerbox><div  id = stim1></div></div>","32","32","750","","test","go","169","random","","",""
"","302","32","1473","0","test_block","poldrack-single-stim","184","279310","0.0-5.0-170.0","go-nogo","true","0","","true","<div class = centerbox><div  id = stim1></div></div>","32","32","750","","test","go","170","random","","",""
"","279","32","1398","0","test_block","poldrack-single-stim","185","280739","0.0-5.0-171.0","go-nogo","true","0","","true","<div class = centerbox><div  id = stim1></div></div>","32","32","750","","test","go","171","random","","",""
"","257","32","1323","0","test_block","poldrack-single-stim","186","282091","0.0-5.0-172.0","go-nogo","true","0","","true","<div class = centerbox><div  id = stim1></div></div>","32","32","750","","test","go","172","random","","",""
"","351","32","1296","0","test_block","poldrack-single-stim","187","283421","0.0-5.0-173.0","go-nogo","true","0","","true","<div class = centerbox><div  id = stim1></div></div>","32","32","750","","test","go","173","random","","",""
"","417","32","1017","0","test_block","poldrack-single-stim","188","284738","0.0-5.0-174.0","go-nogo","false","0","","true","<div class = centerbox><div  id = stim1></div></div>","32","32","750","","test","go","174","random","","",""
"","780","32","1386","0","test_block","poldrack-single-stim","189","286172","0.0-5.0-175.0","go-nogo","false","0","","true","<div class = centerbox><div  id = stim1></div></div>","32","32","750","","test","go","175","random","","",""
"","-1","-1","1389","0","test_block","poldrack-single-stim","190","287583","0.0-5.0-176.0","go-nogo","false","0","","true","<div class = centerbox><div  id = stim2></div></div>","-1","32","750","","test","nogo","176","random","","",""
"","349","32","1477","0","test_block","poldrack-single-stim","191","289091","0.0-5.0-177.0","go-nogo","false","0","","true","<div class = centerbox><div  id = stim1></div></div>","32","32","750","","test","go","177","random","","",""
"","281","32","1442","0","test_block","poldrack-single-stim","192","290564","0.0-5.0-178.0","go-nogo","false","0","","true","<div class = centerbox><div  id = stim1></div></div>","32","32","750","","test","go","178","random","","",""
"","317","32","1142","0","test_block","poldrack-single-stim","193","291744","0.0-5.0-179.0","go-nogo","false","0","","true","<div class = centerbox><div  id = stim1></div></div>","32","32","750","","test","go","179","random","","",""
"","774","32","1169","0","test_block","poldrack-single-stim","194","292944","0.0-5.0-180.0","go-nogo","false","0","","true","<div class = centerbox><div  id = stim1></div></div>","32","32","750","","test","go","180","random","","",""
"","1014","32","1400","0","test_block","poldrack-single-stim","195","294373","0.0-5.0-181.0","go-nogo","false","0","","true","<div class = centerbox><div  id = stim1></div></div>","32","32","750","","test","go","181","random","","",""
"","385","32","1238","0","test_block","poldrack-single-stim","196","295640","0.0-5.0-182.0","go-nogo","false","0","","true","<div class = centerbox><div  id = stim1></div></div>","32","32","750","","test","go","182","random","","",""
"","268","32","1067","0","test_block","poldrack-single-stim","197","296737","0.0-5.0-183.0","go-nogo","false","0","","true","<div class = centerbox><div  id = stim1></div></div>","32","32","750","","test","go","183","random","","",""
"","309","32","1410","0","test_block","poldrack-single-stim","198","298175","0.0-5.0-184.0","go-nogo","false","0","","true","<div class = centerbox><div  id = stim1></div></div>","32","32","750","","test","go","184","random","","",""
"","301","32","1379","0","test_block","poldrack-single-stim","199","299585","0.0-5.0-185.0","go-nogo","false","0","","true","<div class = centerbox><div  id = stim1></div></div>","32","32","750","","test","go","185","random","","",""
"","269","32","1364","0","test_block","poldrack-single-stim","200","300981","0.0-5.0-186.0","go-nogo","false","0","","true","<div class = centerbox><div  id = stim1></div></div>","32","32","750","","test","go","186","random","","",""
"","298","32","1377","0","test_block","poldrack-single-stim","201","302387","0.0-5.0-187.0","go-nogo","false","0","","true","<div class = centerbox><div  id = stim1></div></div>","32","32","750","","test","go","187","random","","",""
"","299","32","1498","0","test_block","poldrack-single-stim","202","303912","0.0-5.0-188.0","go-nogo","false","0","","true","<div class = centerbox><div  id = stim1></div></div>","32","32","750","","test","go","188","random","","",""
"","332","32","1128","0","test_block","poldrack-single-stim","203","305074","0.0-5.0-189.0","go-nogo","false","0","","true","<div class = centerbox><div  id = stim1></div></div>","32","32","750","","test","go","189","random","","",""
"","365","32","1159","0","test_block","poldrack-single-stim","204","306265","0.0-5.0-190.0","go-nogo","false","0","","false","<div class = centerbox><div  id = stim2></div></div>","-1","32","750","","test","nogo","190","random","","",""
"","438","32","1045","0","test_block","poldrack-single-stim","205","307338","0.0-5.0-191.0","go-nogo","false","0","","false","<div class = centerbox><div  id = stim2></div></div>","-1","32","750","","test","nogo","191","random","","",""
"","405","32","1443","0","test_block","poldrack-single-stim","206","308812","0.0-5.0-192.0","go-nogo","false","0","","true","<div class = centerbox><div  id = stim1></div></div>","32","32","750","","test","go","192","random","","",""
"","314","32","1113","0","test_block","poldrack-single-stim","207","309956","0.0-5.0-193.0","go-nogo","false","0","","true","<div class = centerbox><div  id = stim1></div></div>","32","32","750","","test","go","193","random","","",""
"","314","32","1161","0","test_block","poldrack-single-stim","208","311146","0.0-5.0-194.0","go-nogo","false","0","","true","<div class = centerbox><div  id = stim1></div></div>","32","32","750","","test","go","194","random","","",""
"","316","32","1150","0","test_block","poldrack-single-stim","209","312324","0.0-5.0-195.0","go-nogo","false","0","","true","<div class = centerbox><div  id = stim1></div></div>","32","32","750","","test","go","195","random","","",""
"","377","32","1365","0","test_block","poldrack-single-stim","210","313718","0.0-5.0-196.0","go-nogo","false","0","","true","<div class = centerbox><div  id = stim1></div></div>","32","32","750","","test","go","196","random","","",""
"","328","32","1141","0","test_block","poldrack-single-stim","211","314890","0.0-5.0-197.0","go-nogo","false","0","","true","<div class = centerbox><div  id = stim1></div></div>","32","32","750","","test","go","197","random","","",""
"","332","32","1484","0","test_block","poldrack-single-stim","212","316405","0.0-5.0-198.0","go-nogo","false","0","","true","<div class = centerbox><div  id = stim1></div></div>","32","32","750","","test","go","198","random","","",""
"","387","32","1223","0","test_block","poldrack-single-stim","213","317660","0.0-5.0-199.0","go-nogo","false","0","","true","<div class = centerbox><div  id = stim1></div></div>","32","32","750","","test","go","199","random","","",""
"","309","32","1281","0","test_block","poldrack-single-stim","214","318972","0.0-5.0-200.0","go-nogo","false","0","","true","<div class = centerbox><div  id = stim1></div></div>","32","32","750","","test","go","200","random","","",""
"","-1","-1","1116","0","test_block","poldrack-single-stim","215","320117","0.0-5.0-201.0","go-nogo","false","0","","true","<div class = centerbox><div  id = stim2></div></div>","-1","32","750","","test","nogo","201","random","","",""
"","-1","-1","1496","0","test_block","poldrack-single-stim","216","321642","0.0-5.0-202.0","go-nogo","false","0","","true","<div class = centerbox><div  id = stim2></div></div>","-1","32","750","","test","nogo","202","random","","",""
"","285","32","1382","0","test_block","poldrack-single-stim","217","323053","0.0-5.0-203.0","go-nogo","false","0","","true","<div class = centerbox><div  id = stim1></div></div>","32","32","750","","test","go","203","random","","",""
"","258","32","1249","0","test_block","poldrack-single-stim","218","324330","0.0-5.0-204.0","go-nogo","false","0","","true","<div class = centerbox><div  id = stim1></div></div>","32","32","750","","test","go","204","random","","",""
"","1","32","1041","0","test_block","poldrack-single-stim","219","325397","0.0-5.0-205.0","go-nogo","false","0","","true","<div class = centerbox><div  id = stim1></div></div>","32","32","750","","test","go","205","random","","",""
"","394","32","1267","0","test_block","poldrack-single-stim","220","326692","0.0-5.0-206.0","go-nogo","false","0","","true","<div class = centerbox><div  id = stim1></div></div>","32","32","750","","test","go","206","random","","",""
"","476","32","1034","0","test_block","poldrack-single-stim","221","327754","0.0-5.0-207.0","go-nogo","false","0","","true","<div class = centerbox><div  id = stim1></div></div>","32","32","750","","test","go","207","random","","",""
"","358","32","1171","0","test_block","poldrack-single-stim","222","328956","0.0-5.0-208.0","go-nogo","false","0","","true","<div class = centerbox><div  id = stim1></div></div>","32","32","750","","test","go","208","random","","",""
"","300","32","1219","0","test_block","poldrack-single-stim","223","330203","0.0-5.0-209.0","go-nogo","false","0","","true","<div class = centerbox><div  id = stim1></div></div>","32","32","750","","test","go","209","random","","",""
"","308","32","1125","0","test_block","poldrack-single-stim","224","331360","0.0-5.0-210.0","go-nogo","false","0","","true","<div class = centerbox><div  id = stim1></div></div>","32","32","750","","test","go","210","random","","",""
"","-1","-1","1411","0","test_block","poldrack-single-stim","225","332799","0.0-5.0-211.0","go-nogo","false","0","","false","<div class = centerbox><div  id = stim1></div></div>","32","32","750","","test","go","211","random","","",""
"","-1","-1","1271","0","test_block","poldrack-single-stim","226","334100","0.0-5.0-212.0","go-nogo","false","0","","false","<div class = centerbox><div  id = stim1></div></div>","32","32","750","","test","go","212","random","","",""
"","347","32","1243","0","test_block","poldrack-single-stim","227","335375","0.0-5.0-213.0","go-nogo","false","0","","true","<div class = centerbox><div  id = stim1></div></div>","32","32","750","","test","go","213","random","","",""
"","993","32","1044","0","test_block","poldrack-single-stim","228","336447","0.0-5.0-214.0","go-nogo","false","0","","true","<div class = centerbox><div  id = stim1></div></div>","32","32","750","","test","go","214","random","","",""
"","-1","-1","1478","0","test_block","poldrack-single-stim","229","337954","0.0-5.0-215.0","go-nogo","false","0","","false","<div class = centerbox><div  id = stim1></div></div>","32","32","750","","test","go","215","random","","",""
"","254","32","1018","0","test_block","poldrack-single-stim","230","339001","0.0-5.0-216.0","go-nogo","false","0","","true","<div class = centerbox><div  id = stim1></div></div>","32","32","750","","test","go","216","random","","",""
"","316","32","1213","0","test_block","poldrack-single-stim","231","340247","0.0-5.0-217.0","go-nogo","false","0","","true","<div class = centerbox><div  id = stim1></div></div>","32","32","750","","test","go","217","random","","",""
"","305","32","1469","0","test_block","poldrack-single-stim","232","341745","0.0-5.0-218.0","go-nogo","false","0","","true","<div class = centerbox><div  id = stim1></div></div>","32","32","750","","test","go","218","random","","",""
"","293","32","1052","0","test_block","poldrack-single-stim","233","342830","0.0-5.0-219.0","go-nogo","false","0","","true","<div class = centerbox><div  id = stim1></div></div>","32","32","750","","test","go","219","random","","",""
"","552","32","1047","0","test_block","poldrack-single-stim","234","343906","0.0-5.0-220.0","go-nogo","false","0","","true","<div class = centerbox><div  id = stim1></div></div>","32","32","750","","test","go","220","random","","",""
"","348","32","1467","0","test_block","poldrack-single-stim","235","345402","0.0-5.0-221.0","go-nogo","false","0","","true","<div class = centerbox><div  id = stim1></div></div>","32","32","750","","test","go","221","random","","",""
"","301","32","1412","0","test_block","poldrack-single-stim","236","346847","0.0-5.0-222.0","go-nogo","false","0","","true","<div class = centerbox><div  id = stim1></div></div>","32","32","750","","test","go","222","random","","",""
"","273","32","1346","0","test_block","poldrack-single-stim","237","348225","0.0-5.0-223.0","go-nogo","false","0","","true","<div class = centerbox><div  id = stim1></div></div>","32","32","750","","test","go","223","random","","",""
"","319","32","1234","0","test_block","poldrack-single-stim","238","349488","0.0-5.0-224.0","go-nogo","false","0","","true","<div class = centerbox><div  id = stim1></div></div>","32","32","750","","test","go","224","random","","",""
"","303","32","1080","0","test_block","poldrack-single-stim","239","350601","0.0-5.0-225.0","go-nogo","false","0","","true","<div class = centerbox><div  id = stim1></div></div>","32","32","750","","test","go","225","random","","",""
"","279","32","1209","0","test_block","poldrack-single-stim","240","351842","0.0-5.0-226.0","go-nogo","false","0","","true","<div class = centerbox><div  id = stim1></div></div>","32","32","750","","test","go","226","random","","",""
"","365","32","1495","0","test_block","poldrack-single-stim","241","353366","0.0-5.0-227.0","go-nogo","false","0","","true","<div class = centerbox><div  id = stim1></div></div>","32","32","750","","test","go","227","random","","",""
"","313","32","1034","0","test_block","poldrack-single-stim","242","354428","0.0-5.0-228.0","go-nogo","false","0","","true","<div class = centerbox><div  id = stim1></div></div>","32","32","750","","test","go","228","random","","",""
"","388","32","1181","0","test_block","poldrack-single-stim","243","355636","0.0-5.0-229.0","go-nogo","false","0","","true","<div class = centerbox><div  id = stim1></div></div>","32","32","750","","test","go","229","random","","",""
"","274","32","1317","0","test_block","poldrack-single-stim","244","356983","0.0-5.0-230.0","go-nogo","false","0","","true","<div class = centerbox><div  id = stim1></div></div>","32","32","750","","test","go","230","random","","",""
"","320","32","1002","0","test_block","poldrack-single-stim","245","358014","0.0-5.0-231.0","go-nogo","false","0","","true","<div class = centerbox><div  id = stim1></div></div>","32","32","750","","test","go","231","random","","",""
"","289","32","1498","0","test_block","poldrack-single-stim","246","359543","0.0-5.0-232.0","go-nogo","false","0","","true","<div class = centerbox><div  id = stim1></div></div>","32","32","750","","test","go","232","random","","",""
"","255","32","1497","0","test_block","poldrack-single-stim","247","361070","0.0-5.0-233.0","go-nogo","false","0","","true","<div class = centerbox><div  id = stim1></div></div>","32","32","750","","test","go","233","random","","",""
"","298","32","1192","0","test_block","poldrack-single-stim","248","362289","0.0-5.0-234.0","go-nogo","false","0","","true","<div class = centerbox><div  id = stim1></div></div>","32","32","750","","test","go","234","random","","",""
"","269","32","1286","0","test_block","poldrack-single-stim","249","363606","0.0-5.0-235.0","go-nogo","false","0","","true","<div class = centerbox><div  id = stim1></div></div>","32","32","750","","test","go","235","random","","",""
"","1","32","1444","0","test_block","poldrack-single-stim","250","365082","0.0-5.0-236.0","go-nogo","false","0","","true","<div class = centerbox><div  id = stim1></div></div>","32","32","750","","test","go","236","random","","",""
"","318","32","1351","0","test_block","poldrack-single-stim","251","366463","0.0-5.0-237.0","go-nogo","false","0","","true","<div class = centerbox><div  id = stim1></div></div>","32","32","750","","test","go","237","random","","",""
"","295","32","1204","0","test_block","poldrack-single-stim","252","367697","0.0-5.0-238.0","go-nogo","false","0","","true","<div class = centerbox><div  id = stim1></div></div>","32","32","750","","test","go","238","random","","",""
"","270","32","1127","0","test_block","poldrack-single-stim","253","368855","0.0-5.0-239.0","go-nogo","false","0","","true","<div class = centerbox><div  id = stim1></div></div>","32","32","750","","test","go","239","random","","",""
"","290","32","1277","0","test_block","poldrack-single-stim","254","370161","0.0-5.0-240.0","go-nogo","false","0","","true","<div class = centerbox><div  id = stim1></div></div>","32","32","750","","test","go","240","random","","",""
"","302","32","1446","0","test_block","poldrack-single-stim","255","371639","0.0-5.0-241.0","go-nogo","false","0","","true","<div class = centerbox><div  id = stim1></div></div>","32","32","750","","test","go","241","random","","",""
"","290","32","1221","0","test_block","poldrack-single-stim","256","372889","0.0-5.0-242.0","go-nogo","false","0","","true","<div class = centerbox><div  id = stim1></div></div>","32","32","750","","test","go","242","random","","",""
"","303","32","1384","0","test_block","poldrack-single-stim","257","374302","0.0-5.0-243.0","go-nogo","false","0","","true","<div class = centerbox><div  id = stim1></div></div>","32","32","750","","test","go","243","random","","",""
"","-1","-1","1372","0","test_block","poldrack-single-stim","258","375702","0.0-5.0-244.0","go-nogo","false","0","","true","<div class = centerbox><div  id = stim2></div></div>","-1","32","750","","test","nogo","244","random","","",""
"","447","32","1409","0","test_block","poldrack-single-stim","259","377146","0.0-5.0-245.0","go-nogo","false","0","","true","<div class = centerbox><div  id = stim1></div></div>","32","32","750","","test","go","245","random","","",""
"","326","32","1227","0","test_block","poldrack-single-stim","260","378403","0.0-5.0-246.0","go-nogo","false","0","","true","<div class = centerbox><div  id = stim1></div></div>","32","32","750","","test","go","246","random","","",""
"","277","32","1336","0","test_block","poldrack-single-stim","261","379768","0.0-5.0-247.0","go-nogo","false","0","","true","<div class = centerbox><div  id = stim1></div></div>","32","32","750","","test","go","247","random","","",""
"","272","32","1455","0","test_block","poldrack-single-stim","262","381254","0.0-5.0-248.0","go-nogo","false","0","","true","<div class = centerbox><div  id = stim1></div></div>","32","32","750","","test","go","248","random","","",""
"","325","32","1096","0","test_block","poldrack-single-stim","263","382381","0.0-5.0-249.0","go-nogo","false","0","","true","<div class = centerbox><div  id = stim1></div></div>","32","32","750","","test","go","249","random","","",""
"","297","32","1234","0","test_block","poldrack-single-stim","264","383644","0.0-5.0-250.0","go-nogo","false","0","","true","<div class = centerbox><div  id = stim1></div></div>","32","32","750","","test","go","250","random","","",""
"","324","32","1114","0","test_block","poldrack-single-stim","265","384789","0.0-5.0-251.0","go-nogo","false","0","","true","<div class = centerbox><div  id = stim1></div></div>","32","32","750","","test","go","251","random","","",""
"","293","32","1385","0","test_block","poldrack-single-stim","266","386192","0.0-5.0-252.0","go-nogo","false","0","","true","<div class = centerbox><div  id = stim1></div></div>","32","32","750","","test","go","252","random","","",""
"","105","32","1429","0","test_block","poldrack-single-stim","267","387642","0.0-5.0-253.0","go-nogo","false","0","","true","<div class = centerbox><div  id = stim1></div></div>","32","32","750","","test","go","253","random","","",""
"","-1","-1","1190","0","test_block","poldrack-single-stim","268","388861","0.0-5.0-254.0","go-nogo","false","0","","true","<div class = centerbox><div  id = stim2></div></div>","-1","32","750","","test","nogo","254","random","","",""
"","476","32","1011","0","test_block","poldrack-single-stim","269","389902","0.0-5.0-255.0","go-nogo","false","0","","false","<div class = centerbox><div  id = stim2></div></div>","-1","32","750","","test","nogo","255","random","","",""
"","427","32","1041","0","test_block","poldrack-single-stim","270","390966","0.0-5.0-256.0","go-nogo","false","0","","true","<div class = centerbox><div  id = stim1></div></div>","32","32","750","","test","go","256","random","","",""
"","331","32","1064","0","test_block","poldrack-single-stim","271","392054","0.0-5.0-257.0","go-nogo","false","0","","false","<div class = centerbox><div  id = stim2></div></div>","-1","32","750","","test","nogo","257","random","","",""
"","530","32","1091","0","test_block","poldrack-single-stim","272","393177","0.0-5.0-258.0","go-nogo","false","0","","true","<div class = centerbox><div  id = stim1></div></div>","32","32","750","","test","go","258","random","","",""
"","405","32","1184","0","test_block","poldrack-single-stim","273","394391","0.0-5.0-259.0","go-nogo","false","0","","true","<div class = centerbox><div  id = stim1></div></div>","32","32","750","","test","go","259","random","","",""
"","303","32","1271","0","test_block","poldrack-single-stim","274","395691","0.0-5.0-260.0","go-nogo","false","0","","true","<div class = centerbox><div  id = stim1></div></div>","32","32","750","","test","go","260","random","","",""
"","364","32","1240","0","test_block","poldrack-single-stim","275","396963","0.0-5.0-261.0","go-nogo","false","0","","true","<div class = centerbox><div  id = stim1></div></div>","32","32","750","","test","go","261","random","","",""
"","-1","-1","1469","0","test_block","poldrack-single-stim","276","398461","0.0-5.0-262.0","go-nogo","false","0","","true","<div class = centerbox><div  id = stim2></div></div>","-1","32","750","","test","nogo","262","random","","",""
"","369","32","1418","0","test_block","poldrack-single-stim","277","399912","0.0-5.0-263.0","go-nogo","false","0","","true","<div class = centerbox><div  id = stim1></div></div>","32","32","750","","test","go","263","random","","",""
"","-1","-1","1190","0","test_block","poldrack-single-stim","278","401131","0.0-5.0-264.0","go-nogo","false","0","","true","<div class = centerbox><div  id = stim2></div></div>","-1","32","750","","test","nogo","264","random","","",""
"","341","32","1020","0","test_block","poldrack-single-stim","279","402181","0.0-5.0-265.0","go-nogo","false","0","","true","<div class = centerbox><div  id = stim1></div></div>","32","32","750","","test","go","265","random","","",""
"","372","32","1346","0","test_block","poldrack-single-stim","280","403558","0.0-5.0-266.0","go-nogo","false","0","","true","<div class = centerbox><div  id = stim1></div></div>","32","32","750","","test","go","266","random","","",""
"","-1","-1","1237","0","test_block","poldrack-single-stim","281","404823","0.0-5.0-267.0","go-nogo","false","0","","true","<div class = centerbox><div  id = stim2></div></div>","-1","32","750","","test","nogo","267","random","","",""
"","306","32","1009","0","test_block","poldrack-single-stim","282","405862","0.0-5.0-268.0","go-nogo","false","0","","true","<div class = centerbox><div  id = stim1></div></div>","32","32","750","","test","go","268","random","","",""
"","331","32","1415","0","test_block","poldrack-single-stim","283","407307","0.0-5.0-269.0","go-nogo","false","0","","true","<div class = centerbox><div  id = stim1></div></div>","32","32","750","","test","go","269","random","","",""
"","366","32","1026","0","test_block","poldrack-single-stim","284","408363","0.0-5.0-270.0","go-nogo","false","0","","true","<div class = centerbox><div  id = stim1></div></div>","32","32","750","","test","go","270","random","","",""
"","323","32","1424","0","test_block","poldrack-single-stim","285","409822","0.0-5.0-271.0","go-nogo","false","0","","true","<div class = centerbox><div  id = stim1></div></div>","32","32","750","","test","go","271","random","","",""
"","347","32","1000","0","test_block","poldrack-single-stim","286","410850","0.0-5.0-272.0","go-nogo","false","0","","true","<div class = centerbox><div  id = stim1></div></div>","32","32","750","","test","go","272","random","","",""
"","359","32","1313","0","test_block","poldrack-single-stim","287","412190","0.0-5.0-273.0","go-nogo","false","0","","false","<div class = centerbox><div  id = stim2></div></div>","-1","32","750","","test","nogo","273","random","","",""
"","340","32","1393","0","test_block","poldrack-single-stim","288","413612","0.0-5.0-274.0","go-nogo","false","0","","true","<div class = centerbox><div  id = stim1></div></div>","32","32","750","","test","go","274","random","","",""
"","-1","-1","1324","0","test_block","poldrack-single-stim","289","414965","0.0-5.0-275.0","go-nogo","false","0","","true","<div class = centerbox><div  id = stim2></div></div>","-1","32","750","","test","nogo","275","random","","",""
"","325","32","1462","0","test_block","poldrack-single-stim","290","416457","0.0-5.0-276.0","go-nogo","false","0","","true","<div class = centerbox><div  id = stim1></div></div>","32","32","750","","test","go","276","random","","",""
"","337","32","1379","0","test_block","poldrack-single-stim","291","417867","0.0-5.0-277.0","go-nogo","false","0","","true","<div class = centerbox><div  id = stim1></div></div>","32","32","750","","test","go","277","random","","",""
"","-1","-1","1163","0","test_block","poldrack-single-stim","292","419059","0.0-5.0-278.0","go-nogo","false","0","","true","<div class = centerbox><div  id = stim2></div></div>","-1","32","750","","test","nogo","278","random","","",""
"","-1","-1","1246","0","test_block","poldrack-single-stim","293","420340","0.0-5.0-279.0","go-nogo","false","0","","true","<div class = centerbox><div  id = stim2></div></div>","-1","32","750","","test","nogo","279","random","","",""
"","363","32","1433","0","test_block","poldrack-single-stim","294","421803","0.0-5.0-280.0","go-nogo","false","0","","true","<div class = centerbox><div  id = stim1></div></div>","32","32","750","","test","go","280","random","","",""
"","332","32","1172","0","test_block","poldrack-single-stim","295","423009","0.0-5.0-281.0","go-nogo","false","0","","true","<div class = centerbox><div  id = stim1></div></div>","32","32","750","","test","go","281","random","","",""
"","360","32","1404","0","test_block","poldrack-single-stim","296","424443","0.0-5.0-282.0","go-nogo","false","0","","true","<div class = centerbox><div  id = stim1></div></div>","32","32","750","","test","go","282","random","","",""
"","310","32","1366","0","test_block","poldrack-single-stim","297","425838","0.0-5.0-283.0","go-nogo","false","0","","true","<div class = centerbox><div  id = stim1></div></div>","32","32","750","","test","go","283","random","","",""
"","362","32","1161","0","test_block","poldrack-single-stim","298","427032","0.0-5.0-284.0","go-nogo","false","0","","true","<div class = centerbox><div  id = stim1></div></div>","32","32","750","","test","go","284","random","","",""
"","312","32","1300","0","test_block","poldrack-single-stim","299","428363","0.0-5.0-285.0","go-nogo","false","0","","true","<div class = centerbox><div  id = stim1></div></div>","32","32","750","","test","go","285","random","","",""
"","367","32","1480","0","test_block","poldrack-single-stim","300","429873","0.0-5.0-286.0","go-nogo","false","0","","true","<div class = centerbox><div  id = stim1></div></div>","32","32","750","","test","go","286","random","","",""
"","329","32","1062","0","test_block","poldrack-single-stim","301","430964","0.0-5.0-287.0","go-nogo","false","0","","true","<div class = centerbox><div  id = stim1></div></div>","32","32","750","","test","go","287","random","","",""
"","290","32","1276","0","test_block","poldrack-single-stim","302","432275","0.0-5.0-288.0","go-nogo","false","0","","true","<div class = centerbox><div  id = stim1></div></div>","32","32","750","","test","go","288","random","","",""
"","319","32","1118","0","test_block","poldrack-single-stim","303","433425","0.0-5.0-289.0","go-nogo","false","0","","true","<div class = centerbox><div  id = stim1></div></div>","32","32","750","","test","go","289","random","","",""
"","289","32","1127","0","test_block","poldrack-single-stim","304","434580","0.0-5.0-290.0","go-nogo","false","0","","true","<div class = centerbox><div  id = stim1></div></div>","32","32","750","","test","go","290","random","","",""
"","261","32","1400","0","test_block","poldrack-single-stim","305","436008","0.0-5.0-291.0","go-nogo","false","0","","false","<div class = centerbox><div  id = stim2></div></div>","-1","32","750","","test","nogo","291","random","","",""
"","377","32","1188","0","test_block","poldrack-single-stim","306","437227","0.0-5.0-292.0","go-nogo","false","0","","true","<div class = centerbox><div  id = stim1></div></div>","32","32","750","","test","go","292","random","","",""
"","351","32","1092","0","test_block","poldrack-single-stim","307","438347","0.0-5.0-293.0","go-nogo","false","0","","true","<div class = centerbox><div  id = stim1></div></div>","32","32","750","","test","go","293","random","","",""
"","304","32","1103","0","test_block","poldrack-single-stim","308","439478","0.0-5.0-294.0","go-nogo","false","0","","true","<div class = centerbox><div  id = stim1></div></div>","32","32","750","","test","go","294","random","","",""
"","316","32","1202","0","test_block","poldrack-single-stim","309","440709","0.0-5.0-295.0","go-nogo","false","0","","true","<div class = centerbox><div  id = stim1></div></div>","32","32","750","","test","go","295","random","","",""
"","293","32","1055","0","test_block","poldrack-single-stim","310","441792","0.0-5.0-296.0","go-nogo","false","0","","true","<div class = centerbox><div  id = stim1></div></div>","32","32","750","","test","go","296","random","","",""
"","291","32","1450","0","test_block","poldrack-single-stim","311","443269","0.0-5.0-297.0","go-nogo","false","0","","true","<div class = centerbox><div  id = stim1></div></div>","32","32","750","","test","go","297","random","","",""
"","293","32","1376","0","test_block","poldrack-single-stim","312","444675","0.0-5.0-298.0","go-nogo","false","0","","true","<div class = centerbox><div  id = stim1></div></div>","32","32","750","","test","go","298","random","","",""
"","479","32","1391","0","test_block","poldrack-single-stim","313","446093","0.0-5.0-299.0","go-nogo","false","0","","true","<div class = centerbox><div  id = stim1></div></div>","32","32","750","","test","go","299","random","","",""
"","316","32","1172","0","test_block","poldrack-single-stim","314","447293","0.0-5.0-300.0","go-nogo","false","0","","true","<div class = centerbox><div  id = stim1></div></div>","32","32","750","","test","go","300","random","","",""
"","253","32","1408","0","test_block","poldrack-single-stim","315","448728","0.0-5.0-301.0","go-nogo","false","0","","true","<div class = centerbox><div  id = stim1></div></div>","32","32","750","","test","go","301","random","","",""
"","322","32","1035","0","test_block","poldrack-single-stim","316","449793","0.0-5.0-302.0","go-nogo","false","0","","true","<div class = centerbox><div  id = stim1></div></div>","32","32","750","","test","go","302","random","","",""
"","305","32","1105","0","test_block","poldrack-single-stim","317","450929","0.0-5.0-303.0","go-nogo","false","0","","true","<div class = centerbox><div  id = stim1></div></div>","32","32","750","","test","go","303","random","","",""
"","289","32","1118","0","test_block","poldrack-single-stim","318","452078","0.0-5.0-304.0","go-nogo","false","0","","true","<div class = centerbox><div  id = stim1></div></div>","32","32","750","","test","go","304","random","","",""
"","309","32","1319","0","test_block","poldrack-single-stim","319","453439","0.0-5.0-305.0","go-nogo","false","0","","true","<div class = centerbox><div  id = stim1></div></div>","32","32","750","","test","go","305","random","","",""
"","314","32","1018","0","test_block","poldrack-single-stim","320","454486","0.0-5.0-306.0","go-nogo","false","0","","true","<div class = centerbox><div  id = stim1></div></div>","32","32","750","","test","go","306","random","","",""
"","317","32","1000","0","test_block","poldrack-single-stim","321","455757","0.0-5.0-307.0","go-nogo","false","1","","true","<div class = centerbox><div  id = stim1></div></div>","32","32","750","","test","go","307","random","","",""
"","-1","-1","1041","0","test_block","poldrack-single-stim","322","457179","0.0-5.0-308.0","go-nogo","false","0","","false","<div class = centerbox><div  id = stim1></div></div>","32","32","750","","test","go","308","random","","",""
"","-1","-1","1229","0","test_block","poldrack-single-stim","323","459102","0.0-5.0-309.0","go-nogo","false","0","","true","<div class = centerbox><div  id = stim2></div></div>","-1","32","750","","test","nogo","309","random","","",""
"","-1","-1","1143","0","test_block","poldrack-single-stim","324","461009","0.0-5.0-310.0","go-nogo","false","0","","false","<div class = centerbox><div  id = stim1></div></div>","32","32","750","","test","go","310","random","","",""
"","-1","-1","1181","0","test_block","poldrack-single-stim","325","463051","0.0-5.0-311.0","go-nogo","false","0","","false","<div class = centerbox><div  id = stim1></div></div>","32","32","750","","test","go","311","random","","",""
"","-1","-1","1398","0","test_block","poldrack-single-stim","326","465079","0.0-5.0-312.0","go-nogo","false","0","","false","<div class = centerbox><div  id = stim1></div></div>","32","32","750","","test","go","312","random","","",""
"","-1","-1","1443","0","test_block","poldrack-single-stim","327","467220","0.0-5.0-313.0","go-nogo","false","0","","false","<div class = centerbox><div  id = stim1></div></div>","32","32","750","","test","go","313","random","","",""
"","-1","-1","1350","0","test_block","poldrack-single-stim","328","468906","0.0-5.0-314.0","go-nogo","false","0","","false","<div class = centerbox><div  id = stim1></div></div>","32","32","750","","test","go","314","random","","",""
"","-1","-1","1269","0","test_block","poldrack-single-stim","329","471012","0.0-5.0-315.0","go-nogo","false","0","","false","<div class = centerbox><div  id = stim1></div></div>","32","32","750","","test","go","315","random","","",""
"","-1","-1","1175","0","test_block","poldrack-single-stim","330","473032","0.0-5.0-316.0","go-nogo","false","0","","false","<div class = centerbox><div  id = stim1></div></div>","32","32","750","","test","go","316","random","","",""
"","-1","-1","1212","0","test_block","poldrack-single-stim","331","475013","0.0-5.0-317.0","go-nogo","false","0","","false","<div class = centerbox><div  id = stim1></div></div>","32","32","750","","test","go","317","random","","",""
"","-1","-1","1025","0","test_block","poldrack-single-stim","332","476089","0.0-5.0-318.0","go-nogo","false","0","","false","<div class = centerbox><div  id = stim1></div></div>","32","32","750","","test","go","318","random","","",""
"","-1","-1","1478","0","test_block","poldrack-single-stim","333","478098","0.0-5.0-319.0","go-nogo","false","0","","false","<div class = centerbox><div  id = stim1></div></div>","32","32","750","","test","go","319","random","","",""
"","-1","-1","1068","0","test_block","poldrack-single-stim","334","480038","0.0-5.0-320.0","go-nogo","false","0","","false","<div class = centerbox><div  id = stim1></div></div>","32","32","750","","test","go","320","random","","",""
"","-1","-1","1457","0","test_block","poldrack-single-stim","335","481938","0.0-5.0-321.0","go-nogo","false","0","","false","<div class = centerbox><div  id = stim1></div></div>","32","32","750","","test","go","321","random","","",""
"","831","32","1152","0","test_block","poldrack-single-stim","336","483151","0.0-5.0-322.0","go-nogo","false","0","","true","<div class = centerbox><div  id = stim1></div></div>","32","32","750","","test","go","322","random","","",""
"","291","32","1445","0","test_block","poldrack-single-stim","337","484624","0.0-5.0-323.0","go-nogo","false","0","","true","<div class = centerbox><div  id = stim1></div></div>","32","32","750","","test","go","323","random","","",""
"","283","32","1009","0","test_block","poldrack-single-stim","338","485665","0.0-5.0-324.0","go-nogo","false","0","","true","<div class = centerbox><div  id = stim1></div></div>","32","32","750","","test","go","324","random","","",""
"","321","32","1096","0","test_block","poldrack-single-stim","339","486791","0.0-5.0-325.0","go-nogo","false","0","","true","<div class = centerbox><div  id = stim1></div></div>","32","32","750","","test","go","325","random","","",""
"","-1","-1","1018","0","test_block","poldrack-single-stim","340","487842","0.0-5.0-326.0","go-nogo","false","0","","false","<div class = centerbox><div  id = stim1></div></div>","32","32","750","","test","go","326","random","","",""
"","-1","-1","1259","0","test_block","poldrack-single-stim","341","489129","0.0-5.0-327.0","go-nogo","false","0","","false","<div class = centerbox><div  id = stim1></div></div>","32","32","750","","test","go","327","random","","",""
"","33","32","1175","0","test_block","poldrack-single-stim","342","490332","0.0-5.0-328.0","go-nogo","false","0","","true","<div class = centerbox><div  id = stim1></div></div>","32","32","750","","test","go","328","random","","",""
"","516","32","1217","0","test_block","poldrack-single-stim","343","491580","0.0-5.0-329.0","go-nogo","false","0","","true","<div class = centerbox><div  id = stim1></div></div>","32","32","750","","test","go","329","random","","",""
"","685","32","1302","0","test_block","poldrack-single-stim","344","492915","0.0-5.0-330.0","go-nogo","false","0","","true","<div class = centerbox><div  id = stim1></div></div>","32","32","750","","test","go","330","random","","",""
"","629","32","1425","0","test_block","poldrack-single-stim","345","494372","0.0-5.0-331.0","go-nogo","false","0","","true","<div class = centerbox><div  id = stim1></div></div>","32","32","750","","test","go","331","random","","",""
"","493","32","1334","0","test_block","poldrack-single-stim","346","495737","0.0-5.0-332.0","go-nogo","false","0","","true","<div class = centerbox><div  id = stim1></div></div>","32","32","750","","test","go","332","random","","",""
"","-1","-1","1163","0","test_block","poldrack-single-stim","347","496929","0.0-5.0-333.0","go-nogo","false","0","","false","<div class = centerbox><div  id = stim1></div></div>","32","32","750","","test","go","333","random","","",""
"","729","32","1168","0","test_block","poldrack-single-stim","348","498125","0.0-5.0-334.0","go-nogo","false","0","","true","<div class = centerbox><div  id = stim1></div></div>","32","32","750","","test","go","334","random","","",""
"","1013","32","1298","0","test_block","poldrack-single-stim","349","499456","0.0-5.0-335.0","go-nogo","false","0","","true","<div class = centerbox><div  id = stim1></div></div>","32","32","750","","test","go","335","random","","",""
"","-1","-1","1028","0","test_block","poldrack-single-stim","350","500514","0.0-5.0-336.0","go-nogo","false","0","","false","<div class = centerbox><div  id = stim1></div></div>","32","32","750","","test","go","336","random","","",""
"","769","32","1254","0","test_block","poldrack-single-stim","351","501799","0.0-5.0-337.0","go-nogo","false","0","","true","<div class = centerbox><div  id = stim1></div></div>","32","32","750","","test","go","337","random","","",""
"","329","32","1207","0","test_block","poldrack-single-stim","352","503040","0.0-5.0-338.0","go-nogo","false","0","","true","<div class = centerbox><div  id = stim1></div></div>","32","32","750","","test","go","338","random","","",""
"","-1","-1","1471","0","test_block","poldrack-single-stim","353","504543","0.0-5.0-339.0","go-nogo","false","0","","false","<div class = centerbox><div  id = stim1></div></div>","32","32","750","","test","go","339","random","","",""
"","276","32","1145","0","test_block","poldrack-single-stim","354","505716","0.0-5.0-340.0","go-nogo","false","0","","true","<div class = centerbox><div  id = stim1></div></div>","32","32","750","","test","go","340","random","","",""
"","1163","32","1340","0","test_block","poldrack-single-stim","355","507088","0.0-5.0-341.0","go-nogo","false","0","","true","<div class = centerbox><div  id = stim1></div></div>","32","32","750","","test","go","341","random","","",""
"","409","32","1241","0","test_block","poldrack-single-stim","356","508363","0.0-5.0-342.0","go-nogo","false","0","","true","<div class = centerbox><div  id = stim1></div></div>","32","32","750","","test","go","342","random","","",""
"","888","32","1091","0","test_block","poldrack-single-stim","357","509483","0.0-5.0-343.0","go-nogo","false","0","","true","<div class = centerbox><div  id = stim1></div></div>","32","32","750","","test","go","343","random","","",""
"","367","32","1438","0","test_block","poldrack-single-stim","358","510952","0.0-5.0-344.0","go-nogo","false","0","","true","<div class = centerbox><div  id = stim1></div></div>","32","32","750","","test","go","344","random","","",""
"","283","32","1248","0","test_block","poldrack-single-stim","359","512229","0.0-5.0-345.0","go-nogo","false","0","","false","<div class = centerbox><div  id = stim2></div></div>","-1","32","750","","test","nogo","345","random","","",""
"","328","32","1076","0","test_block","poldrack-single-stim","360","513332","0.0-5.0-346.0","go-nogo","false","0","","true","<div class = centerbox><div  id = stim1></div></div>","32","32","750","","test","go","346","random","","",""
"","320","32","1295","0","test_block","poldrack-single-stim","361","514655","0.0-5.0-347.0","go-nogo","false","0","","true","<div class = centerbox><div  id = stim1></div></div>","32","32","750","","test","go","347","random","","",""
"","-1","-1","1238","0","test_block","poldrack-single-stim","362","515921","0.0-5.0-348.0","go-nogo","false","0","","true","<div class = centerbox><div  id = stim2></div></div>","-1","32","750","","test","nogo","348","random","","",""
"","426","32","1183","0","test_block","poldrack-single-stim","363","517134","0.0-5.0-349.0","go-nogo","false","0","","true","<div class = centerbox><div  id = stim1></div></div>","32","32","750","","test","go","349","random","","",""
"","48232","","","","post task questions","survey-text","364","565397","0.0-7.0","go-nogo","false","0","","","","","","","","","","","","{""Q0"":""click space bar if an orange square appears"",""Q1"":""none""}","",""
"<div class = centerbox><p class = center-block-text>Thanks for completing this task!</p><p class = center-block-text>Insert the following code to collect your payment at Amazon Mechanical Turk:</p><p class = center-block-text>241074317</p><p class = center-block-text>Press <strong>enter</strong> to continue.</p></div>","11873","13","11873","0","end","poldrack-text","365","578271","0.0-8.0","go-nogo","false","1","","","","","","","","","","","","","241074317","true"
