"text","rt","key_press","block_duration","timing_post_trial","trial_id","trial_type","trial_index","time_elapsed","internal_node_id","exp_id","full_screen","focus_shifts","view_history","correct","stimulus","correct_response","possible_responses","stim_duration","feedback_duration","exp_stage","condition","trial_num","mode","responses","payment_id","credit_var"
"<div class = centerbox><p class = center-block-text>Welcome to the experiment. This task will take around 10 minutes. Press <strong>enter</strong> to begin.</p></div>","128805","13","128805","0","instruction","poldrack-text","0","128808","0.0-0.0-0.0","go-nogo","true","0","","","","","","","","","","","","","",""
"","2682","","","","instruction","poldrack-instructions","1","131492","0.0-0.0-1.0","go-nogo","true","0","[{""page_index"":0,""viewing_time"":2680}]","","","","","","","","","","","","",""
"","-1","-1","1376","250","practice","poldrack-categorize","2","134876","0.0-1.0-0.0","go-nogo","true","0","","true","<div class = centerbox><div id = stim2></div></div>","-1","32","750","1000","practice","nogo","0","random","","",""
"","-1","-1","1323","250","practice","poldrack-categorize","3","137454","0.0-1.0-1.0","go-nogo","true","0","","false","<div class = centerbox><div  id = stim1></div></div>","32","32","750","1000","practice","go","1","random","","",""
"","-1","-1","1014","250","practice","poldrack-categorize","4","139723","0.0-1.0-2.0","go-nogo","true","0","","true","<div class = centerbox><div id = stim2></div></div>","-1","32","750","1000","practice","nogo","2","random","","",""
"","-1","-1","1447","250","practice","poldrack-categorize","5","142424","0.0-1.0-3.0","go-nogo","true","0","","false","<div class = centerbox><div  id = stim1></div></div>","32","32","750","1000","practice","go","3","random","","",""
"","1053","32","1346","250","practice","poldrack-categorize","6","145024","0.0-1.0-4.0","go-nogo","true","0","","true","<div class = centerbox><div  id = stim1></div></div>","32","32","750","1000","practice","go","4","random","","",""
"","500","32","1034","250","practice","poldrack-categorize","7","147316","0.0-1.0-5.0","go-nogo","true","0","","false","<div class = centerbox><div id = stim2></div></div>","-1","32","750","1000","practice","nogo","5","random","","",""
"","353","32","1116","250","practice","poldrack-categorize","8","149685","0.0-1.0-6.0","go-nogo","true","0","","true","<div class = centerbox><div  id = stim1></div></div>","32","32","750","1000","practice","go","6","random","","",""
"","432","32","1133","250","practice","poldrack-categorize","9","152071","0.0-1.0-7.0","go-nogo","true","0","","true","<div class = centerbox><div  id = stim1></div></div>","32","32","750","1000","practice","go","7","random","","",""
"","612","32","1208","250","practice","poldrack-categorize","10","154534","0.0-1.0-8.0","go-nogo","true","0","","false","<div class = centerbox><div id = stim2></div></div>","-1","32","750","1000","practice","nogo","8","random","","",""
"","-1","-1","1112","250","practice","poldrack-categorize","11","156900","0.0-1.0-9.0","go-nogo","true","0","","true","<div class = centerbox><div id = stim2></div></div>","-1","32","750","1000","practice","nogo","9","random","","",""
"","","","","","reset_trial","call-function","12","157151","0.0-3.0","go-nogo","true","0","","","","","","","","","","","","","",""
"<div class = centerbox><p class = block-text>Practice is over, we will now begin the experiment. You will no longer get feedback about your responses.</p><p class = block-text>Remember, if you see the <font color=""orange"">orange</font> square you should <strong> respond by pressing the spacebar as quickly as possible</strong>. If you see the <font color=""blue"">blue</font> square you should <strong> not respond</strong>. Press <strong>enter</strong> to begin.</p></div>","9994","13","9994","1000","test_intro","poldrack-text","13","167145","0.0-4.0","go-nogo","true","0","","","","","","","","","","","","","",""
"","-1","-1","1069","0","test_block","poldrack-single-stim","14","169217","0.0-5.0-0.0","go-nogo","true","0","","false","<div class = centerbox><div  id = stim1></div></div>","32","32","750","","test","go","0","random","","",""
"","928","32","1391","0","test_block","poldrack-single-stim","15","170648","0.0-5.0-1.0","go-nogo","true","0","","true","<div class = centerbox><div  id = stim1></div></div>","32","32","750","","test","go","1","random","","",""
"","655","32","1489","0","test_block","poldrack-single-stim","16","172163","0.0-5.0-2.0","go-nogo","true","0","","true","<div class = centerbox><div  id = stim1></div></div>","32","32","750","","test","go","2","random","","",""
"","575","32","1392","0","test_block","poldrack-single-stim","17","173578","0.0-5.0-3.0","go-nogo","true","0","","true","<div class = centerbox><div  id = stim1></div></div>","32","32","750","","test","go","3","random","","",""
"","-1","-1","1283","0","test_block","poldrack-single-stim","18","174886","0.0-5.0-4.0","go-nogo","true","0","","true","<div class = centerbox><div  id = stim2></div></div>","-1","32","750","","test","nogo","4","random","","",""
"","-1","-1","1200","0","test_block","poldrack-single-stim","19","176114","0.0-5.0-5.0","go-nogo","true","0","","false","<div class = centerbox><div  id = stim1></div></div>","32","32","750","","test","go","5","random","","",""
"","-1","-1","1470","0","test_block","poldrack-single-stim","20","177604","0.0-5.0-6.0","go-nogo","true","0","","false","<div class = centerbox><div  id = stim1></div></div>","32","32","750","","test","go","6","random","","",""
"","865","32","1104","0","test_block","poldrack-single-stim","21","178736","0.0-5.0-7.0","go-nogo","true","0","","true","<div class = centerbox><div  id = stim1></div></div>","32","32","750","","test","go","7","random","","",""
"","392","32","1378","0","test_block","poldrack-single-stim","22","180138","0.0-5.0-8.0","go-nogo","true","0","","true","<div class = centerbox><div  id = stim1></div></div>","32","32","750","","test","go","8","random","","",""
"","422","32","1443","0","test_block","poldrack-single-stim","23","181597","0.0-5.0-9.0","go-nogo","true","0","","true","<div class = centerbox><div  id = stim1></div></div>","32","32","750","","test","go","9","random","","",""
"","440","32","1347","0","test_block","poldrack-single-stim","24","182964","0.0-5.0-10.0","go-nogo","true","0","","true","<div class = centerbox><div  id = stim1></div></div>","32","32","750","","test","go","10","random","","",""
"","357","32","1274","0","test_block","poldrack-single-stim","25","184253","0.0-5.0-11.0","go-nogo","true","0","","true","<div class = centerbox><div  id = stim1></div></div>","32","32","750","","test","go","11","random","","",""
"","-1","-1","1467","0","test_block","poldrack-single-stim","26","185741","0.0-5.0-12.0","go-nogo","true","0","","true","<div class = centerbox><div  id = stim2></div></div>","-1","32","750","","test","nogo","12","random","","",""
"","513","32","1053","0","test_block","poldrack-single-stim","27","186809","0.0-5.0-13.0","go-nogo","true","0","","true","<div class = centerbox><div  id = stim1></div></div>","32","32","750","","test","go","13","random","","",""
"","523","32","1335","0","test_block","poldrack-single-stim","28","188157","0.0-5.0-14.0","go-nogo","true","0","","true","<div class = centerbox><div  id = stim1></div></div>","32","32","750","","test","go","14","random","","",""
"","384","32","1475","0","test_block","poldrack-single-stim","29","189653","0.0-5.0-15.0","go-nogo","true","0","","true","<div class = centerbox><div  id = stim1></div></div>","32","32","750","","test","go","15","random","","",""
"","423","32","1094","0","test_block","poldrack-single-stim","30","190761","0.0-5.0-16.0","go-nogo","true","0","","true","<div class = centerbox><div  id = stim1></div></div>","32","32","750","","test","go","16","random","","",""
"","585","32","1330","0","test_block","poldrack-single-stim","31","192107","0.0-5.0-17.0","go-nogo","true","0","","true","<div class = centerbox><div  id = stim1></div></div>","32","32","750","","test","go","17","random","","",""
"","378","32","1189","0","test_block","poldrack-single-stim","32","193309","0.0-5.0-18.0","go-nogo","true","0","","false","<div class = centerbox><div  id = stim2></div></div>","-1","32","750","","test","nogo","18","random","","",""
"","528","32","1143","0","test_block","poldrack-single-stim","33","194464","0.0-5.0-19.0","go-nogo","true","0","","true","<div class = centerbox><div  id = stim1></div></div>","32","32","750","","test","go","19","random","","",""
"","406","32","1459","0","test_block","poldrack-single-stim","34","195935","0.0-5.0-20.0","go-nogo","true","0","","true","<div class = centerbox><div  id = stim1></div></div>","32","32","750","","test","go","20","random","","",""
"","333","32","1489","0","test_block","poldrack-single-stim","35","197437","0.0-5.0-21.0","go-nogo","true","0","","true","<div class = centerbox><div  id = stim1></div></div>","32","32","750","","test","go","21","random","","",""
"","388","32","1345","0","test_block","poldrack-single-stim","36","198813","0.0-5.0-22.0","go-nogo","true","0","","true","<div class = centerbox><div  id = stim1></div></div>","32","32","750","","test","go","22","random","","",""
"","386","32","1432","0","test_block","poldrack-single-stim","37","200255","0.0-5.0-23.0","go-nogo","true","0","","true","<div class = centerbox><div  id = stim1></div></div>","32","32","750","","test","go","23","random","","",""
"","365","32","1216","0","test_block","poldrack-single-stim","38","201484","0.0-5.0-24.0","go-nogo","true","0","","true","<div class = centerbox><div  id = stim1></div></div>","32","32","750","","test","go","24","random","","",""
"","326","32","1374","0","test_block","poldrack-single-stim","39","202873","0.0-5.0-25.0","go-nogo","true","0","","true","<div class = centerbox><div  id = stim1></div></div>","32","32","750","","test","go","25","random","","",""
"","339","32","1428","0","test_block","poldrack-single-stim","40","204314","0.0-5.0-26.0","go-nogo","true","0","","true","<div class = centerbox><div  id = stim1></div></div>","32","32","750","","test","go","26","random","","",""
"","323","32","1331","0","test_block","poldrack-single-stim","41","205657","0.0-5.0-27.0","go-nogo","true","0","","true","<div class = centerbox><div  id = stim1></div></div>","32","32","750","","test","go","27","random","","",""
"","411","32","1129","0","test_block","poldrack-single-stim","42","206799","0.0-5.0-28.0","go-nogo","true","0","","true","<div class = centerbox><div  id = stim1></div></div>","32","32","750","","test","go","28","random","","",""
"","347","32","1385","0","test_block","poldrack-single-stim","43","208200","0.0-5.0-29.0","go-nogo","true","0","","true","<div class = centerbox><div  id = stim1></div></div>","32","32","750","","test","go","29","random","","",""
"","301","32","1474","0","test_block","poldrack-single-stim","44","209702","0.0-5.0-30.0","go-nogo","true","0","","true","<div class = centerbox><div  id = stim1></div></div>","32","32","750","","test","go","30","random","","",""
"","303","32","1263","0","test_block","poldrack-single-stim","45","210978","0.0-5.0-31.0","go-nogo","true","0","","true","<div class = centerbox><div  id = stim1></div></div>","32","32","750","","test","go","31","random","","",""
"","330","32","1409","0","test_block","poldrack-single-stim","46","212400","0.0-5.0-32.0","go-nogo","true","0","","true","<div class = centerbox><div  id = stim1></div></div>","32","32","750","","test","go","32","random","","",""
"","-1","-1","1123","0","test_block","poldrack-single-stim","47","213534","0.0-5.0-33.0","go-nogo","true","0","","false","<div class = centerbox><div  id = stim1></div></div>","32","32","750","","test","go","33","random","","",""
"","580","32","1015","0","test_block","poldrack-single-stim","48","214557","0.0-5.0-34.0","go-nogo","true","0","","true","<div class = centerbox><div  id = stim1></div></div>","32","32","750","","test","go","34","random","","",""
"","-1","-1","1421","0","test_block","poldrack-single-stim","49","215990","0.0-5.0-35.0","go-nogo","true","0","","true","<div class = centerbox><div  id = stim2></div></div>","-1","32","750","","test","nogo","35","random","","",""
"","318","32","1308","0","test_block","poldrack-single-stim","50","217311","0.0-5.0-36.0","go-nogo","true","0","","true","<div class = centerbox><div  id = stim1></div></div>","32","32","750","","test","go","36","random","","",""
"","302","32","1085","0","test_block","poldrack-single-stim","51","218409","0.0-5.0-37.0","go-nogo","true","0","","true","<div class = centerbox><div  id = stim1></div></div>","32","32","750","","test","go","37","random","","",""
"","448","32","1262","0","test_block","poldrack-single-stim","52","219679","0.0-5.0-38.0","go-nogo","true","0","","true","<div class = centerbox><div  id = stim1></div></div>","32","32","750","","test","go","38","random","","",""
"","365","32","1145","0","test_block","poldrack-single-stim","53","220837","0.0-5.0-39.0","go-nogo","true","0","","true","<div class = centerbox><div  id = stim1></div></div>","32","32","750","","test","go","39","random","","",""
"","374","32","1261","0","test_block","poldrack-single-stim","54","222109","0.0-5.0-40.0","go-nogo","true","0","","true","<div class = centerbox><div  id = stim1></div></div>","32","32","750","","test","go","40","random","","",""
"","321","32","1483","0","test_block","poldrack-single-stim","55","223603","0.0-5.0-41.0","go-nogo","true","0","","true","<div class = centerbox><div  id = stim1></div></div>","32","32","750","","test","go","41","random","","",""
"","363","32","1403","0","test_block","poldrack-single-stim","56","225017","0.0-5.0-42.0","go-nogo","true","0","","true","<div class = centerbox><div  id = stim1></div></div>","32","32","750","","test","go","42","random","","",""
"","434","32","1358","0","test_block","poldrack-single-stim","57","226390","0.0-5.0-43.0","go-nogo","true","0","","true","<div class = centerbox><div  id = stim1></div></div>","32","32","750","","test","go","43","random","","",""
"","355","32","1276","0","test_block","poldrack-single-stim","58","227683","0.0-5.0-44.0","go-nogo","true","0","","true","<div class = centerbox><div  id = stim1></div></div>","32","32","750","","test","go","44","random","","",""
"","-1","-1","1097","0","test_block","poldrack-single-stim","59","228796","0.0-5.0-45.0","go-nogo","true","0","","false","<div class = centerbox><div  id = stim1></div></div>","32","32","750","","test","go","45","random","","",""
"","244","32","1436","0","test_block","poldrack-single-stim","60","230241","0.0-5.0-46.0","go-nogo","true","0","","true","<div class = centerbox><div  id = stim1></div></div>","32","32","750","","test","go","46","random","","",""
"","877","32","1430","0","test_block","poldrack-single-stim","61","231682","0.0-5.0-47.0","go-nogo","true","0","","false","<div class = centerbox><div  id = stim2></div></div>","-1","32","750","","test","nogo","47","random","","",""
"","-1","-1","1247","0","test_block","poldrack-single-stim","62","232939","0.0-5.0-48.0","go-nogo","true","0","","false","<div class = centerbox><div  id = stim1></div></div>","32","32","750","","test","go","48","random","","",""
"","637","32","1220","0","test_block","poldrack-single-stim","63","234168","0.0-5.0-49.0","go-nogo","true","0","","true","<div class = centerbox><div  id = stim1></div></div>","32","32","750","","test","go","49","random","","",""
"","466","32","1213","0","test_block","poldrack-single-stim","64","235396","0.0-5.0-50.0","go-nogo","true","0","","true","<div class = centerbox><div  id = stim1></div></div>","32","32","750","","test","go","50","random","","",""
"","-1","-1","1157","0","test_block","poldrack-single-stim","65","236564","0.0-5.0-51.0","go-nogo","true","0","","false","<div class = centerbox><div  id = stim1></div></div>","32","32","750","","test","go","51","random","","",""
"","-1","-1","1406","0","test_block","poldrack-single-stim","66","237980","0.0-5.0-52.0","go-nogo","true","0","","true","<div class = centerbox><div  id = stim2></div></div>","-1","32","750","","test","nogo","52","random","","",""
"","-1","-1","1380","0","test_block","poldrack-single-stim","67","239370","0.0-5.0-53.0","go-nogo","true","0","","false","<div class = centerbox><div  id = stim1></div></div>","32","32","750","","test","go","53","random","","",""
"","678","32","1238","0","test_block","poldrack-single-stim","68","240626","0.0-5.0-54.0","go-nogo","true","0","","true","<div class = centerbox><div  id = stim1></div></div>","32","32","750","","test","go","54","random","","",""
"","550","32","1037","0","test_block","poldrack-single-stim","69","241672","0.0-5.0-55.0","go-nogo","true","0","","true","<div class = centerbox><div  id = stim1></div></div>","32","32","750","","test","go","55","random","","",""
"","505","32","1421","0","test_block","poldrack-single-stim","70","243101","0.0-5.0-56.0","go-nogo","true","0","","true","<div class = centerbox><div  id = stim1></div></div>","32","32","750","","test","go","56","random","","",""
"","-1","-1","1140","0","test_block","poldrack-single-stim","71","244251","0.0-5.0-57.0","go-nogo","true","0","","true","<div class = centerbox><div  id = stim2></div></div>","-1","32","750","","test","nogo","57","random","","",""
"","484","32","1112","0","test_block","poldrack-single-stim","72","245372","0.0-5.0-58.0","go-nogo","true","0","","true","<div class = centerbox><div  id = stim1></div></div>","32","32","750","","test","go","58","random","","",""
"","835","32","1237","0","test_block","poldrack-single-stim","73","246620","0.0-5.0-59.0","go-nogo","true","0","","true","<div class = centerbox><div  id = stim1></div></div>","32","32","750","","test","go","59","random","","",""
"","435","32","1150","0","test_block","poldrack-single-stim","74","247780","0.0-5.0-60.0","go-nogo","true","0","","true","<div class = centerbox><div  id = stim1></div></div>","32","32","750","","test","go","60","random","","",""
"","255","32","1025","0","test_block","poldrack-single-stim","75","248810","0.0-5.0-61.0","go-nogo","true","0","","true","<div class = centerbox><div  id = stim1></div></div>","32","32","750","","test","go","61","random","","",""
"","86","32","1392","0","test_block","poldrack-single-stim","76","250211","0.0-5.0-62.0","go-nogo","true","0","","true","<div class = centerbox><div  id = stim1></div></div>","32","32","750","","test","go","62","random","","",""
"","348","32","1007","0","test_block","poldrack-single-stim","77","251229","0.0-5.0-63.0","go-nogo","true","0","","true","<div class = centerbox><div  id = stim1></div></div>","32","32","750","","test","go","63","random","","",""
"","-1","-1","1006","0","test_block","poldrack-single-stim","78","252256","0.0-5.0-64.0","go-nogo","true","0","","true","<div class = centerbox><div  id = stim2></div></div>","-1","32","750","","test","nogo","64","random","","",""
"","434","32","1037","0","test_block","poldrack-single-stim","79","253301","0.0-5.0-65.0","go-nogo","true","0","","true","<div class = centerbox><div  id = stim1></div></div>","32","32","750","","test","go","65","random","","",""
"","327","32","1251","0","test_block","poldrack-single-stim","80","254565","0.0-5.0-66.0","go-nogo","true","0","","true","<div class = centerbox><div  id = stim1></div></div>","32","32","750","","test","go","66","random","","",""
"","411","32","1122","0","test_block","poldrack-single-stim","81","255696","0.0-5.0-67.0","go-nogo","true","0","","true","<div class = centerbox><div  id = stim1></div></div>","32","32","750","","test","go","67","random","","",""
"","368","32","1074","0","test_block","poldrack-single-stim","82","256779","0.0-5.0-68.0","go-nogo","true","0","","true","<div class = centerbox><div  id = stim1></div></div>","32","32","750","","test","go","68","random","","",""
"","182","32","1176","0","test_block","poldrack-single-stim","83","257972","0.0-5.0-69.0","go-nogo","true","0","","true","<div class = centerbox><div  id = stim1></div></div>","32","32","750","","test","go","69","random","","",""
"","407","32","1153","0","test_block","poldrack-single-stim","84","259138","0.0-5.0-70.0","go-nogo","true","0","","true","<div class = centerbox><div  id = stim1></div></div>","32","32","750","","test","go","70","random","","",""
"","352","32","1409","0","test_block","poldrack-single-stim","85","260554","0.0-5.0-71.0","go-nogo","true","0","","true","<div class = centerbox><div  id = stim1></div></div>","32","32","750","","test","go","71","random","","",""
"","-1","-1","1230","0","test_block","poldrack-single-stim","86","261794","0.0-5.0-72.0","go-nogo","true","0","","true","<div class = centerbox><div  id = stim2></div></div>","-1","32","750","","test","nogo","72","random","","",""
"","348","32","1032","0","test_block","poldrack-single-stim","87","262838","0.0-5.0-73.0","go-nogo","true","0","","true","<div class = centerbox><div  id = stim1></div></div>","32","32","750","","test","go","73","random","","",""
"","378","32","1050","0","test_block","poldrack-single-stim","88","263899","0.0-5.0-74.0","go-nogo","true","0","","true","<div class = centerbox><div  id = stim1></div></div>","32","32","750","","test","go","74","random","","",""
"","-1","-1","1158","0","test_block","poldrack-single-stim","89","265065","0.0-5.0-75.0","go-nogo","true","0","","false","<div class = centerbox><div  id = stim1></div></div>","32","32","750","","test","go","75","random","","",""
"","327","32","1366","0","test_block","poldrack-single-stim","90","266441","0.0-5.0-76.0","go-nogo","true","0","","true","<div class = centerbox><div  id = stim1></div></div>","32","32","750","","test","go","76","random","","",""
"","306","32","1085","0","test_block","poldrack-single-stim","91","267533","0.0-5.0-77.0","go-nogo","true","0","","true","<div class = centerbox><div  id = stim1></div></div>","32","32","750","","test","go","77","random","","",""
"","1131","32","1433","0","test_block","poldrack-single-stim","92","268975","0.0-5.0-78.0","go-nogo","true","0","","true","<div class = centerbox><div  id = stim1></div></div>","32","32","750","","test","go","78","random","","",""
"","459","32","1383","0","test_block","poldrack-single-stim","93","270366","0.0-5.0-79.0","go-nogo","true","0","","true","<div class = centerbox><div  id = stim1></div></div>","32","32","750","","test","go","79","random","","",""
"","284","32","1423","0","test_block","poldrack-single-stim","94","271797","0.0-5.0-80.0","go-nogo","true","0","","true","<div class = centerbox><div  id = stim1></div></div>","32","32","750","","test","go","80","random","","",""
"","307","32","1307","0","test_block","poldrack-single-stim","95","273113","0.0-5.0-81.0","go-nogo","true","0","","true","<div class = centerbox><div  id = stim1></div></div>","32","32","750","","test","go","81","random","","",""
"","328","32","1235","0","test_block","poldrack-single-stim","96","274357","0.0-5.0-82.0","go-nogo","true","0","","true","<div class = centerbox><div  id = stim1></div></div>","32","32","750","","test","go","82","random","","",""
"","282","32","1285","0","test_block","poldrack-single-stim","97","275652","0.0-5.0-83.0","go-nogo","true","0","","true","<div class = centerbox><div  id = stim1></div></div>","32","32","750","","test","go","83","random","","",""
"","277","32","1456","0","test_block","poldrack-single-stim","98","277116","0.0-5.0-84.0","go-nogo","true","0","","false","<div class = centerbox><div  id = stim2></div></div>","-1","32","750","","test","nogo","84","random","","",""
"","300","32","1327","0","test_block","poldrack-single-stim","99","278452","0.0-5.0-85.0","go-nogo","true","0","","true","<div class = centerbox><div  id = stim1></div></div>","32","32","750","","test","go","85","random","","",""
"","387","32","1182","0","test_block","poldrack-single-stim","100","279644","0.0-5.0-86.0","go-nogo","true","0","","true","<div class = centerbox><div  id = stim1></div></div>","32","32","750","","test","go","86","random","","",""
"","348","32","1322","0","test_block","poldrack-single-stim","101","280975","0.0-5.0-87.0","go-nogo","true","0","","true","<div class = centerbox><div  id = stim1></div></div>","32","32","750","","test","go","87","random","","",""
"","346","32","1415","0","test_block","poldrack-single-stim","102","282398","0.0-5.0-88.0","go-nogo","true","0","","true","<div class = centerbox><div  id = stim1></div></div>","32","32","750","","test","go","88","random","","",""
"","421","32","1144","0","test_block","poldrack-single-stim","103","283547","0.0-5.0-89.0","go-nogo","true","0","","true","<div class = centerbox><div  id = stim1></div></div>","32","32","750","","test","go","89","random","","",""
"","765","32","1015","0","test_block","poldrack-single-stim","104","284571","0.0-5.0-90.0","go-nogo","true","0","","true","<div class = centerbox><div  id = stim1></div></div>","32","32","750","","test","go","90","random","","",""
"","551","32","1002","0","test_block","poldrack-single-stim","105","285580","0.0-5.0-91.0","go-nogo","true","0","","true","<div class = centerbox><div  id = stim1></div></div>","32","32","750","","test","go","91","random","","",""
"","525","32","1301","0","test_block","poldrack-single-stim","106","286889","0.0-5.0-92.0","go-nogo","true","0","","true","<div class = centerbox><div  id = stim1></div></div>","32","32","750","","test","go","92","random","","",""
"","328","32","1079","0","test_block","poldrack-single-stim","107","287977","0.0-5.0-93.0","go-nogo","true","0","","true","<div class = centerbox><div  id = stim1></div></div>","32","32","750","","test","go","93","random","","",""
"","345","32","1036","0","test_block","poldrack-single-stim","108","289021","0.0-5.0-94.0","go-nogo","true","0","","true","<div class = centerbox><div  id = stim1></div></div>","32","32","750","","test","go","94","random","","",""
"","359","32","1144","0","test_block","poldrack-single-stim","109","290170","0.0-5.0-95.0","go-nogo","true","0","","true","<div class = centerbox><div  id = stim1></div></div>","32","32","750","","test","go","95","random","","",""
"","382","32","1426","0","test_block","poldrack-single-stim","110","291606","0.0-5.0-96.0","go-nogo","true","0","","true","<div class = centerbox><div  id = stim1></div></div>","32","32","750","","test","go","96","random","","",""
"","365","32","1162","0","test_block","poldrack-single-stim","111","292775","0.0-5.0-97.0","go-nogo","true","0","","true","<div class = centerbox><div  id = stim1></div></div>","32","32","750","","test","go","97","random","","",""
"","362","32","1214","0","test_block","poldrack-single-stim","112","293997","0.0-5.0-98.0","go-nogo","true","0","","true","<div class = centerbox><div  id = stim1></div></div>","32","32","750","","test","go","98","random","","",""
"","384","32","1017","0","test_block","poldrack-single-stim","113","295026","0.0-5.0-99.0","go-nogo","true","0","","true","<div class = centerbox><div  id = stim1></div></div>","32","32","750","","test","go","99","random","","",""
"","415","32","1237","0","test_block","poldrack-single-stim","114","296272","0.0-5.0-100.0","go-nogo","true","0","","true","<div class = centerbox><div  id = stim1></div></div>","32","32","750","","test","go","100","random","","",""
"","258","32","1055","0","test_block","poldrack-single-stim","115","297333","0.0-5.0-101.0","go-nogo","true","0","","true","<div class = centerbox><div  id = stim1></div></div>","32","32","750","","test","go","101","random","","",""
"","332","32","1453","0","test_block","poldrack-single-stim","116","298794","0.0-5.0-102.0","go-nogo","true","0","","true","<div class = centerbox><div  id = stim1></div></div>","32","32","750","","test","go","102","random","","",""
"","431","32","1243","0","test_block","poldrack-single-stim","117","300044","0.0-5.0-103.0","go-nogo","true","0","","true","<div class = centerbox><div  id = stim1></div></div>","32","32","750","","test","go","103","random","","",""
"","381","32","1258","0","test_block","poldrack-single-stim","118","301310","0.0-5.0-104.0","go-nogo","true","0","","true","<div class = centerbox><div  id = stim1></div></div>","32","32","750","","test","go","104","random","","",""
"","-1","-1","1456","0","test_block","poldrack-single-stim","119","302773","0.0-5.0-105.0","go-nogo","true","0","","true","<div class = centerbox><div  id = stim2></div></div>","-1","32","750","","test","nogo","105","random","","",""
"","418","32","1272","0","test_block","poldrack-single-stim","120","304054","0.0-5.0-106.0","go-nogo","true","0","","true","<div class = centerbox><div  id = stim1></div></div>","32","32","750","","test","go","106","random","","",""
"","296","32","1055","0","test_block","poldrack-single-stim","121","305119","0.0-5.0-107.0","go-nogo","true","0","","true","<div class = centerbox><div  id = stim1></div></div>","32","32","750","","test","go","107","random","","",""
"","690","32","1388","0","test_block","poldrack-single-stim","122","306515","0.0-5.0-108.0","go-nogo","true","0","","true","<div class = centerbox><div  id = stim1></div></div>","32","32","750","","test","go","108","random","","",""
"","324","32","1350","0","test_block","poldrack-single-stim","123","307874","0.0-5.0-109.0","go-nogo","true","0","","true","<div class = centerbox><div  id = stim1></div></div>","32","32","750","","test","go","109","random","","",""
"","308","32","1454","0","test_block","poldrack-single-stim","124","309339","0.0-5.0-110.0","go-nogo","true","0","","true","<div class = centerbox><div  id = stim1></div></div>","32","32","750","","test","go","110","random","","",""
"","613","32","1249","0","test_block","poldrack-single-stim","125","310599","0.0-5.0-111.0","go-nogo","true","0","","true","<div class = centerbox><div  id = stim1></div></div>","32","32","750","","test","go","111","random","","",""
"","330","32","1302","0","test_block","poldrack-single-stim","126","311910","0.0-5.0-112.0","go-nogo","true","0","","true","<div class = centerbox><div  id = stim1></div></div>","32","32","750","","test","go","112","random","","",""
"","285","32","1390","0","test_block","poldrack-single-stim","127","313307","0.0-5.0-113.0","go-nogo","true","0","","true","<div class = centerbox><div  id = stim1></div></div>","32","32","750","","test","go","113","random","","",""
"","326","32","1030","0","test_block","poldrack-single-stim","128","314346","0.0-5.0-114.0","go-nogo","true","0","","true","<div class = centerbox><div  id = stim1></div></div>","32","32","750","","test","go","114","random","","",""
"","279","32","1250","0","test_block","poldrack-single-stim","129","315605","0.0-5.0-115.0","go-nogo","true","0","","true","<div class = centerbox><div  id = stim1></div></div>","32","32","750","","test","go","115","random","","",""
"","188","32","1233","0","test_block","poldrack-single-stim","130","316847","0.0-5.0-116.0","go-nogo","true","0","","true","<div class = centerbox><div  id = stim1></div></div>","32","32","750","","test","go","116","random","","",""
"","673","32","1043","0","test_block","poldrack-single-stim","131","317899","0.0-5.0-117.0","go-nogo","true","0","","true","<div class = centerbox><div  id = stim1></div></div>","32","32","750","","test","go","117","random","","",""
"","366","32","1409","0","test_block","poldrack-single-stim","132","319317","0.0-5.0-118.0","go-nogo","true","0","","true","<div class = centerbox><div  id = stim1></div></div>","32","32","750","","test","go","118","random","","",""
"","372","32","1078","0","test_block","poldrack-single-stim","133","320404","0.0-5.0-119.0","go-nogo","true","0","","true","<div class = centerbox><div  id = stim1></div></div>","32","32","750","","test","go","119","random","","",""
"","-1","-1","1347","0","test_block","poldrack-single-stim","134","321760","0.0-5.0-120.0","go-nogo","true","0","","true","<div class = centerbox><div  id = stim2></div></div>","-1","32","750","","test","nogo","120","random","","",""
"","289","32","1271","0","test_block","poldrack-single-stim","135","323041","0.0-5.0-121.0","go-nogo","true","0","","true","<div class = centerbox><div  id = stim1></div></div>","32","32","750","","test","go","121","random","","",""
"","457","32","1435","0","test_block","poldrack-single-stim","136","324485","0.0-5.0-122.0","go-nogo","true","0","","true","<div class = centerbox><div  id = stim1></div></div>","32","32","750","","test","go","122","random","","",""
"","233","32","1173","0","test_block","poldrack-single-stim","137","325663","0.0-5.0-123.0","go-nogo","true","0","","true","<div class = centerbox><div  id = stim1></div></div>","32","32","750","","test","go","123","random","","",""
"","650","32","1091","0","test_block","poldrack-single-stim","138","326763","0.0-5.0-124.0","go-nogo","true","0","","true","<div class = centerbox><div  id = stim1></div></div>","32","32","750","","test","go","124","random","","",""
"","319","32","1012","0","test_block","poldrack-single-stim","139","327784","0.0-5.0-125.0","go-nogo","true","0","","false","<div class = centerbox><div  id = stim2></div></div>","-1","32","750","","test","nogo","125","random","","",""
"","530","32","1423","0","test_block","poldrack-single-stim","140","329216","0.0-5.0-126.0","go-nogo","true","0","","true","<div class = centerbox><div  id = stim1></div></div>","32","32","750","","test","go","126","random","","",""
"","285","32","1071","0","test_block","poldrack-single-stim","141","330293","0.0-5.0-127.0","go-nogo","true","0","","true","<div class = centerbox><div  id = stim1></div></div>","32","32","750","","test","go","127","random","","",""
"","128","32","1319","0","test_block","poldrack-single-stim","142","331624","0.0-5.0-128.0","go-nogo","true","0","","false","<div class = centerbox><div  id = stim2></div></div>","-1","32","750","","test","nogo","128","random","","",""
"","346","32","1077","0","test_block","poldrack-single-stim","143","332710","0.0-5.0-129.0","go-nogo","true","0","","true","<div class = centerbox><div  id = stim1></div></div>","32","32","750","","test","go","129","random","","",""
"","460","32","1137","0","test_block","poldrack-single-stim","144","333856","0.0-5.0-130.0","go-nogo","true","0","","true","<div class = centerbox><div  id = stim1></div></div>","32","32","750","","test","go","130","random","","",""
"","433","32","1385","0","test_block","poldrack-single-stim","145","335249","0.0-5.0-131.0","go-nogo","true","0","","true","<div class = centerbox><div  id = stim1></div></div>","32","32","750","","test","go","131","random","","",""
"","357","32","1277","0","test_block","poldrack-single-stim","146","336538","0.0-5.0-132.0","go-nogo","true","0","","true","<div class = centerbox><div  id = stim1></div></div>","32","32","750","","test","go","132","random","","",""
"","379","32","1279","0","test_block","poldrack-single-stim","147","337830","0.0-5.0-133.0","go-nogo","true","0","","true","<div class = centerbox><div  id = stim1></div></div>","32","32","750","","test","go","133","random","","",""
"","319","32","1133","0","test_block","poldrack-single-stim","148","338968","0.0-5.0-134.0","go-nogo","true","0","","true","<div class = centerbox><div  id = stim1></div></div>","32","32","750","","test","go","134","random","","",""
"","372","32","1034","0","test_block","poldrack-single-stim","149","340008","0.0-5.0-135.0","go-nogo","true","0","","true","<div class = centerbox><div  id = stim1></div></div>","32","32","750","","test","go","135","random","","",""
"","393","32","1439","0","test_block","poldrack-single-stim","150","341455","0.0-5.0-136.0","go-nogo","true","0","","true","<div class = centerbox><div  id = stim1></div></div>","32","32","750","","test","go","136","random","","",""
"","301","32","1410","0","test_block","poldrack-single-stim","151","342870","0.0-5.0-137.0","go-nogo","true","0","","true","<div class = centerbox><div  id = stim1></div></div>","32","32","750","","test","go","137","random","","",""
"","323","32","1415","0","test_block","poldrack-single-stim","152","344302","0.0-5.0-138.0","go-nogo","true","0","","true","<div class = centerbox><div  id = stim1></div></div>","32","32","750","","test","go","138","random","","",""
"","338","32","1407","0","test_block","poldrack-single-stim","153","345718","0.0-5.0-139.0","go-nogo","true","0","","true","<div class = centerbox><div  id = stim1></div></div>","32","32","750","","test","go","139","random","","",""
"","322","32","1001","0","test_block","poldrack-single-stim","154","346728","0.0-5.0-140.0","go-nogo","true","0","","true","<div class = centerbox><div  id = stim1></div></div>","32","32","750","","test","go","140","random","","",""
"","-1","-1","1154","0","test_block","poldrack-single-stim","155","347891","0.0-5.0-141.0","go-nogo","true","0","","true","<div class = centerbox><div  id = stim2></div></div>","-1","32","750","","test","nogo","141","random","","",""
"","-1","-1","1148","0","test_block","poldrack-single-stim","156","349047","0.0-5.0-142.0","go-nogo","true","0","","true","<div class = centerbox><div  id = stim2></div></div>","-1","32","750","","test","nogo","142","random","","",""
"","504","32","1472","0","test_block","poldrack-single-stim","157","350531","0.0-5.0-143.0","go-nogo","true","0","","true","<div class = centerbox><div  id = stim1></div></div>","32","32","750","","test","go","143","random","","",""
"","374","32","1262","0","test_block","poldrack-single-stim","158","351802","0.0-5.0-144.0","go-nogo","true","0","","true","<div class = centerbox><div  id = stim1></div></div>","32","32","750","","test","go","144","random","","",""
"","333","32","1053","0","test_block","poldrack-single-stim","159","352867","0.0-5.0-145.0","go-nogo","true","0","","true","<div class = centerbox><div  id = stim1></div></div>","32","32","750","","test","go","145","random","","",""
"","351","32","1103","0","test_block","poldrack-single-stim","160","353978","0.0-5.0-146.0","go-nogo","true","0","","true","<div class = centerbox><div  id = stim1></div></div>","32","32","750","","test","go","146","random","","",""
"","383","32","1251","0","test_block","poldrack-single-stim","161","355238","0.0-5.0-147.0","go-nogo","true","0","","true","<div class = centerbox><div  id = stim1></div></div>","32","32","750","","test","go","147","random","","",""
"","331","32","1085","0","test_block","poldrack-single-stim","162","356334","0.0-5.0-148.0","go-nogo","true","0","","true","<div class = centerbox><div  id = stim1></div></div>","32","32","750","","test","go","148","random","","",""
"","361","32","1329","0","test_block","poldrack-single-stim","163","357674","0.0-5.0-149.0","go-nogo","true","0","","true","<div class = centerbox><div  id = stim1></div></div>","32","32","750","","test","go","149","random","","",""
"","343","32","1032","0","test_block","poldrack-single-stim","164","358714","0.0-5.0-150.0","go-nogo","true","0","","true","<div class = centerbox><div  id = stim1></div></div>","32","32","750","","test","go","150","random","","",""
"","342","32","1316","0","test_block","poldrack-single-stim","165","360039","0.0-5.0-151.0","go-nogo","true","0","","true","<div class = centerbox><div  id = stim1></div></div>","32","32","750","","test","go","151","random","","",""
"","-1","-1","1112","0","test_block","poldrack-single-stim","166","361160","0.0-5.0-152.0","go-nogo","true","0","","true","<div class = centerbox><div  id = stim2></div></div>","-1","32","750","","test","nogo","152","random","","",""
"","401","32","1123","0","test_block","poldrack-single-stim","167","362291","0.0-5.0-153.0","go-nogo","true","0","","true","<div class = centerbox><div  id = stim1></div></div>","32","32","750","","test","go","153","random","","",""
"","317","32","1139","0","test_block","poldrack-single-stim","168","363439","0.0-5.0-154.0","go-nogo","true","0","","true","<div class = centerbox><div  id = stim1></div></div>","32","32","750","","test","go","154","random","","",""
"","-1","-1","1269","0","test_block","poldrack-single-stim","169","364714","0.0-5.0-155.0","go-nogo","true","0","","true","<div class = centerbox><div  id = stim2></div></div>","-1","32","750","","test","nogo","155","random","","",""
"","367","32","1152","0","test_block","poldrack-single-stim","170","365874","0.0-5.0-156.0","go-nogo","true","0","","true","<div class = centerbox><div  id = stim1></div></div>","32","32","750","","test","go","156","random","","",""
"","379","32","1427","0","test_block","poldrack-single-stim","171","367310","0.0-5.0-157.0","go-nogo","true","0","","true","<div class = centerbox><div  id = stim1></div></div>","32","32","750","","test","go","157","random","","",""
"","427","32","1093","0","test_block","poldrack-single-stim","172","368411","0.0-5.0-158.0","go-nogo","true","0","","true","<div class = centerbox><div  id = stim1></div></div>","32","32","750","","test","go","158","random","","",""
"","325","32","1135","0","test_block","poldrack-single-stim","173","369555","0.0-5.0-159.0","go-nogo","true","0","","true","<div class = centerbox><div  id = stim1></div></div>","32","32","750","","test","go","159","random","","",""
"","-1","-1","1324","0","test_block","poldrack-single-stim","174","370890","0.0-5.0-160.0","go-nogo","true","0","","true","<div class = centerbox><div  id = stim2></div></div>","-1","32","750","","test","nogo","160","random","","",""
"","398","32","1186","0","test_block","poldrack-single-stim","175","372094","0.0-5.0-161.0","go-nogo","true","0","","true","<div class = centerbox><div  id = stim1></div></div>","32","32","750","","test","go","161","random","","",""
"","364","32","1376","0","test_block","poldrack-single-stim","176","373479","0.0-5.0-162.0","go-nogo","true","0","","true","<div class = centerbox><div  id = stim1></div></div>","32","32","750","","test","go","162","random","","",""
"","380","32","1404","0","test_block","poldrack-single-stim","177","374889","0.0-5.0-163.0","go-nogo","true","0","","true","<div class = centerbox><div  id = stim1></div></div>","32","32","750","","test","go","163","random","","",""
"","343","32","1289","0","test_block","poldrack-single-stim","178","376187","0.0-5.0-164.0","go-nogo","true","0","","true","<div class = centerbox><div  id = stim1></div></div>","32","32","750","","test","go","164","random","","",""
"","333","32","1454","0","test_block","poldrack-single-stim","179","377650","0.0-5.0-165.0","go-nogo","true","0","","true","<div class = centerbox><div  id = stim1></div></div>","32","32","750","","test","go","165","random","","",""
"","296","32","1005","0","test_block","poldrack-single-stim","180","378663","0.0-5.0-166.0","go-nogo","true","0","","true","<div class = centerbox><div  id = stim1></div></div>","32","32","750","","test","go","166","random","","",""
"","738","32","1102","0","test_block","poldrack-single-stim","181","379773","0.0-5.0-167.0","go-nogo","true","0","","true","<div class = centerbox><div  id = stim1></div></div>","32","32","750","","test","go","167","random","","",""
"","476","32","1201","0","test_block","poldrack-single-stim","182","380982","0.0-5.0-168.0","go-nogo","true","0","","true","<div class = centerbox><div  id = stim1></div></div>","32","32","750","","test","go","168","random","","",""
"","283","32","1236","0","test_block","poldrack-single-stim","183","382225","0.0-5.0-169.0","go-nogo","true","0","","true","<div class = centerbox><div  id = stim1></div></div>","32","32","750","","test","go","169","random","","",""
"","368","32","1045","0","test_block","poldrack-single-stim","184","383278","0.0-5.0-170.0","go-nogo","true","0","","true","<div class = centerbox><div  id = stim1></div></div>","32","32","750","","test","go","170","random","","",""
"","307","32","1058","0","test_block","poldrack-single-stim","185","384344","0.0-5.0-171.0","go-nogo","true","0","","true","<div class = centerbox><div  id = stim1></div></div>","32","32","750","","test","go","171","random","","",""
"","344","32","1151","0","test_block","poldrack-single-stim","186","385503","0.0-5.0-172.0","go-nogo","true","0","","true","<div class = centerbox><div  id = stim1></div></div>","32","32","750","","test","go","172","random","","",""
"","284","32","1365","0","test_block","poldrack-single-stim","187","386883","0.0-5.0-173.0","go-nogo","true","0","","true","<div class = centerbox><div  id = stim1></div></div>","32","32","750","","test","go","173","random","","",""
"","246","32","1337","0","test_block","poldrack-single-stim","188","388228","0.0-5.0-174.0","go-nogo","true","0","","true","<div class = centerbox><div  id = stim1></div></div>","32","32","750","","test","go","174","random","","",""
"","-1","-1","1135","0","test_block","poldrack-single-stim","189","389370","0.0-5.0-175.0","go-nogo","true","0","","true","<div class = centerbox><div  id = stim2></div></div>","-1","32","750","","test","nogo","175","random","","",""
"","359","32","1215","0","test_block","poldrack-single-stim","190","390594","0.0-5.0-176.0","go-nogo","true","0","","true","<div class = centerbox><div  id = stim1></div></div>","32","32","750","","test","go","176","random","","",""
"","351","32","1453","0","test_block","poldrack-single-stim","191","392055","0.0-5.0-177.0","go-nogo","true","0","","true","<div class = centerbox><div  id = stim1></div></div>","32","32","750","","test","go","177","random","","",""
"","283","32","1351","0","test_block","poldrack-single-stim","192","393413","0.0-5.0-178.0","go-nogo","true","0","","true","<div class = centerbox><div  id = stim1></div></div>","32","32","750","","test","go","178","random","","",""
"","304","32","1029","0","test_block","poldrack-single-stim","193","394455","0.0-5.0-179.0","go-nogo","true","0","","true","<div class = centerbox><div  id = stim1></div></div>","32","32","750","","test","go","179","random","","",""
"","-1","-1","1299","0","test_block","poldrack-single-stim","194","395762","0.0-5.0-180.0","go-nogo","true","0","","false","<div class = centerbox><div  id = stim1></div></div>","32","32","750","","test","go","180","random","","",""
"","-1","-1","1399","0","test_block","poldrack-single-stim","195","397167","0.0-5.0-181.0","go-nogo","true","0","","true","<div class = centerbox><div  id = stim2></div></div>","-1","32","750","","test","nogo","181","random","","",""
"","330","32","1097","0","test_block","poldrack-single-stim","196","398272","0.0-5.0-182.0","go-nogo","true","0","","true","<div class = centerbox><div  id = stim1></div></div>","32","32","750","","test","go","182","random","","",""
"","945","32","1373","0","test_block","poldrack-single-stim","197","399653","0.0-5.0-183.0","go-nogo","true","0","","true","<div class = centerbox><div  id = stim1></div></div>","32","32","750","","test","go","183","random","","",""
"","308","32","1369","0","test_block","poldrack-single-stim","198","401030","0.0-5.0-184.0","go-nogo","true","0","","true","<div class = centerbox><div  id = stim1></div></div>","32","32","750","","test","go","184","random","","",""
"","347","32","1159","0","test_block","poldrack-single-stim","199","402197","0.0-5.0-185.0","go-nogo","true","0","","true","<div class = centerbox><div  id = stim1></div></div>","32","32","750","","test","go","185","random","","",""
"","372","32","1289","0","test_block","poldrack-single-stim","200","403494","0.0-5.0-186.0","go-nogo","true","0","","true","<div class = centerbox><div  id = stim1></div></div>","32","32","750","","test","go","186","random","","",""
"","-1","-1","1321","0","test_block","poldrack-single-stim","201","404822","0.0-5.0-187.0","go-nogo","true","0","","true","<div class = centerbox><div  id = stim2></div></div>","-1","32","750","","test","nogo","187","random","","",""
"","362","32","1337","0","test_block","poldrack-single-stim","202","406169","0.0-5.0-188.0","go-nogo","true","0","","true","<div class = centerbox><div  id = stim1></div></div>","32","32","750","","test","go","188","random","","",""
"","315","32","1377","0","test_block","poldrack-single-stim","203","407559","0.0-5.0-189.0","go-nogo","true","0","","true","<div class = centerbox><div  id = stim1></div></div>","32","32","750","","test","go","189","random","","",""
"","442","32","1464","0","test_block","poldrack-single-stim","204","409031","0.0-5.0-190.0","go-nogo","true","0","","true","<div class = centerbox><div  id = stim1></div></div>","32","32","750","","test","go","190","random","","",""
"","285","32","1298","0","test_block","poldrack-single-stim","205","410335","0.0-5.0-191.0","go-nogo","true","0","","true","<div class = centerbox><div  id = stim1></div></div>","32","32","750","","test","go","191","random","","",""
"","298","32","1058","0","test_block","poldrack-single-stim","206","411400","0.0-5.0-192.0","go-nogo","true","0","","true","<div class = centerbox><div  id = stim1></div></div>","32","32","750","","test","go","192","random","","",""
"","651","32","1272","0","test_block","poldrack-single-stim","207","412677","0.0-5.0-193.0","go-nogo","true","0","","true","<div class = centerbox><div  id = stim1></div></div>","32","32","750","","test","go","193","random","","",""
"","364","32","1281","0","test_block","poldrack-single-stim","208","413967","0.0-5.0-194.0","go-nogo","true","0","","true","<div class = centerbox><div  id = stim1></div></div>","32","32","750","","test","go","194","random","","",""
"","331","32","1434","0","test_block","poldrack-single-stim","209","415408","0.0-5.0-195.0","go-nogo","true","0","","true","<div class = centerbox><div  id = stim1></div></div>","32","32","750","","test","go","195","random","","",""
"","377","32","1366","0","test_block","poldrack-single-stim","210","416782","0.0-5.0-196.0","go-nogo","true","0","","true","<div class = centerbox><div  id = stim1></div></div>","32","32","750","","test","go","196","random","","",""
"","347","32","1057","0","test_block","poldrack-single-stim","211","417847","0.0-5.0-197.0","go-nogo","true","0","","true","<div class = centerbox><div  id = stim1></div></div>","32","32","750","","test","go","197","random","","",""
"","408","32","1430","0","test_block","poldrack-single-stim","212","419287","0.0-5.0-198.0","go-nogo","true","0","","true","<div class = centerbox><div  id = stim1></div></div>","32","32","750","","test","go","198","random","","",""
"","349","32","1424","0","test_block","poldrack-single-stim","213","420716","0.0-5.0-199.0","go-nogo","true","0","","true","<div class = centerbox><div  id = stim1></div></div>","32","32","750","","test","go","199","random","","",""
"","214","32","1432","0","test_block","poldrack-single-stim","214","422155","0.0-5.0-200.0","go-nogo","true","0","","true","<div class = centerbox><div  id = stim1></div></div>","32","32","750","","test","go","200","random","","",""
"","365","32","1442","0","test_block","poldrack-single-stim","215","423606","0.0-5.0-201.0","go-nogo","true","0","","true","<div class = centerbox><div  id = stim1></div></div>","32","32","750","","test","go","201","random","","",""
"","451","32","1070","0","test_block","poldrack-single-stim","216","424684","0.0-5.0-202.0","go-nogo","true","0","","true","<div class = centerbox><div  id = stim1></div></div>","32","32","750","","test","go","202","random","","",""
"","357","32","1204","0","test_block","poldrack-single-stim","217","425896","0.0-5.0-203.0","go-nogo","true","0","","true","<div class = centerbox><div  id = stim1></div></div>","32","32","750","","test","go","203","random","","",""
"","354","32","1374","0","test_block","poldrack-single-stim","218","427277","0.0-5.0-204.0","go-nogo","true","0","","false","<div class = centerbox><div  id = stim2></div></div>","-1","32","750","","test","nogo","204","random","","",""
"","371","32","1129","0","test_block","poldrack-single-stim","219","428414","0.0-5.0-205.0","go-nogo","true","0","","true","<div class = centerbox><div  id = stim1></div></div>","32","32","750","","test","go","205","random","","",""
"","340","32","1279","0","test_block","poldrack-single-stim","220","429699","0.0-5.0-206.0","go-nogo","true","0","","true","<div class = centerbox><div  id = stim1></div></div>","32","32","750","","test","go","206","random","","",""
"","366","32","1211","0","test_block","poldrack-single-stim","221","430919","0.0-5.0-207.0","go-nogo","true","0","","true","<div class = centerbox><div  id = stim1></div></div>","32","32","750","","test","go","207","random","","",""
"","363","32","1206","0","test_block","poldrack-single-stim","222","432132","0.0-5.0-208.0","go-nogo","true","0","","true","<div class = centerbox><div  id = stim1></div></div>","32","32","750","","test","go","208","random","","",""
"","380","32","1337","0","test_block","poldrack-single-stim","223","433477","0.0-5.0-209.0","go-nogo","true","0","","true","<div class = centerbox><div  id = stim1></div></div>","32","32","750","","test","go","209","random","","",""
"","357","32","1232","0","test_block","poldrack-single-stim","224","434717","0.0-5.0-210.0","go-nogo","true","0","","true","<div class = centerbox><div  id = stim1></div></div>","32","32","750","","test","go","210","random","","",""
"","291","32","1399","0","test_block","poldrack-single-stim","225","436126","0.0-5.0-211.0","go-nogo","true","0","","true","<div class = centerbox><div  id = stim1></div></div>","32","32","750","","test","go","211","random","","",""
"","397","32","1175","0","test_block","poldrack-single-stim","226","437325","0.0-5.0-212.0","go-nogo","true","0","","true","<div class = centerbox><div  id = stim1></div></div>","32","32","750","","test","go","212","random","","",""
"","-1","-1","1339","0","test_block","poldrack-single-stim","227","438672","0.0-5.0-213.0","go-nogo","true","0","","true","<div class = centerbox><div  id = stim2></div></div>","-1","32","750","","test","nogo","213","random","","",""
"","321","32","1111","0","test_block","poldrack-single-stim","228","439791","0.0-5.0-214.0","go-nogo","true","0","","true","<div class = centerbox><div  id = stim1></div></div>","32","32","750","","test","go","214","random","","",""
"","364","32","1291","0","test_block","poldrack-single-stim","229","441090","0.0-5.0-215.0","go-nogo","true","0","","true","<div class = centerbox><div  id = stim1></div></div>","32","32","750","","test","go","215","random","","",""
"","-1","-1","1025","0","test_block","poldrack-single-stim","230","442123","0.0-5.0-216.0","go-nogo","true","0","","true","<div class = centerbox><div  id = stim2></div></div>","-1","32","750","","test","nogo","216","random","","",""
"","557","32","1499","0","test_block","poldrack-single-stim","231","443631","0.0-5.0-217.0","go-nogo","true","0","","true","<div class = centerbox><div  id = stim1></div></div>","32","32","750","","test","go","217","random","","",""
"","-1","-1","1363","0","test_block","poldrack-single-stim","232","445002","0.0-5.0-218.0","go-nogo","true","0","","true","<div class = centerbox><div  id = stim2></div></div>","-1","32","750","","test","nogo","218","random","","",""
"","420","32","1445","0","test_block","poldrack-single-stim","233","446459","0.0-5.0-219.0","go-nogo","true","0","","true","<div class = centerbox><div  id = stim1></div></div>","32","32","750","","test","go","219","random","","",""
"","366","32","1369","0","test_block","poldrack-single-stim","234","447837","0.0-5.0-220.0","go-nogo","true","0","","true","<div class = centerbox><div  id = stim1></div></div>","32","32","750","","test","go","220","random","","",""
"","620","32","1126","0","test_block","poldrack-single-stim","235","448972","0.0-5.0-221.0","go-nogo","true","0","","true","<div class = centerbox><div  id = stim1></div></div>","32","32","750","","test","go","221","random","","",""
"","364","32","1096","0","test_block","poldrack-single-stim","236","450077","0.0-5.0-222.0","go-nogo","true","0","","true","<div class = centerbox><div  id = stim1></div></div>","32","32","750","","test","go","222","random","","",""
"","315","32","1079","0","test_block","poldrack-single-stim","237","451165","0.0-5.0-223.0","go-nogo","true","0","","true","<div class = centerbox><div  id = stim1></div></div>","32","32","750","","test","go","223","random","","",""
"","331","32","1299","0","test_block","poldrack-single-stim","238","452473","0.0-5.0-224.0","go-nogo","true","0","","true","<div class = centerbox><div  id = stim1></div></div>","32","32","750","","test","go","224","random","","",""
"","369","32","1206","0","test_block","poldrack-single-stim","239","453687","0.0-5.0-225.0","go-nogo","true","0","","true","<div class = centerbox><div  id = stim1></div></div>","32","32","750","","test","go","225","random","","",""
"","-1","-1","1349","0","test_block","poldrack-single-stim","240","455045","0.0-5.0-226.0","go-nogo","true","0","","true","<div class = centerbox><div  id = stim2></div></div>","-1","32","750","","test","nogo","226","random","","",""
"","298","32","1381","0","test_block","poldrack-single-stim","241","456435","0.0-5.0-227.0","go-nogo","true","0","","true","<div class = centerbox><div  id = stim1></div></div>","32","32","750","","test","go","227","random","","",""
"","184","32","1164","0","test_block","poldrack-single-stim","242","457605","0.0-5.0-228.0","go-nogo","true","0","","true","<div class = centerbox><div  id = stim1></div></div>","32","32","750","","test","go","228","random","","",""
"","362","32","1496","0","test_block","poldrack-single-stim","243","459112","0.0-5.0-229.0","go-nogo","true","0","","true","<div class = centerbox><div  id = stim1></div></div>","32","32","750","","test","go","229","random","","",""
"","10","32","1104","0","test_block","poldrack-single-stim","244","460223","0.0-5.0-230.0","go-nogo","true","0","","true","<div class = centerbox><div  id = stim1></div></div>","32","32","750","","test","go","230","random","","",""
"","346","32","1184","0","test_block","poldrack-single-stim","245","461415","0.0-5.0-231.0","go-nogo","true","0","","true","<div class = centerbox><div  id = stim1></div></div>","32","32","750","","test","go","231","random","","",""
"","348","32","1427","0","test_block","poldrack-single-stim","246","462848","0.0-5.0-232.0","go-nogo","true","0","","true","<div class = centerbox><div  id = stim1></div></div>","32","32","750","","test","go","232","random","","",""
"","320","32","1241","0","test_block","poldrack-single-stim","247","464098","0.0-5.0-233.0","go-nogo","true","0","","true","<div class = centerbox><div  id = stim1></div></div>","32","32","750","","test","go","233","random","","",""
"","347","32","1296","0","test_block","poldrack-single-stim","248","465407","0.0-5.0-234.0","go-nogo","true","0","","true","<div class = centerbox><div  id = stim1></div></div>","32","32","750","","test","go","234","random","","",""
"","290","32","1204","0","test_block","poldrack-single-stim","249","466619","0.0-5.0-235.0","go-nogo","true","0","","true","<div class = centerbox><div  id = stim1></div></div>","32","32","750","","test","go","235","random","","",""
"","294","32","1054","0","test_block","poldrack-single-stim","250","467682","0.0-5.0-236.0","go-nogo","true","0","","true","<div class = centerbox><div  id = stim1></div></div>","32","32","750","","test","go","236","random","","",""
"","373","32","1246","0","test_block","poldrack-single-stim","251","468939","0.0-5.0-237.0","go-nogo","true","0","","true","<div class = centerbox><div  id = stim1></div></div>","32","32","750","","test","go","237","random","","",""
"","281","32","1123","0","test_block","poldrack-single-stim","252","470075","0.0-5.0-238.0","go-nogo","true","0","","true","<div class = centerbox><div  id = stim1></div></div>","32","32","750","","test","go","238","random","","",""
"","342","32","1398","0","test_block","poldrack-single-stim","253","471482","0.0-5.0-239.0","go-nogo","true","0","","false","<div class = centerbox><div  id = stim2></div></div>","-1","32","750","","test","nogo","239","random","","",""
"","370","32","1115","0","test_block","poldrack-single-stim","254","472602","0.0-5.0-240.0","go-nogo","true","0","","true","<div class = centerbox><div  id = stim1></div></div>","32","32","750","","test","go","240","random","","",""
"","-1","-1","1405","0","test_block","poldrack-single-stim","255","474021","0.0-5.0-241.0","go-nogo","true","0","","false","<div class = centerbox><div  id = stim1></div></div>","32","32","750","","test","go","241","random","","",""
"","477","32","1049","0","test_block","poldrack-single-stim","256","475077","0.0-5.0-242.0","go-nogo","true","0","","true","<div class = centerbox><div  id = stim1></div></div>","32","32","750","","test","go","242","random","","",""
"","364","32","1385","0","test_block","poldrack-single-stim","257","476470","0.0-5.0-243.0","go-nogo","true","0","","true","<div class = centerbox><div  id = stim1></div></div>","32","32","750","","test","go","243","random","","",""
"","334","32","1262","0","test_block","poldrack-single-stim","258","477737","0.0-5.0-244.0","go-nogo","true","0","","true","<div class = centerbox><div  id = stim1></div></div>","32","32","750","","test","go","244","random","","",""
"","-1","-1","1411","0","test_block","poldrack-single-stim","259","479157","0.0-5.0-245.0","go-nogo","true","0","","true","<div class = centerbox><div  id = stim2></div></div>","-1","32","750","","test","nogo","245","random","","",""
"","295","32","1225","0","test_block","poldrack-single-stim","260","480387","0.0-5.0-246.0","go-nogo","true","0","","true","<div class = centerbox><div  id = stim1></div></div>","32","32","750","","test","go","246","random","","",""
"","319","32","1318","0","test_block","poldrack-single-stim","261","481712","0.0-5.0-247.0","go-nogo","true","0","","true","<div class = centerbox><div  id = stim1></div></div>","32","32","750","","test","go","247","random","","",""
"","232","32","1426","0","test_block","poldrack-single-stim","262","483147","0.0-5.0-248.0","go-nogo","true","0","","true","<div class = centerbox><div  id = stim1></div></div>","32","32","750","","test","go","248","random","","",""
"","246","32","1100","0","test_block","poldrack-single-stim","263","484256","0.0-5.0-249.0","go-nogo","true","0","","true","<div class = centerbox><div  id = stim1></div></div>","32","32","750","","test","go","249","random","","",""
"","358","32","1423","0","test_block","poldrack-single-stim","264","485691","0.0-5.0-250.0","go-nogo","true","0","","true","<div class = centerbox><div  id = stim1></div></div>","32","32","750","","test","go","250","random","","",""
"","367","32","1295","0","test_block","poldrack-single-stim","265","486993","0.0-5.0-251.0","go-nogo","true","0","","true","<div class = centerbox><div  id = stim1></div></div>","32","32","750","","test","go","251","random","","",""
"","308","32","1024","0","test_block","poldrack-single-stim","266","488029","0.0-5.0-252.0","go-nogo","true","0","","true","<div class = centerbox><div  id = stim1></div></div>","32","32","750","","test","go","252","random","","",""
"","396","32","1017","0","test_block","poldrack-single-stim","267","489055","0.0-5.0-253.0","go-nogo","true","0","","true","<div class = centerbox><div  id = stim1></div></div>","32","32","750","","test","go","253","random","","",""
"","337","32","1238","0","test_block","poldrack-single-stim","268","490303","0.0-5.0-254.0","go-nogo","true","0","","true","<div class = centerbox><div  id = stim1></div></div>","32","32","750","","test","go","254","random","","",""
"","499","32","1406","0","test_block","poldrack-single-stim","269","491717","0.0-5.0-255.0","go-nogo","true","0","","true","<div class = centerbox><div  id = stim1></div></div>","32","32","750","","test","go","255","random","","",""
"","325","32","1242","0","test_block","poldrack-single-stim","270","492967","0.0-5.0-256.0","go-nogo","true","0","","true","<div class = centerbox><div  id = stim1></div></div>","32","32","750","","test","go","256","random","","",""
"","482","32","1359","0","test_block","poldrack-single-stim","271","494335","0.0-5.0-257.0","go-nogo","true","0","","true","<div class = centerbox><div  id = stim1></div></div>","32","32","750","","test","go","257","random","","",""
"","713","32","1131","0","test_block","poldrack-single-stim","272","495476","0.0-5.0-258.0","go-nogo","true","0","","true","<div class = centerbox><div  id = stim1></div></div>","32","32","750","","test","go","258","random","","",""
"","-1","-1","1044","0","test_block","poldrack-single-stim","273","496527","0.0-5.0-259.0","go-nogo","true","0","","false","<div class = centerbox><div  id = stim1></div></div>","32","32","750","","test","go","259","random","","",""
"","587","32","1007","0","test_block","poldrack-single-stim","274","497542","0.0-5.0-260.0","go-nogo","true","0","","true","<div class = centerbox><div  id = stim1></div></div>","32","32","750","","test","go","260","random","","",""
"","-1","-1","1259","0","test_block","poldrack-single-stim","275","498809","0.0-5.0-261.0","go-nogo","true","0","","true","<div class = centerbox><div  id = stim2></div></div>","-1","32","750","","test","nogo","261","random","","",""
"","337","32","1287","0","test_block","poldrack-single-stim","276","500104","0.0-5.0-262.0","go-nogo","true","0","","true","<div class = centerbox><div  id = stim1></div></div>","32","32","750","","test","go","262","random","","",""
"","323","32","1460","0","test_block","poldrack-single-stim","277","501578","0.0-5.0-263.0","go-nogo","true","0","","true","<div class = centerbox><div  id = stim1></div></div>","32","32","750","","test","go","263","random","","",""
"","184","32","1486","0","test_block","poldrack-single-stim","278","503072","0.0-5.0-264.0","go-nogo","true","0","","true","<div class = centerbox><div  id = stim1></div></div>","32","32","750","","test","go","264","random","","",""
"","10","32","1322","0","test_block","poldrack-single-stim","279","504402","0.0-5.0-265.0","go-nogo","true","0","","false","<div class = centerbox><div  id = stim2></div></div>","-1","32","750","","test","nogo","265","random","","",""
"","350","32","1219","0","test_block","poldrack-single-stim","280","505630","0.0-5.0-266.0","go-nogo","true","0","","true","<div class = centerbox><div  id = stim1></div></div>","32","32","750","","test","go","266","random","","",""
"","428","32","1349","0","test_block","poldrack-single-stim","281","506988","0.0-5.0-267.0","go-nogo","true","0","","true","<div class = centerbox><div  id = stim1></div></div>","32","32","750","","test","go","267","random","","",""
"","352","32","1059","0","test_block","poldrack-single-stim","282","508054","0.0-5.0-268.0","go-nogo","true","0","","true","<div class = centerbox><div  id = stim1></div></div>","32","32","750","","test","go","268","random","","",""
"","340","32","1160","0","test_block","poldrack-single-stim","283","509222","0.0-5.0-269.0","go-nogo","true","0","","true","<div class = centerbox><div  id = stim1></div></div>","32","32","750","","test","go","269","random","","",""
"","310","32","1141","0","test_block","poldrack-single-stim","284","510368","0.0-5.0-270.0","go-nogo","true","0","","true","<div class = centerbox><div  id = stim1></div></div>","32","32","750","","test","go","270","random","","",""
"","498","32","1367","0","test_block","poldrack-single-stim","285","511743","0.0-5.0-271.0","go-nogo","true","0","","true","<div class = centerbox><div  id = stim1></div></div>","32","32","750","","test","go","271","random","","",""
"","292","32","1266","0","test_block","poldrack-single-stim","286","513016","0.0-5.0-272.0","go-nogo","true","0","","true","<div class = centerbox><div  id = stim1></div></div>","32","32","750","","test","go","272","random","","",""
"","385","32","1354","0","test_block","poldrack-single-stim","287","514378","0.0-5.0-273.0","go-nogo","true","0","","true","<div class = centerbox><div  id = stim1></div></div>","32","32","750","","test","go","273","random","","",""
"","367","32","1099","0","test_block","poldrack-single-stim","288","515485","0.0-5.0-274.0","go-nogo","true","0","","true","<div class = centerbox><div  id = stim1></div></div>","32","32","750","","test","go","274","random","","",""
"","326","32","1413","0","test_block","poldrack-single-stim","289","516906","0.0-5.0-275.0","go-nogo","true","0","","true","<div class = centerbox><div  id = stim1></div></div>","32","32","750","","test","go","275","random","","",""
"","232","32","1011","0","test_block","poldrack-single-stim","290","517924","0.0-5.0-276.0","go-nogo","true","0","","true","<div class = centerbox><div  id = stim1></div></div>","32","32","750","","test","go","276","random","","",""
"","373","32","1487","0","test_block","poldrack-single-stim","291","519419","0.0-5.0-277.0","go-nogo","true","0","","true","<div class = centerbox><div  id = stim1></div></div>","32","32","750","","test","go","277","random","","",""
"","110","32","1318","0","test_block","poldrack-single-stim","292","520745","0.0-5.0-278.0","go-nogo","true","0","","true","<div class = centerbox><div  id = stim1></div></div>","32","32","750","","test","go","278","random","","",""
"","410","32","1358","0","test_block","poldrack-single-stim","293","522118","0.0-5.0-279.0","go-nogo","true","0","","true","<div class = centerbox><div  id = stim1></div></div>","32","32","750","","test","go","279","random","","",""
"","405","32","1382","0","test_block","poldrack-single-stim","294","523507","0.0-5.0-280.0","go-nogo","true","0","","true","<div class = centerbox><div  id = stim1></div></div>","32","32","750","","test","go","280","random","","",""
"","454","32","1323","0","test_block","poldrack-single-stim","295","524838","0.0-5.0-281.0","go-nogo","true","0","","true","<div class = centerbox><div  id = stim1></div></div>","32","32","750","","test","go","281","random","","",""
"","282","32","1112","0","test_block","poldrack-single-stim","296","525959","0.0-5.0-282.0","go-nogo","true","0","","true","<div class = centerbox><div  id = stim1></div></div>","32","32","750","","test","go","282","random","","",""
"","346","32","1135","0","test_block","poldrack-single-stim","297","527102","0.0-5.0-283.0","go-nogo","true","0","","true","<div class = centerbox><div  id = stim1></div></div>","32","32","750","","test","go","283","random","","",""
"","384","32","1072","0","test_block","poldrack-single-stim","298","528185","0.0-5.0-284.0","go-nogo","true","0","","true","<div class = centerbox><div  id = stim1></div></div>","32","32","750","","test","go","284","random","","",""
"","344","32","1035","0","test_block","poldrack-single-stim","299","529229","0.0-5.0-285.0","go-nogo","true","0","","true","<div class = centerbox><div  id = stim1></div></div>","32","32","750","","test","go","285","random","","",""
"","311","32","1113","0","test_block","poldrack-single-stim","300","530346","0.0-5.0-286.0","go-nogo","true","0","","true","<div class = centerbox><div  id = stim1></div></div>","32","32","750","","test","go","286","random","","",""
"","255","32","1389","0","test_block","poldrack-single-stim","301","531744","0.0-5.0-287.0","go-nogo","true","0","","true","<div class = centerbox><div  id = stim1></div></div>","32","32","750","","test","go","287","random","","",""
"","813","32","1140","0","test_block","poldrack-single-stim","302","532896","0.0-5.0-288.0","go-nogo","true","0","","true","<div class = centerbox><div  id = stim1></div></div>","32","32","750","","test","go","288","random","","",""
"","377","32","1146","0","test_block","poldrack-single-stim","303","534050","0.0-5.0-289.0","go-nogo","true","0","","true","<div class = centerbox><div  id = stim1></div></div>","32","32","750","","test","go","289","random","","",""
"","383","32","1054","0","test_block","poldrack-single-stim","304","535112","0.0-5.0-290.0","go-nogo","true","0","","true","<div class = centerbox><div  id = stim1></div></div>","32","32","750","","test","go","290","random","","",""
"","377","32","1281","0","test_block","poldrack-single-stim","305","536401","0.0-5.0-291.0","go-nogo","true","0","","true","<div class = centerbox><div  id = stim1></div></div>","32","32","750","","test","go","291","random","","",""
"","275","32","1029","0","test_block","poldrack-single-stim","306","537435","0.0-5.0-292.0","go-nogo","true","0","","true","<div class = centerbox><div  id = stim1></div></div>","32","32","750","","test","go","292","random","","",""
"","343","32","1177","0","test_block","poldrack-single-stim","307","538620","0.0-5.0-293.0","go-nogo","true","0","","true","<div class = centerbox><div  id = stim1></div></div>","32","32","750","","test","go","293","random","","",""
"","93","32","1083","0","test_block","poldrack-single-stim","308","539711","0.0-5.0-294.0","go-nogo","true","0","","true","<div class = centerbox><div  id = stim1></div></div>","32","32","750","","test","go","294","random","","",""
"","744","32","1474","0","test_block","poldrack-single-stim","309","541196","0.0-5.0-295.0","go-nogo","true","0","","true","<div class = centerbox><div  id = stim1></div></div>","32","32","750","","test","go","295","random","","",""
"","355","32","1194","0","test_block","poldrack-single-stim","310","542408","0.0-5.0-296.0","go-nogo","true","0","","true","<div class = centerbox><div  id = stim1></div></div>","32","32","750","","test","go","296","random","","",""
"","626","32","1137","0","test_block","poldrack-single-stim","311","543552","0.0-5.0-297.0","go-nogo","true","0","","true","<div class = centerbox><div  id = stim1></div></div>","32","32","750","","test","go","297","random","","",""
"","361","32","1164","0","test_block","poldrack-single-stim","312","544724","0.0-5.0-298.0","go-nogo","true","0","","true","<div class = centerbox><div  id = stim1></div></div>","32","32","750","","test","go","298","random","","",""
"","341","32","1465","0","test_block","poldrack-single-stim","313","546197","0.0-5.0-299.0","go-nogo","true","0","","true","<div class = centerbox><div  id = stim1></div></div>","32","32","750","","test","go","299","random","","",""
"","77","32","1106","0","test_block","poldrack-single-stim","314","547310","0.0-5.0-300.0","go-nogo","true","0","","true","<div class = centerbox><div  id = stim1></div></div>","32","32","750","","test","go","300","random","","",""
"","19","32","1310","0","test_block","poldrack-single-stim","315","548628","0.0-5.0-301.0","go-nogo","true","0","","true","<div class = centerbox><div  id = stim1></div></div>","32","32","750","","test","go","301","random","","",""
"","485","32","1030","0","test_block","poldrack-single-stim","316","549666","0.0-5.0-302.0","go-nogo","true","0","","true","<div class = centerbox><div  id = stim1></div></div>","32","32","750","","test","go","302","random","","",""
"","383","32","1311","0","test_block","poldrack-single-stim","317","550985","0.0-5.0-303.0","go-nogo","true","0","","true","<div class = centerbox><div  id = stim1></div></div>","32","32","750","","test","go","303","random","","",""
"","288","32","1456","0","test_block","poldrack-single-stim","318","552450","0.0-5.0-304.0","go-nogo","true","0","","true","<div class = centerbox><div  id = stim1></div></div>","32","32","750","","test","go","304","random","","",""
"","272","32","1148","0","test_block","poldrack-single-stim","319","553606","0.0-5.0-305.0","go-nogo","true","0","","true","<div class = centerbox><div  id = stim1></div></div>","32","32","750","","test","go","305","random","","",""
"","316","32","1349","0","test_block","poldrack-single-stim","320","554964","0.0-5.0-306.0","go-nogo","true","0","","true","<div class = centerbox><div  id = stim1></div></div>","32","32","750","","test","go","306","random","","",""
"","298","32","1378","0","test_block","poldrack-single-stim","321","556355","0.0-5.0-307.0","go-nogo","true","0","","true","<div class = centerbox><div  id = stim1></div></div>","32","32","750","","test","go","307","random","","",""
"","306","32","1354","0","test_block","poldrack-single-stim","322","557715","0.0-5.0-308.0","go-nogo","true","0","","true","<div class = centerbox><div  id = stim1></div></div>","32","32","750","","test","go","308","random","","",""
"","241","32","1062","0","test_block","poldrack-single-stim","323","558784","0.0-5.0-309.0","go-nogo","true","0","","true","<div class = centerbox><div  id = stim1></div></div>","32","32","750","","test","go","309","random","","",""
"","379","32","1032","0","test_block","poldrack-single-stim","324","559847","0.0-5.0-310.0","go-nogo","true","0","","true","<div class = centerbox><div  id = stim1></div></div>","32","32","750","","test","go","310","random","","",""
"","364","32","1023","0","test_block","poldrack-single-stim","325","560878","0.0-5.0-311.0","go-nogo","true","0","","true","<div class = centerbox><div  id = stim1></div></div>","32","32","750","","test","go","311","random","","",""
"","356","32","1182","0","test_block","poldrack-single-stim","326","562068","0.0-5.0-312.0","go-nogo","true","0","","true","<div class = centerbox><div  id = stim1></div></div>","32","32","750","","test","go","312","random","","",""
"","338","32","1181","0","test_block","poldrack-single-stim","327","563261","0.0-5.0-313.0","go-nogo","true","0","","true","<div class = centerbox><div  id = stim1></div></div>","32","32","750","","test","go","313","random","","",""
"","341","32","1192","0","test_block","poldrack-single-stim","328","564461","0.0-5.0-314.0","go-nogo","true","0","","true","<div class = centerbox><div  id = stim1></div></div>","32","32","750","","test","go","314","random","","",""
"","248","32","1237","0","test_block","poldrack-single-stim","329","565703","0.0-5.0-315.0","go-nogo","true","0","","true","<div class = centerbox><div  id = stim1></div></div>","32","32","750","","test","go","315","random","","",""
"","234","32","1056","0","test_block","poldrack-single-stim","330","566767","0.0-5.0-316.0","go-nogo","true","0","","true","<div class = centerbox><div  id = stim1></div></div>","32","32","750","","test","go","316","random","","",""
"","268","32","1496","0","test_block","poldrack-single-stim","331","568270","0.0-5.0-317.0","go-nogo","true","0","","true","<div class = centerbox><div  id = stim1></div></div>","32","32","750","","test","go","317","random","","",""
"","340","32","1393","0","test_block","poldrack-single-stim","332","569671","0.0-5.0-318.0","go-nogo","true","0","","true","<div class = centerbox><div  id = stim1></div></div>","32","32","750","","test","go","318","random","","",""
"","291","32","1436","0","test_block","poldrack-single-stim","333","571115","0.0-5.0-319.0","go-nogo","true","0","","true","<div class = centerbox><div  id = stim1></div></div>","32","32","750","","test","go","319","random","","",""
"","855","32","1157","0","test_block","poldrack-single-stim","334","572280","0.0-5.0-320.0","go-nogo","true","0","","true","<div class = centerbox><div  id = stim1></div></div>","32","32","750","","test","go","320","random","","",""
"","377","32","1150","0","test_block","poldrack-single-stim","335","573438","0.0-5.0-321.0","go-nogo","true","0","","true","<div class = centerbox><div  id = stim1></div></div>","32","32","750","","test","go","321","random","","",""
"","324","32","1480","0","test_block","poldrack-single-stim","336","574925","0.0-5.0-322.0","go-nogo","true","0","","true","<div class = centerbox><div  id = stim1></div></div>","32","32","750","","test","go","322","random","","",""
"","508","32","1205","0","test_block","poldrack-single-stim","337","576138","0.0-5.0-323.0","go-nogo","true","0","","true","<div class = centerbox><div  id = stim1></div></div>","32","32","750","","test","go","323","random","","",""
"","279","32","1044","0","test_block","poldrack-single-stim","338","577189","0.0-5.0-324.0","go-nogo","true","0","","true","<div class = centerbox><div  id = stim1></div></div>","32","32","750","","test","go","324","random","","",""
"","191","32","1112","0","test_block","poldrack-single-stim","339","578306","0.0-5.0-325.0","go-nogo","true","0","","true","<div class = centerbox><div  id = stim1></div></div>","32","32","750","","test","go","325","random","","",""
"","279","32","1227","0","test_block","poldrack-single-stim","340","579541","0.0-5.0-326.0","go-nogo","true","0","","false","<div class = centerbox><div  id = stim2></div></div>","-1","32","750","","test","nogo","326","random","","",""
"","356","32","1019","0","test_block","poldrack-single-stim","341","580568","0.0-5.0-327.0","go-nogo","true","0","","true","<div class = centerbox><div  id = stim1></div></div>","32","32","750","","test","go","327","random","","",""
"","307","32","1084","0","test_block","poldrack-single-stim","342","581660","0.0-5.0-328.0","go-nogo","true","0","","true","<div class = centerbox><div  id = stim1></div></div>","32","32","750","","test","go","328","random","","",""
"","128","32","1194","0","test_block","poldrack-single-stim","343","582862","0.0-5.0-329.0","go-nogo","true","0","","true","<div class = centerbox><div  id = stim1></div></div>","32","32","750","","test","go","329","random","","",""
"","571","32","1115","0","test_block","poldrack-single-stim","344","583986","0.0-5.0-330.0","go-nogo","true","0","","true","<div class = centerbox><div  id = stim1></div></div>","32","32","750","","test","go","330","random","","",""
"","304","32","1138","0","test_block","poldrack-single-stim","345","585132","0.0-5.0-331.0","go-nogo","true","0","","true","<div class = centerbox><div  id = stim1></div></div>","32","32","750","","test","go","331","random","","",""
"","638","32","1057","0","test_block","poldrack-single-stim","346","586197","0.0-5.0-332.0","go-nogo","true","0","","true","<div class = centerbox><div  id = stim1></div></div>","32","32","750","","test","go","332","random","","",""
"","435","32","1393","0","test_block","poldrack-single-stim","347","587608","0.0-5.0-333.0","go-nogo","true","0","","true","<div class = centerbox><div  id = stim1></div></div>","32","32","750","","test","go","333","random","","",""
"","298","32","1084","0","test_block","poldrack-single-stim","348","588700","0.0-5.0-334.0","go-nogo","true","0","","true","<div class = centerbox><div  id = stim1></div></div>","32","32","750","","test","go","334","random","","",""
"","285","32","1100","0","test_block","poldrack-single-stim","349","589808","0.0-5.0-335.0","go-nogo","true","0","","false","<div class = centerbox><div  id = stim2></div></div>","-1","32","750","","test","nogo","335","random","","",""
"","323","32","1243","0","test_block","poldrack-single-stim","350","591057","0.0-5.0-336.0","go-nogo","true","0","","true","<div class = centerbox><div  id = stim1></div></div>","32","32","750","","test","go","336","random","","",""
"","481","32","1101","0","test_block","poldrack-single-stim","351","592166","0.0-5.0-337.0","go-nogo","true","0","","true","<div class = centerbox><div  id = stim1></div></div>","32","32","750","","test","go","337","random","","",""
"","303","32","1137","0","test_block","poldrack-single-stim","352","593316","0.0-5.0-338.0","go-nogo","true","0","","true","<div class = centerbox><div  id = stim1></div></div>","32","32","750","","test","go","338","random","","",""
"","373","32","1242","0","test_block","poldrack-single-stim","353","594566","0.0-5.0-339.0","go-nogo","true","0","","true","<div class = centerbox><div  id = stim1></div></div>","32","32","750","","test","go","339","random","","",""
"","348","32","1281","0","test_block","poldrack-single-stim","354","595854","0.0-5.0-340.0","go-nogo","true","0","","true","<div class = centerbox><div  id = stim1></div></div>","32","32","750","","test","go","340","random","","",""
"","300","32","1450","0","test_block","poldrack-single-stim","355","597311","0.0-5.0-341.0","go-nogo","true","0","","true","<div class = centerbox><div  id = stim1></div></div>","32","32","750","","test","go","341","random","","",""
"","362","32","1344","0","test_block","poldrack-single-stim","356","598663","0.0-5.0-342.0","go-nogo","true","0","","true","<div class = centerbox><div  id = stim1></div></div>","32","32","750","","test","go","342","random","","",""
"","-1","-1","1399","0","test_block","poldrack-single-stim","357","600071","0.0-5.0-343.0","go-nogo","true","0","","true","<div class = centerbox><div  id = stim2></div></div>","-1","32","750","","test","nogo","343","random","","",""
"","330","32","1082","0","test_block","poldrack-single-stim","358","601162","0.0-5.0-344.0","go-nogo","true","0","","true","<div class = centerbox><div  id = stim1></div></div>","32","32","750","","test","go","344","random","","",""
"","304","32","1410","0","test_block","poldrack-single-stim","359","602579","0.0-5.0-345.0","go-nogo","true","0","","true","<div class = centerbox><div  id = stim1></div></div>","32","32","750","","test","go","345","random","","",""
"","318","32","1113","0","test_block","poldrack-single-stim","360","603700","0.0-5.0-346.0","go-nogo","true","0","","true","<div class = centerbox><div  id = stim1></div></div>","32","32","750","","test","go","346","random","","",""
"","-1","-1","1258","0","test_block","poldrack-single-stim","361","604967","0.0-5.0-347.0","go-nogo","true","0","","true","<div class = centerbox><div  id = stim2></div></div>","-1","32","750","","test","nogo","347","random","","",""
"","291","32","1259","0","test_block","poldrack-single-stim","362","606254","0.0-5.0-348.0","go-nogo","true","0","","true","<div class = centerbox><div  id = stim1></div></div>","32","32","750","","test","go","348","random","","",""
"","333","32","1428","0","test_block","poldrack-single-stim","363","607688","0.0-5.0-349.0","go-nogo","true","0","","true","<div class = centerbox><div  id = stim1></div></div>","32","32","750","","test","go","349","random","","",""
"","131523","","","","post task questions","survey-text","364","739226","0.0-7.0","go-nogo","true","1","","","","","","","","","","","","{""Q0"":""DECISION MAKING"",""Q1"":""NO""}","",""
"<div class = centerbox><p class = center-block-text>Thanks for completing this task!</p><p class = center-block-text>Insert the following code to collect your payment at Amazon Mechanical Turk:</p><p class = center-block-text>82659317</p><p class = center-block-text>Press <strong>enter</strong> to continue.</p></div>","21605","13","21605","0","end","poldrack-text","365","761834","0.0-8.0","go-nogo","true","1","","","","","","","","","","","","","82659317","true"
