"text","rt","key_press","block_duration","timing_post_trial","trial_id","trial_type","trial_index","time_elapsed","internal_node_id","exp_id","full_screen","focus_shifts","view_history","correct","stimulus","correct_response","possible_responses","stim_duration","feedback_duration","exp_stage","condition","trial_num","mode","responses","payment_id","credit_var"
"<div class = centerbox><p class = center-block-text>Welcome to the experiment. This task will take around 10 minutes. Press <strong>enter</strong> to begin.</p></div>","2445","13","2445","0","instruction","poldrack-text","0","2447","0.0-0.0-0.0","go-nogo","true","0","","","","","","","","","","","","","",""
"","7805","","","","instruction","poldrack-instructions","1","10252","0.0-0.0-1.0","go-nogo","true","0","[{""page_index"":0,""viewing_time"":7805}]","","","","","","","","","","","","",""
"","542","32","1464","250","practice","poldrack-categorize","2","13723","0.0-1.0-0.0","go-nogo","true","0","","true","<div class = centerbox><div  id = stim1></div></div>","32","32","750","1000","practice","go","0","random","","",""
"","-1","-1","1069","250","practice","poldrack-categorize","3","16047","0.0-1.0-1.0","go-nogo","true","0","","true","<div class = centerbox><div id = stim2></div></div>","-1","32","750","1000","practice","nogo","1","random","","",""
"","323","32","1305","250","practice","poldrack-categorize","4","18608","0.0-1.0-2.0","go-nogo","true","0","","true","<div class = centerbox><div  id = stim1></div></div>","32","32","750","1000","practice","go","2","random","","",""
"","-1","-1","1183","250","practice","poldrack-categorize","5","21047","0.0-1.0-3.0","go-nogo","true","0","","true","<div class = centerbox><div id = stim2></div></div>","-1","32","750","1000","practice","nogo","3","random","","",""
"","403","32","1025","250","practice","poldrack-categorize","6","23326","0.0-1.0-4.0","go-nogo","true","0","","true","<div class = centerbox><div  id = stim1></div></div>","32","32","750","1000","practice","go","4","random","","",""
"","-1","-1","1463","250","practice","poldrack-categorize","7","26045","0.0-1.0-5.0","go-nogo","true","1","","true","<div class = centerbox><div id = stim2></div></div>","-1","32","750","1000","practice","nogo","5","random","","",""
"","-1","-1","1313","250","practice","poldrack-categorize","8","28612","0.0-1.0-6.0","go-nogo","true","0","","false","<div class = centerbox><div  id = stim1></div></div>","32","32","750","1000","practice","go","6","random","","",""
"","-1","-1","1297","250","practice","poldrack-categorize","9","31164","0.0-1.0-7.0","go-nogo","true","0","","true","<div class = centerbox><div id = stim2></div></div>","-1","32","750","1000","practice","nogo","7","random","","",""
"","309","32","1075","250","practice","poldrack-categorize","10","33495","0.0-1.0-8.0","go-nogo","true","0","","true","<div class = centerbox><div  id = stim1></div></div>","32","32","750","1000","practice","go","8","random","","",""
"","-1","-1","1484","250","practice","poldrack-categorize","11","36233","0.0-1.0-9.0","go-nogo","true","1","","true","<div class = centerbox><div id = stim2></div></div>","-1","32","750","1000","practice","nogo","9","random","","",""
"","","","","","reset_trial","call-function","12","36484","0.0-3.0","go-nogo","true","0","","","","","","","","","","","","","",""
"<div class = centerbox><p class = block-text>Practice is over, we will now begin the experiment. You will no longer get feedback about your responses.</p><p class = block-text>Remember, if you see the <font color=""orange"">orange</font> square you should <strong> respond by pressing the spacebar as quickly as possible</strong>. If you see the <font color=""blue"">blue</font> square you should <strong> not respond</strong>. Press <strong>enter</strong> to begin.</p></div>","4617","13","4617","1000","test_intro","poldrack-text","13","41102","0.0-4.0","go-nogo","true","0","","","","","","","","","","","","","",""
"","325","32","1330","0","test_block","poldrack-single-stim","14","43436","0.0-5.0-0.0","go-nogo","true","0","","true","<div class = centerbox><div  id = stim1></div></div>","32","32","750","","test","go","0","random","","",""
"","468","32","1236","0","test_block","poldrack-single-stim","15","44727","0.0-5.0-1.0","go-nogo","true","0","","true","<div class = centerbox><div  id = stim1></div></div>","32","32","750","","test","go","1","random","","",""
"","333","32","1197","0","test_block","poldrack-single-stim","16","45951","0.0-5.0-2.0","go-nogo","true","0","","true","<div class = centerbox><div  id = stim1></div></div>","32","32","750","","test","go","2","random","","",""
"","304","32","1247","0","test_block","poldrack-single-stim","17","47221","0.0-5.0-3.0","go-nogo","true","0","","true","<div class = centerbox><div  id = stim1></div></div>","32","32","750","","test","go","3","random","","",""
"","355","32","1106","0","test_block","poldrack-single-stim","18","48350","0.0-5.0-4.0","go-nogo","true","0","","true","<div class = centerbox><div  id = stim1></div></div>","32","32","750","","test","go","4","random","","",""
"","-1","-1","1230","0","test_block","poldrack-single-stim","19","49606","0.0-5.0-5.0","go-nogo","true","0","","true","<div class = centerbox><div  id = stim2></div></div>","-1","32","750","","test","nogo","5","random","","",""
"","523","32","1138","0","test_block","poldrack-single-stim","20","50773","0.0-5.0-6.0","go-nogo","true","0","","true","<div class = centerbox><div  id = stim1></div></div>","32","32","750","","test","go","6","random","","",""
"","-1","-1","1152","0","test_block","poldrack-single-stim","21","51949","0.0-5.0-7.0","go-nogo","true","0","","true","<div class = centerbox><div  id = stim2></div></div>","-1","32","750","","test","nogo","7","random","","",""
"","463","32","1307","0","test_block","poldrack-single-stim","22","53275","0.0-5.0-8.0","go-nogo","true","0","","true","<div class = centerbox><div  id = stim1></div></div>","32","32","750","","test","go","8","random","","",""
"","377","32","1439","0","test_block","poldrack-single-stim","23","54733","0.0-5.0-9.0","go-nogo","true","0","","true","<div class = centerbox><div  id = stim1></div></div>","32","32","750","","test","go","9","random","","",""
"","372","32","1264","0","test_block","poldrack-single-stim","24","56026","0.0-5.0-10.0","go-nogo","true","0","","true","<div class = centerbox><div  id = stim1></div></div>","32","32","750","","test","go","10","random","","",""
"","351","32","1296","0","test_block","poldrack-single-stim","25","57343","0.0-5.0-11.0","go-nogo","true","0","","true","<div class = centerbox><div  id = stim1></div></div>","32","32","750","","test","go","11","random","","",""
"","320","32","1165","0","test_block","poldrack-single-stim","26","58524","0.0-5.0-12.0","go-nogo","true","0","","true","<div class = centerbox><div  id = stim1></div></div>","32","32","750","","test","go","12","random","","",""
"","380","32","1321","0","test_block","poldrack-single-stim","27","59868","0.0-5.0-13.0","go-nogo","true","0","","true","<div class = centerbox><div  id = stim1></div></div>","32","32","750","","test","go","13","random","","",""
"","316","32","1109","0","test_block","poldrack-single-stim","28","61000","0.0-5.0-14.0","go-nogo","true","0","","true","<div class = centerbox><div  id = stim1></div></div>","32","32","750","","test","go","14","random","","",""
"","337","32","1156","0","test_block","poldrack-single-stim","29","62177","0.0-5.0-15.0","go-nogo","true","0","","true","<div class = centerbox><div  id = stim1></div></div>","32","32","750","","test","go","15","random","","",""
"","344","32","1371","0","test_block","poldrack-single-stim","30","63570","0.0-5.0-16.0","go-nogo","true","0","","true","<div class = centerbox><div  id = stim1></div></div>","32","32","750","","test","go","16","random","","",""
"","329","32","1002","0","test_block","poldrack-single-stim","31","64592","0.0-5.0-17.0","go-nogo","true","0","","true","<div class = centerbox><div  id = stim1></div></div>","32","32","750","","test","go","17","random","","",""
"","348","32","1416","0","test_block","poldrack-single-stim","32","66027","0.0-5.0-18.0","go-nogo","true","0","","true","<div class = centerbox><div  id = stim1></div></div>","32","32","750","","test","go","18","random","","",""
"","379","32","1194","0","test_block","poldrack-single-stim","33","67237","0.0-5.0-19.0","go-nogo","true","0","","true","<div class = centerbox><div  id = stim1></div></div>","32","32","750","","test","go","19","random","","",""
"","363","32","1497","0","test_block","poldrack-single-stim","34","68750","0.0-5.0-20.0","go-nogo","true","0","","true","<div class = centerbox><div  id = stim1></div></div>","32","32","750","","test","go","20","random","","",""
"","325","32","1305","0","test_block","poldrack-single-stim","35","70075","0.0-5.0-21.0","go-nogo","true","0","","true","<div class = centerbox><div  id = stim1></div></div>","32","32","750","","test","go","21","random","","",""
"","346","32","1406","0","test_block","poldrack-single-stim","36","71499","0.0-5.0-22.0","go-nogo","true","0","","true","<div class = centerbox><div  id = stim1></div></div>","32","32","750","","test","go","22","random","","",""
"","411","32","1325","0","test_block","poldrack-single-stim","37","72849","0.0-5.0-23.0","go-nogo","true","0","","true","<div class = centerbox><div  id = stim1></div></div>","32","32","750","","test","go","23","random","","",""
"","464","32","1331","0","test_block","poldrack-single-stim","38","74201","0.0-5.0-24.0","go-nogo","true","0","","true","<div class = centerbox><div  id = stim1></div></div>","32","32","750","","test","go","24","random","","",""
"","316","32","1228","0","test_block","poldrack-single-stim","39","75447","0.0-5.0-25.0","go-nogo","true","0","","true","<div class = centerbox><div  id = stim1></div></div>","32","32","750","","test","go","25","random","","",""
"","339","32","1179","0","test_block","poldrack-single-stim","40","76646","0.0-5.0-26.0","go-nogo","true","0","","true","<div class = centerbox><div  id = stim1></div></div>","32","32","750","","test","go","26","random","","",""
"","349","32","1110","0","test_block","poldrack-single-stim","41","77776","0.0-5.0-27.0","go-nogo","true","0","","true","<div class = centerbox><div  id = stim1></div></div>","32","32","750","","test","go","27","random","","",""
"","446","32","1067","0","test_block","poldrack-single-stim","42","78859","0.0-5.0-28.0","go-nogo","true","0","","true","<div class = centerbox><div  id = stim1></div></div>","32","32","750","","test","go","28","random","","",""
"","335","32","1482","0","test_block","poldrack-single-stim","43","80362","0.0-5.0-29.0","go-nogo","true","0","","true","<div class = centerbox><div  id = stim1></div></div>","32","32","750","","test","go","29","random","","",""
"","292","32","1419","0","test_block","poldrack-single-stim","44","81798","0.0-5.0-30.0","go-nogo","true","0","","true","<div class = centerbox><div  id = stim1></div></div>","32","32","750","","test","go","30","random","","",""
"","-1","-1","1452","0","test_block","poldrack-single-stim","45","83265","0.0-5.0-31.0","go-nogo","true","0","","true","<div class = centerbox><div  id = stim2></div></div>","-1","32","750","","test","nogo","31","random","","",""
"","407","32","1144","0","test_block","poldrack-single-stim","46","84424","0.0-5.0-32.0","go-nogo","true","0","","true","<div class = centerbox><div  id = stim1></div></div>","32","32","750","","test","go","32","random","","",""
"","310","32","1075","0","test_block","poldrack-single-stim","47","85516","0.0-5.0-33.0","go-nogo","true","0","","true","<div class = centerbox><div  id = stim1></div></div>","32","32","750","","test","go","33","random","","",""
"","338","32","1320","0","test_block","poldrack-single-stim","48","86852","0.0-5.0-34.0","go-nogo","true","0","","true","<div class = centerbox><div  id = stim1></div></div>","32","32","750","","test","go","34","random","","",""
"","312","32","1419","0","test_block","poldrack-single-stim","49","88290","0.0-5.0-35.0","go-nogo","true","0","","true","<div class = centerbox><div  id = stim1></div></div>","32","32","750","","test","go","35","random","","",""
"","317","32","1156","0","test_block","poldrack-single-stim","50","89461","0.0-5.0-36.0","go-nogo","true","0","","true","<div class = centerbox><div  id = stim1></div></div>","32","32","750","","test","go","36","random","","",""
"","417","32","1463","0","test_block","poldrack-single-stim","51","90941","0.0-5.0-37.0","go-nogo","true","0","","true","<div class = centerbox><div  id = stim1></div></div>","32","32","750","","test","go","37","random","","",""
"","295","32","1141","0","test_block","poldrack-single-stim","52","92100","0.0-5.0-38.0","go-nogo","true","0","","true","<div class = centerbox><div  id = stim1></div></div>","32","32","750","","test","go","38","random","","",""
"","306","32","1029","0","test_block","poldrack-single-stim","53","93145","0.0-5.0-39.0","go-nogo","true","0","","true","<div class = centerbox><div  id = stim1></div></div>","32","32","750","","test","go","39","random","","",""
"","309","32","1348","0","test_block","poldrack-single-stim","54","94509","0.0-5.0-40.0","go-nogo","true","0","","true","<div class = centerbox><div  id = stim1></div></div>","32","32","750","","test","go","40","random","","",""
"","298","32","1414","0","test_block","poldrack-single-stim","55","95938","0.0-5.0-41.0","go-nogo","true","0","","true","<div class = centerbox><div  id = stim1></div></div>","32","32","750","","test","go","41","random","","",""
"","293","32","1332","0","test_block","poldrack-single-stim","56","97286","0.0-5.0-42.0","go-nogo","true","0","","true","<div class = centerbox><div  id = stim1></div></div>","32","32","750","","test","go","42","random","","",""
"","345","32","1213","0","test_block","poldrack-single-stim","57","98514","0.0-5.0-43.0","go-nogo","true","0","","true","<div class = centerbox><div  id = stim1></div></div>","32","32","750","","test","go","43","random","","",""
"","323","32","1492","0","test_block","poldrack-single-stim","58","100023","0.0-5.0-44.0","go-nogo","true","0","","true","<div class = centerbox><div  id = stim1></div></div>","32","32","750","","test","go","44","random","","",""
"","287","32","1408","0","test_block","poldrack-single-stim","59","101447","0.0-5.0-45.0","go-nogo","true","0","","true","<div class = centerbox><div  id = stim1></div></div>","32","32","750","","test","go","45","random","","",""
"","344","32","1209","0","test_block","poldrack-single-stim","60","102671","0.0-5.0-46.0","go-nogo","true","0","","true","<div class = centerbox><div  id = stim1></div></div>","32","32","750","","test","go","46","random","","",""
"","487","32","1404","0","test_block","poldrack-single-stim","61","104092","0.0-5.0-47.0","go-nogo","true","0","","true","<div class = centerbox><div  id = stim1></div></div>","32","32","750","","test","go","47","random","","",""
"","441","32","1131","0","test_block","poldrack-single-stim","62","105241","0.0-5.0-48.0","go-nogo","true","0","","true","<div class = centerbox><div  id = stim1></div></div>","32","32","750","","test","go","48","random","","",""
"","326","32","1476","0","test_block","poldrack-single-stim","63","106733","0.0-5.0-49.0","go-nogo","true","0","","true","<div class = centerbox><div  id = stim1></div></div>","32","32","750","","test","go","49","random","","",""
"","290","32","1303","0","test_block","poldrack-single-stim","64","108051","0.0-5.0-50.0","go-nogo","true","0","","true","<div class = centerbox><div  id = stim1></div></div>","32","32","750","","test","go","50","random","","",""
"","317","32","1184","0","test_block","poldrack-single-stim","65","109250","0.0-5.0-51.0","go-nogo","true","0","","true","<div class = centerbox><div  id = stim1></div></div>","32","32","750","","test","go","51","random","","",""
"","600","32","1209","0","test_block","poldrack-single-stim","66","110471","0.0-5.0-52.0","go-nogo","true","0","","false","<div class = centerbox><div  id = stim2></div></div>","-1","32","750","","test","nogo","52","random","","",""
"","393","32","1289","0","test_block","poldrack-single-stim","67","111775","0.0-5.0-53.0","go-nogo","true","0","","true","<div class = centerbox><div  id = stim1></div></div>","32","32","750","","test","go","53","random","","",""
"","367","32","1299","0","test_block","poldrack-single-stim","68","113090","0.0-5.0-54.0","go-nogo","true","0","","true","<div class = centerbox><div  id = stim1></div></div>","32","32","750","","test","go","54","random","","",""
"","278","32","1318","0","test_block","poldrack-single-stim","69","114423","0.0-5.0-55.0","go-nogo","true","0","","true","<div class = centerbox><div  id = stim1></div></div>","32","32","750","","test","go","55","random","","",""
"","279","32","1474","0","test_block","poldrack-single-stim","70","115914","0.0-5.0-56.0","go-nogo","true","0","","true","<div class = centerbox><div  id = stim1></div></div>","32","32","750","","test","go","56","random","","",""
"","326","32","1490","0","test_block","poldrack-single-stim","71","117418","0.0-5.0-57.0","go-nogo","true","0","","true","<div class = centerbox><div  id = stim1></div></div>","32","32","750","","test","go","57","random","","",""
"","306","32","1387","0","test_block","poldrack-single-stim","72","118823","0.0-5.0-58.0","go-nogo","true","0","","true","<div class = centerbox><div  id = stim1></div></div>","32","32","750","","test","go","58","random","","",""
"","324","32","1269","0","test_block","poldrack-single-stim","73","120112","0.0-5.0-59.0","go-nogo","true","0","","true","<div class = centerbox><div  id = stim1></div></div>","32","32","750","","test","go","59","random","","",""
"","440","32","1167","0","test_block","poldrack-single-stim","74","121294","0.0-5.0-60.0","go-nogo","true","0","","true","<div class = centerbox><div  id = stim1></div></div>","32","32","750","","test","go","60","random","","",""
"","-1","-1","1486","0","test_block","poldrack-single-stim","75","122795","0.0-5.0-61.0","go-nogo","true","0","","true","<div class = centerbox><div  id = stim2></div></div>","-1","32","750","","test","nogo","61","random","","",""
"","332","32","1475","0","test_block","poldrack-single-stim","76","124286","0.0-5.0-62.0","go-nogo","true","0","","true","<div class = centerbox><div  id = stim1></div></div>","32","32","750","","test","go","62","random","","",""
"","272","32","1032","0","test_block","poldrack-single-stim","77","125335","0.0-5.0-63.0","go-nogo","true","0","","true","<div class = centerbox><div  id = stim1></div></div>","32","32","750","","test","go","63","random","","",""
"","345","32","1480","0","test_block","poldrack-single-stim","78","126829","0.0-5.0-64.0","go-nogo","true","0","","true","<div class = centerbox><div  id = stim1></div></div>","32","32","750","","test","go","64","random","","",""
"","275","32","1416","0","test_block","poldrack-single-stim","79","128260","0.0-5.0-65.0","go-nogo","true","0","","true","<div class = centerbox><div  id = stim1></div></div>","32","32","750","","test","go","65","random","","",""
"","283","32","1255","0","test_block","poldrack-single-stim","80","129530","0.0-5.0-66.0","go-nogo","true","0","","true","<div class = centerbox><div  id = stim1></div></div>","32","32","750","","test","go","66","random","","",""
"","261","32","1302","0","test_block","poldrack-single-stim","81","130848","0.0-5.0-67.0","go-nogo","true","0","","true","<div class = centerbox><div  id = stim1></div></div>","32","32","750","","test","go","67","random","","",""
"","284","32","1062","0","test_block","poldrack-single-stim","82","131929","0.0-5.0-68.0","go-nogo","true","0","","true","<div class = centerbox><div  id = stim1></div></div>","32","32","750","","test","go","68","random","","",""
"","357","32","1134","0","test_block","poldrack-single-stim","83","133080","0.0-5.0-69.0","go-nogo","true","0","","true","<div class = centerbox><div  id = stim1></div></div>","32","32","750","","test","go","69","random","","",""
"","260","32","1177","0","test_block","poldrack-single-stim","84","134276","0.0-5.0-70.0","go-nogo","true","0","","true","<div class = centerbox><div  id = stim1></div></div>","32","32","750","","test","go","70","random","","",""
"","275","32","1229","0","test_block","poldrack-single-stim","85","135520","0.0-5.0-71.0","go-nogo","true","0","","true","<div class = centerbox><div  id = stim1></div></div>","32","32","750","","test","go","71","random","","",""
"","335","32","1011","0","test_block","poldrack-single-stim","86","136548","0.0-5.0-72.0","go-nogo","true","0","","true","<div class = centerbox><div  id = stim1></div></div>","32","32","750","","test","go","72","random","","",""
"","435","32","1466","0","test_block","poldrack-single-stim","87","138029","0.0-5.0-73.0","go-nogo","true","0","","true","<div class = centerbox><div  id = stim1></div></div>","32","32","750","","test","go","73","random","","",""
"","315","32","1326","0","test_block","poldrack-single-stim","88","139370","0.0-5.0-74.0","go-nogo","true","0","","true","<div class = centerbox><div  id = stim1></div></div>","32","32","750","","test","go","74","random","","",""
"","-1","-1","1072","0","test_block","poldrack-single-stim","89","140456","0.0-5.0-75.0","go-nogo","true","0","","true","<div class = centerbox><div  id = stim2></div></div>","-1","32","750","","test","nogo","75","random","","",""
"","520","32","1204","0","test_block","poldrack-single-stim","90","141675","0.0-5.0-76.0","go-nogo","true","0","","true","<div class = centerbox><div  id = stim1></div></div>","32","32","750","","test","go","76","random","","",""
"","341","32","1392","0","test_block","poldrack-single-stim","91","143082","0.0-5.0-77.0","go-nogo","true","0","","true","<div class = centerbox><div  id = stim1></div></div>","32","32","750","","test","go","77","random","","",""
"","330","32","1479","0","test_block","poldrack-single-stim","92","144580","0.0-5.0-78.0","go-nogo","true","0","","true","<div class = centerbox><div  id = stim1></div></div>","32","32","750","","test","go","78","random","","",""
"","308","32","1151","0","test_block","poldrack-single-stim","93","145747","0.0-5.0-79.0","go-nogo","true","0","","true","<div class = centerbox><div  id = stim1></div></div>","32","32","750","","test","go","79","random","","",""
"","292","32","1495","0","test_block","poldrack-single-stim","94","147258","0.0-5.0-80.0","go-nogo","true","0","","true","<div class = centerbox><div  id = stim1></div></div>","32","32","750","","test","go","80","random","","",""
"","285","32","1284","0","test_block","poldrack-single-stim","95","148558","0.0-5.0-81.0","go-nogo","true","0","","true","<div class = centerbox><div  id = stim1></div></div>","32","32","750","","test","go","81","random","","",""
"","321","32","1271","0","test_block","poldrack-single-stim","96","149845","0.0-5.0-82.0","go-nogo","true","0","","true","<div class = centerbox><div  id = stim1></div></div>","32","32","750","","test","go","82","random","","",""
"","339","32","1297","0","test_block","poldrack-single-stim","97","151157","0.0-5.0-83.0","go-nogo","true","0","","true","<div class = centerbox><div  id = stim1></div></div>","32","32","750","","test","go","83","random","","",""
"","308","32","1340","0","test_block","poldrack-single-stim","98","152511","0.0-5.0-84.0","go-nogo","true","0","","true","<div class = centerbox><div  id = stim1></div></div>","32","32","750","","test","go","84","random","","",""
"","289","32","1468","0","test_block","poldrack-single-stim","99","153994","0.0-5.0-85.0","go-nogo","true","0","","true","<div class = centerbox><div  id = stim1></div></div>","32","32","750","","test","go","85","random","","",""
"","341","32","1404","0","test_block","poldrack-single-stim","100","155413","0.0-5.0-86.0","go-nogo","true","0","","true","<div class = centerbox><div  id = stim1></div></div>","32","32","750","","test","go","86","random","","",""
"","338","32","1409","0","test_block","poldrack-single-stim","101","156838","0.0-5.0-87.0","go-nogo","true","0","","true","<div class = centerbox><div  id = stim1></div></div>","32","32","750","","test","go","87","random","","",""
"","323","32","1437","0","test_block","poldrack-single-stim","102","158289","0.0-5.0-88.0","go-nogo","true","0","","true","<div class = centerbox><div  id = stim1></div></div>","32","32","750","","test","go","88","random","","",""
"","325","32","1048","0","test_block","poldrack-single-stim","103","159353","0.0-5.0-89.0","go-nogo","true","0","","false","<div class = centerbox><div  id = stim2></div></div>","-1","32","750","","test","nogo","89","random","","",""
"","352","32","1283","0","test_block","poldrack-single-stim","104","160651","0.0-5.0-90.0","go-nogo","true","0","","true","<div class = centerbox><div  id = stim1></div></div>","32","32","750","","test","go","90","random","","",""
"","326","32","1182","0","test_block","poldrack-single-stim","105","161847","0.0-5.0-91.0","go-nogo","true","0","","true","<div class = centerbox><div  id = stim1></div></div>","32","32","750","","test","go","91","random","","",""
"","281","32","1267","0","test_block","poldrack-single-stim","106","163128","0.0-5.0-92.0","go-nogo","true","0","","true","<div class = centerbox><div  id = stim1></div></div>","32","32","750","","test","go","92","random","","",""
"","295","32","1340","0","test_block","poldrack-single-stim","107","164484","0.0-5.0-93.0","go-nogo","true","0","","true","<div class = centerbox><div  id = stim1></div></div>","32","32","750","","test","go","93","random","","",""
"","293","32","1195","0","test_block","poldrack-single-stim","108","165692","0.0-5.0-94.0","go-nogo","true","0","","true","<div class = centerbox><div  id = stim1></div></div>","32","32","750","","test","go","94","random","","",""
"","290","32","1013","0","test_block","poldrack-single-stim","109","166721","0.0-5.0-95.0","go-nogo","true","0","","true","<div class = centerbox><div  id = stim1></div></div>","32","32","750","","test","go","95","random","","",""
"","305","32","1192","0","test_block","poldrack-single-stim","110","167934","0.0-5.0-96.0","go-nogo","true","0","","true","<div class = centerbox><div  id = stim1></div></div>","32","32","750","","test","go","96","random","","",""
"","290","32","1469","0","test_block","poldrack-single-stim","111","169418","0.0-5.0-97.0","go-nogo","true","0","","true","<div class = centerbox><div  id = stim1></div></div>","32","32","750","","test","go","97","random","","",""
"","343","32","1429","0","test_block","poldrack-single-stim","112","170862","0.0-5.0-98.0","go-nogo","true","0","","true","<div class = centerbox><div  id = stim1></div></div>","32","32","750","","test","go","98","random","","",""
"","347","32","1147","0","test_block","poldrack-single-stim","113","172023","0.0-5.0-99.0","go-nogo","true","0","","true","<div class = centerbox><div  id = stim1></div></div>","32","32","750","","test","go","99","random","","",""
"","371","32","1356","0","test_block","poldrack-single-stim","114","173393","0.0-5.0-100.0","go-nogo","true","0","","true","<div class = centerbox><div  id = stim1></div></div>","32","32","750","","test","go","100","random","","",""
"","304","32","1004","0","test_block","poldrack-single-stim","115","174410","0.0-5.0-101.0","go-nogo","true","0","","true","<div class = centerbox><div  id = stim1></div></div>","32","32","750","","test","go","101","random","","",""
"","382","32","1482","0","test_block","poldrack-single-stim","116","175907","0.0-5.0-102.0","go-nogo","true","0","","true","<div class = centerbox><div  id = stim1></div></div>","32","32","750","","test","go","102","random","","",""
"","301","32","1434","0","test_block","poldrack-single-stim","117","177356","0.0-5.0-103.0","go-nogo","true","0","","true","<div class = centerbox><div  id = stim1></div></div>","32","32","750","","test","go","103","random","","",""
"","326","32","1069","0","test_block","poldrack-single-stim","118","178438","0.0-5.0-104.0","go-nogo","true","0","","true","<div class = centerbox><div  id = stim1></div></div>","32","32","750","","test","go","104","random","","",""
"","363","32","1015","0","test_block","poldrack-single-stim","119","179467","0.0-5.0-105.0","go-nogo","true","0","","true","<div class = centerbox><div  id = stim1></div></div>","32","32","750","","test","go","105","random","","",""
"","375","32","1467","0","test_block","poldrack-single-stim","120","180947","0.0-5.0-106.0","go-nogo","true","0","","true","<div class = centerbox><div  id = stim1></div></div>","32","32","750","","test","go","106","random","","",""
"","-1","-1","1161","0","test_block","poldrack-single-stim","121","182124","0.0-5.0-107.0","go-nogo","true","0","","true","<div class = centerbox><div  id = stim2></div></div>","-1","32","750","","test","nogo","107","random","","",""
"","310","32","1200","0","test_block","poldrack-single-stim","122","183337","0.0-5.0-108.0","go-nogo","true","0","","true","<div class = centerbox><div  id = stim1></div></div>","32","32","750","","test","go","108","random","","",""
"","319","32","1298","0","test_block","poldrack-single-stim","123","184651","0.0-5.0-109.0","go-nogo","true","0","","true","<div class = centerbox><div  id = stim1></div></div>","32","32","750","","test","go","109","random","","",""
"","308","32","1187","0","test_block","poldrack-single-stim","124","185855","0.0-5.0-110.0","go-nogo","true","0","","true","<div class = centerbox><div  id = stim1></div></div>","32","32","750","","test","go","110","random","","",""
"","290","32","1191","0","test_block","poldrack-single-stim","125","187061","0.0-5.0-111.0","go-nogo","true","0","","true","<div class = centerbox><div  id = stim1></div></div>","32","32","750","","test","go","111","random","","",""
"","-1","-1","1290","0","test_block","poldrack-single-stim","126","188365","0.0-5.0-112.0","go-nogo","true","0","","true","<div class = centerbox><div  id = stim2></div></div>","-1","32","750","","test","nogo","112","random","","",""
"","308","32","1072","0","test_block","poldrack-single-stim","127","189452","0.0-5.0-113.0","go-nogo","true","0","","true","<div class = centerbox><div  id = stim1></div></div>","32","32","750","","test","go","113","random","","",""
"","462","32","1227","0","test_block","poldrack-single-stim","128","190692","0.0-5.0-114.0","go-nogo","true","0","","true","<div class = centerbox><div  id = stim1></div></div>","32","32","750","","test","go","114","random","","",""
"","365","32","1056","0","test_block","poldrack-single-stim","129","191763","0.0-5.0-115.0","go-nogo","true","0","","true","<div class = centerbox><div  id = stim1></div></div>","32","32","750","","test","go","115","random","","",""
"","404","32","1126","0","test_block","poldrack-single-stim","130","192905","0.0-5.0-116.0","go-nogo","true","0","","true","<div class = centerbox><div  id = stim1></div></div>","32","32","750","","test","go","116","random","","",""
"","697","32","1357","0","test_block","poldrack-single-stim","131","194276","0.0-5.0-117.0","go-nogo","true","0","","true","<div class = centerbox><div  id = stim1></div></div>","32","32","750","","test","go","117","random","","",""
"","349","32","1411","0","test_block","poldrack-single-stim","132","195701","0.0-5.0-118.0","go-nogo","true","0","","true","<div class = centerbox><div  id = stim1></div></div>","32","32","750","","test","go","118","random","","",""
"","309","32","1057","0","test_block","poldrack-single-stim","133","196771","0.0-5.0-119.0","go-nogo","true","0","","true","<div class = centerbox><div  id = stim1></div></div>","32","32","750","","test","go","119","random","","",""
"","383","32","1284","0","test_block","poldrack-single-stim","134","198067","0.0-5.0-120.0","go-nogo","true","0","","true","<div class = centerbox><div  id = stim1></div></div>","32","32","750","","test","go","120","random","","",""
"","309","32","1244","0","test_block","poldrack-single-stim","135","199326","0.0-5.0-121.0","go-nogo","true","0","","true","<div class = centerbox><div  id = stim1></div></div>","32","32","750","","test","go","121","random","","",""
"","266","32","1319","0","test_block","poldrack-single-stim","136","200661","0.0-5.0-122.0","go-nogo","true","0","","false","<div class = centerbox><div  id = stim2></div></div>","-1","32","750","","test","nogo","122","random","","",""
"","322","32","1454","0","test_block","poldrack-single-stim","137","202131","0.0-5.0-123.0","go-nogo","true","0","","true","<div class = centerbox><div  id = stim1></div></div>","32","32","750","","test","go","123","random","","",""
"","310","32","1318","0","test_block","poldrack-single-stim","138","203463","0.0-5.0-124.0","go-nogo","true","0","","true","<div class = centerbox><div  id = stim1></div></div>","32","32","750","","test","go","124","random","","",""
"","313","32","1246","0","test_block","poldrack-single-stim","139","204725","0.0-5.0-125.0","go-nogo","true","0","","true","<div class = centerbox><div  id = stim1></div></div>","32","32","750","","test","go","125","random","","",""
"","-1","-1","1385","0","test_block","poldrack-single-stim","140","206124","0.0-5.0-126.0","go-nogo","true","0","","true","<div class = centerbox><div  id = stim2></div></div>","-1","32","750","","test","nogo","126","random","","",""
"","301","32","1203","0","test_block","poldrack-single-stim","141","207341","0.0-5.0-127.0","go-nogo","true","0","","true","<div class = centerbox><div  id = stim1></div></div>","32","32","750","","test","go","127","random","","",""
"","289","32","1112","0","test_block","poldrack-single-stim","142","208470","0.0-5.0-128.0","go-nogo","true","0","","true","<div class = centerbox><div  id = stim1></div></div>","32","32","750","","test","go","128","random","","",""
"","291","32","1059","0","test_block","poldrack-single-stim","143","209543","0.0-5.0-129.0","go-nogo","true","0","","true","<div class = centerbox><div  id = stim1></div></div>","32","32","750","","test","go","129","random","","",""
"","286","32","1205","0","test_block","poldrack-single-stim","144","210767","0.0-5.0-130.0","go-nogo","true","0","","true","<div class = centerbox><div  id = stim1></div></div>","32","32","750","","test","go","130","random","","",""
"","274","32","1307","0","test_block","poldrack-single-stim","145","212089","0.0-5.0-131.0","go-nogo","true","0","","true","<div class = centerbox><div  id = stim1></div></div>","32","32","750","","test","go","131","random","","",""
"","301","32","1142","0","test_block","poldrack-single-stim","146","213249","0.0-5.0-132.0","go-nogo","true","0","","true","<div class = centerbox><div  id = stim1></div></div>","32","32","750","","test","go","132","random","","",""
"","360","32","1076","0","test_block","poldrack-single-stim","147","214338","0.0-5.0-133.0","go-nogo","true","0","","true","<div class = centerbox><div  id = stim1></div></div>","32","32","750","","test","go","133","random","","",""
"","541","32","1229","0","test_block","poldrack-single-stim","148","215584","0.0-5.0-134.0","go-nogo","true","0","","true","<div class = centerbox><div  id = stim1></div></div>","32","32","750","","test","go","134","random","","",""
"","256","32","1475","0","test_block","poldrack-single-stim","149","217075","0.0-5.0-135.0","go-nogo","false","0","","true","<div class = centerbox><div  id = stim1></div></div>","32","32","750","","test","go","135","random","","",""
"","304","32","1260","0","test_block","poldrack-single-stim","150","218348","0.0-5.0-136.0","go-nogo","false","0","","true","<div class = centerbox><div  id = stim1></div></div>","32","32","750","","test","go","136","random","","",""
"","302","32","1365","0","test_block","poldrack-single-stim","151","219727","0.0-5.0-137.0","go-nogo","false","0","","true","<div class = centerbox><div  id = stim1></div></div>","32","32","750","","test","go","137","random","","",""
"","305","32","1152","0","test_block","poldrack-single-stim","152","220894","0.0-5.0-138.0","go-nogo","false","0","","true","<div class = centerbox><div  id = stim1></div></div>","32","32","750","","test","go","138","random","","",""
"","321","32","1155","0","test_block","poldrack-single-stim","153","222065","0.0-5.0-139.0","go-nogo","false","0","","true","<div class = centerbox><div  id = stim1></div></div>","32","32","750","","test","go","139","random","","",""
"","296","32","1088","0","test_block","poldrack-single-stim","154","223167","0.0-5.0-140.0","go-nogo","false","0","","true","<div class = centerbox><div  id = stim1></div></div>","32","32","750","","test","go","140","random","","",""
"","-1","-1","1400","0","test_block","poldrack-single-stim","155","224582","0.0-5.0-141.0","go-nogo","false","0","","true","<div class = centerbox><div  id = stim2></div></div>","-1","32","750","","test","nogo","141","random","","",""
"","-1","-1","1452","0","test_block","poldrack-single-stim","156","226049","0.0-5.0-142.0","go-nogo","false","0","","true","<div class = centerbox><div  id = stim2></div></div>","-1","32","750","","test","nogo","142","random","","",""
"","414","32","1321","0","test_block","poldrack-single-stim","157","227387","0.0-5.0-143.0","go-nogo","false","0","","true","<div class = centerbox><div  id = stim1></div></div>","32","32","750","","test","go","143","random","","",""
"","320","32","1070","0","test_block","poldrack-single-stim","158","228470","0.0-5.0-144.0","go-nogo","false","0","","true","<div class = centerbox><div  id = stim1></div></div>","32","32","750","","test","go","144","random","","",""
"","277","32","1249","0","test_block","poldrack-single-stim","159","229732","0.0-5.0-145.0","go-nogo","false","0","","true","<div class = centerbox><div  id = stim1></div></div>","32","32","750","","test","go","145","random","","",""
"","126","32","1393","0","test_block","poldrack-single-stim","160","231140","0.0-5.0-146.0","go-nogo","false","0","","true","<div class = centerbox><div  id = stim1></div></div>","32","32","750","","test","go","146","random","","",""
"","336","32","1275","0","test_block","poldrack-single-stim","161","232428","0.0-5.0-147.0","go-nogo","false","0","","true","<div class = centerbox><div  id = stim1></div></div>","32","32","750","","test","go","147","random","","",""
"","318","32","1108","0","test_block","poldrack-single-stim","162","233551","0.0-5.0-148.0","go-nogo","false","0","","false","<div class = centerbox><div  id = stim2></div></div>","-1","32","750","","test","nogo","148","random","","",""
"","452","32","1345","0","test_block","poldrack-single-stim","163","234909","0.0-5.0-149.0","go-nogo","false","0","","true","<div class = centerbox><div  id = stim1></div></div>","32","32","750","","test","go","149","random","","",""
"","334","32","1450","0","test_block","poldrack-single-stim","164","236373","0.0-5.0-150.0","go-nogo","false","0","","true","<div class = centerbox><div  id = stim1></div></div>","32","32","750","","test","go","150","random","","",""
"","479","32","1022","0","test_block","poldrack-single-stim","165","237408","0.0-5.0-151.0","go-nogo","false","0","","true","<div class = centerbox><div  id = stim1></div></div>","32","32","750","","test","go","151","random","","",""
"","540","32","1083","0","test_block","poldrack-single-stim","166","238503","0.0-5.0-152.0","go-nogo","false","0","","true","<div class = centerbox><div  id = stim1></div></div>","32","32","750","","test","go","152","random","","",""
"","357","32","1291","0","test_block","poldrack-single-stim","167","239808","0.0-5.0-153.0","go-nogo","false","0","","true","<div class = centerbox><div  id = stim1></div></div>","32","32","750","","test","go","153","random","","",""
"","318","32","1353","0","test_block","poldrack-single-stim","168","241179","0.0-5.0-154.0","go-nogo","false","0","","true","<div class = centerbox><div  id = stim1></div></div>","32","32","750","","test","go","154","random","","",""
"","312","32","1293","0","test_block","poldrack-single-stim","169","242486","0.0-5.0-155.0","go-nogo","false","0","","true","<div class = centerbox><div  id = stim1></div></div>","32","32","750","","test","go","155","random","","",""
"","333","32","1035","0","test_block","poldrack-single-stim","170","243535","0.0-5.0-156.0","go-nogo","false","0","","true","<div class = centerbox><div  id = stim1></div></div>","32","32","750","","test","go","156","random","","",""
"","363","32","1166","0","test_block","poldrack-single-stim","171","244715","0.0-5.0-157.0","go-nogo","false","0","","true","<div class = centerbox><div  id = stim1></div></div>","32","32","750","","test","go","157","random","","",""
"","319","32","1465","0","test_block","poldrack-single-stim","172","246194","0.0-5.0-158.0","go-nogo","false","0","","true","<div class = centerbox><div  id = stim1></div></div>","32","32","750","","test","go","158","random","","",""
"","289","32","1472","0","test_block","poldrack-single-stim","173","247679","0.0-5.0-159.0","go-nogo","false","0","","true","<div class = centerbox><div  id = stim1></div></div>","32","32","750","","test","go","159","random","","",""
"","308","32","1490","0","test_block","poldrack-single-stim","174","249183","0.0-5.0-160.0","go-nogo","false","0","","true","<div class = centerbox><div  id = stim1></div></div>","32","32","750","","test","go","160","random","","",""
"","300","32","1231","0","test_block","poldrack-single-stim","175","250428","0.0-5.0-161.0","go-nogo","false","0","","true","<div class = centerbox><div  id = stim1></div></div>","32","32","750","","test","go","161","random","","",""
"","310","32","1313","0","test_block","poldrack-single-stim","176","251754","0.0-5.0-162.0","go-nogo","false","0","","true","<div class = centerbox><div  id = stim1></div></div>","32","32","750","","test","go","162","random","","",""
"","317","32","1419","0","test_block","poldrack-single-stim","177","253191","0.0-5.0-163.0","go-nogo","false","0","","true","<div class = centerbox><div  id = stim1></div></div>","32","32","750","","test","go","163","random","","",""
"","325","32","1313","0","test_block","poldrack-single-stim","178","254517","0.0-5.0-164.0","go-nogo","false","0","","true","<div class = centerbox><div  id = stim1></div></div>","32","32","750","","test","go","164","random","","",""
"","294","32","1279","0","test_block","poldrack-single-stim","179","255810","0.0-5.0-165.0","go-nogo","false","0","","true","<div class = centerbox><div  id = stim1></div></div>","32","32","750","","test","go","165","random","","",""
"","326","32","1399","0","test_block","poldrack-single-stim","180","257225","0.0-5.0-166.0","go-nogo","false","0","","true","<div class = centerbox><div  id = stim1></div></div>","32","32","750","","test","go","166","random","","",""
"","-1","-1","1000","0","test_block","poldrack-single-stim","181","258241","0.0-5.0-167.0","go-nogo","false","0","","true","<div class = centerbox><div  id = stim2></div></div>","-1","32","750","","test","nogo","167","random","","",""
"","306","32","1227","0","test_block","poldrack-single-stim","182","259482","0.0-5.0-168.0","go-nogo","false","0","","true","<div class = centerbox><div  id = stim1></div></div>","32","32","750","","test","go","168","random","","",""
"","329","32","1456","0","test_block","poldrack-single-stim","183","260952","0.0-5.0-169.0","go-nogo","false","0","","true","<div class = centerbox><div  id = stim1></div></div>","32","32","750","","test","go","169","random","","",""
"","426","32","1410","0","test_block","poldrack-single-stim","184","262376","0.0-5.0-170.0","go-nogo","false","0","","true","<div class = centerbox><div  id = stim1></div></div>","32","32","750","","test","go","170","random","","",""
"","348","32","1321","0","test_block","poldrack-single-stim","185","263710","0.0-5.0-171.0","go-nogo","false","0","","true","<div class = centerbox><div  id = stim1></div></div>","32","32","750","","test","go","171","random","","",""
"","289","32","1328","0","test_block","poldrack-single-stim","186","265056","0.0-5.0-172.0","go-nogo","false","0","","true","<div class = centerbox><div  id = stim1></div></div>","32","32","750","","test","go","172","random","","",""
"","305","32","1084","0","test_block","poldrack-single-stim","187","266156","0.0-5.0-173.0","go-nogo","false","0","","true","<div class = centerbox><div  id = stim1></div></div>","32","32","750","","test","go","173","random","","",""
"","288","32","1434","0","test_block","poldrack-single-stim","188","267602","0.0-5.0-174.0","go-nogo","false","0","","true","<div class = centerbox><div  id = stim1></div></div>","32","32","750","","test","go","174","random","","",""
"","302","32","1322","0","test_block","poldrack-single-stim","189","268941","0.0-5.0-175.0","go-nogo","false","0","","true","<div class = centerbox><div  id = stim1></div></div>","32","32","750","","test","go","175","random","","",""
"","322","32","1490","0","test_block","poldrack-single-stim","190","270448","0.0-5.0-176.0","go-nogo","false","0","","true","<div class = centerbox><div  id = stim1></div></div>","32","32","750","","test","go","176","random","","",""
"","273","32","1368","0","test_block","poldrack-single-stim","191","271832","0.0-5.0-177.0","go-nogo","false","0","","true","<div class = centerbox><div  id = stim1></div></div>","32","32","750","","test","go","177","random","","",""
"","-1","-1","1273","0","test_block","poldrack-single-stim","192","273118","0.0-5.0-178.0","go-nogo","false","0","","true","<div class = centerbox><div  id = stim2></div></div>","-1","32","750","","test","nogo","178","random","","",""
"","389","32","1383","0","test_block","poldrack-single-stim","193","274514","0.0-5.0-179.0","go-nogo","false","0","","true","<div class = centerbox><div  id = stim1></div></div>","32","32","750","","test","go","179","random","","",""
"","302","32","1277","0","test_block","poldrack-single-stim","194","275808","0.0-5.0-180.0","go-nogo","false","0","","true","<div class = centerbox><div  id = stim1></div></div>","32","32","750","","test","go","180","random","","",""
"","292","32","1017","0","test_block","poldrack-single-stim","195","276838","0.0-5.0-181.0","go-nogo","false","0","","false","<div class = centerbox><div  id = stim2></div></div>","-1","32","750","","test","nogo","181","random","","",""
"","-1","-1","1404","0","test_block","poldrack-single-stim","196","278255","0.0-5.0-182.0","go-nogo","false","0","","true","<div class = centerbox><div  id = stim2></div></div>","-1","32","750","","test","nogo","182","random","","",""
"","348","32","1299","0","test_block","poldrack-single-stim","197","279568","0.0-5.0-183.0","go-nogo","false","0","","true","<div class = centerbox><div  id = stim1></div></div>","32","32","750","","test","go","183","random","","",""
"","315","32","1290","0","test_block","poldrack-single-stim","198","280872","0.0-5.0-184.0","go-nogo","false","0","","true","<div class = centerbox><div  id = stim1></div></div>","32","32","750","","test","go","184","random","","",""
"","299","32","1231","0","test_block","poldrack-single-stim","199","282117","0.0-5.0-185.0","go-nogo","false","0","","true","<div class = centerbox><div  id = stim1></div></div>","32","32","750","","test","go","185","random","","",""
"","295","32","1401","0","test_block","poldrack-single-stim","200","283530","0.0-5.0-186.0","go-nogo","false","0","","true","<div class = centerbox><div  id = stim1></div></div>","32","32","750","","test","go","186","random","","",""
"","302","32","1194","0","test_block","poldrack-single-stim","201","284740","0.0-5.0-187.0","go-nogo","false","0","","true","<div class = centerbox><div  id = stim1></div></div>","32","32","750","","test","go","187","random","","",""
"","295","32","1432","0","test_block","poldrack-single-stim","202","286185","0.0-5.0-188.0","go-nogo","false","0","","true","<div class = centerbox><div  id = stim1></div></div>","32","32","750","","test","go","188","random","","",""
"","296","32","1377","0","test_block","poldrack-single-stim","203","287577","0.0-5.0-189.0","go-nogo","false","0","","true","<div class = centerbox><div  id = stim1></div></div>","32","32","750","","test","go","189","random","","",""
"","322","32","1195","0","test_block","poldrack-single-stim","204","288785","0.0-5.0-190.0","go-nogo","false","0","","true","<div class = centerbox><div  id = stim1></div></div>","32","32","750","","test","go","190","random","","",""
"","314","32","1438","0","test_block","poldrack-single-stim","205","290237","0.0-5.0-191.0","go-nogo","false","0","","true","<div class = centerbox><div  id = stim1></div></div>","32","32","750","","test","go","191","random","","",""
"","-1","-1","1025","0","test_block","poldrack-single-stim","206","291278","0.0-5.0-192.0","go-nogo","false","0","","true","<div class = centerbox><div  id = stim2></div></div>","-1","32","750","","test","nogo","192","random","","",""
"","461","32","1301","0","test_block","poldrack-single-stim","207","292593","0.0-5.0-193.0","go-nogo","false","0","","true","<div class = centerbox><div  id = stim1></div></div>","32","32","750","","test","go","193","random","","",""
"","636","32","1097","0","test_block","poldrack-single-stim","208","293700","0.0-5.0-194.0","go-nogo","false","0","","true","<div class = centerbox><div  id = stim1></div></div>","32","32","750","","test","go","194","random","","",""
"","775","32","1311","0","test_block","poldrack-single-stim","209","295025","0.0-5.0-195.0","go-nogo","false","0","","true","<div class = centerbox><div  id = stim1></div></div>","32","32","750","","test","go","195","random","","",""
"","338","32","1485","0","test_block","poldrack-single-stim","210","296524","0.0-5.0-196.0","go-nogo","false","0","","true","<div class = centerbox><div  id = stim1></div></div>","32","32","750","","test","go","196","random","","",""
"","294","32","1311","0","test_block","poldrack-single-stim","211","297849","0.0-5.0-197.0","go-nogo","false","0","","true","<div class = centerbox><div  id = stim1></div></div>","32","32","750","","test","go","197","random","","",""
"","306","32","1160","0","test_block","poldrack-single-stim","212","299024","0.0-5.0-198.0","go-nogo","false","0","","true","<div class = centerbox><div  id = stim1></div></div>","32","32","750","","test","go","198","random","","",""
"","291","32","1296","0","test_block","poldrack-single-stim","213","300333","0.0-5.0-199.0","go-nogo","false","0","","true","<div class = centerbox><div  id = stim1></div></div>","32","32","750","","test","go","199","random","","",""
"","309","32","1042","0","test_block","poldrack-single-stim","214","301389","0.0-5.0-200.0","go-nogo","false","0","","true","<div class = centerbox><div  id = stim1></div></div>","32","32","750","","test","go","200","random","","",""
"","327","32","1103","0","test_block","poldrack-single-stim","215","302505","0.0-5.0-201.0","go-nogo","false","0","","true","<div class = centerbox><div  id = stim1></div></div>","32","32","750","","test","go","201","random","","",""
"","290","32","1226","0","test_block","poldrack-single-stim","216","303745","0.0-5.0-202.0","go-nogo","false","0","","true","<div class = centerbox><div  id = stim1></div></div>","32","32","750","","test","go","202","random","","",""
"","290","32","1169","0","test_block","poldrack-single-stim","217","304928","0.0-5.0-203.0","go-nogo","false","0","","false","<div class = centerbox><div  id = stim2></div></div>","-1","32","750","","test","nogo","203","random","","",""
"","379","32","1455","0","test_block","poldrack-single-stim","218","306397","0.0-5.0-204.0","go-nogo","false","0","","true","<div class = centerbox><div  id = stim1></div></div>","32","32","750","","test","go","204","random","","",""
"","-1","-1","1275","0","test_block","poldrack-single-stim","219","307686","0.0-5.0-205.0","go-nogo","false","0","","true","<div class = centerbox><div  id = stim2></div></div>","-1","32","750","","test","nogo","205","random","","",""
"","262","32","1273","0","test_block","poldrack-single-stim","220","308972","0.0-5.0-206.0","go-nogo","false","0","","true","<div class = centerbox><div  id = stim1></div></div>","32","32","750","","test","go","206","random","","",""
"","367","32","1279","0","test_block","poldrack-single-stim","221","310264","0.0-5.0-207.0","go-nogo","false","0","","true","<div class = centerbox><div  id = stim1></div></div>","32","32","750","","test","go","207","random","","",""
"","289","32","1002","0","test_block","poldrack-single-stim","222","311282","0.0-5.0-208.0","go-nogo","false","0","","true","<div class = centerbox><div  id = stim1></div></div>","32","32","750","","test","go","208","random","","",""
"","377","32","1213","0","test_block","poldrack-single-stim","223","312509","0.0-5.0-209.0","go-nogo","false","0","","true","<div class = centerbox><div  id = stim1></div></div>","32","32","750","","test","go","209","random","","",""
"","295","32","1333","0","test_block","poldrack-single-stim","224","313855","0.0-5.0-210.0","go-nogo","false","0","","true","<div class = centerbox><div  id = stim1></div></div>","32","32","750","","test","go","210","random","","",""
"","252","32","1365","0","test_block","poldrack-single-stim","225","315233","0.0-5.0-211.0","go-nogo","false","0","","true","<div class = centerbox><div  id = stim1></div></div>","32","32","750","","test","go","211","random","","",""
"","296","32","1153","0","test_block","poldrack-single-stim","226","316402","0.0-5.0-212.0","go-nogo","false","0","","true","<div class = centerbox><div  id = stim1></div></div>","32","32","750","","test","go","212","random","","",""
"","304","32","1238","0","test_block","poldrack-single-stim","227","317654","0.0-5.0-213.0","go-nogo","false","0","","true","<div class = centerbox><div  id = stim1></div></div>","32","32","750","","test","go","213","random","","",""
"","277","32","1067","0","test_block","poldrack-single-stim","228","318735","0.0-5.0-214.0","go-nogo","false","0","","true","<div class = centerbox><div  id = stim1></div></div>","32","32","750","","test","go","214","random","","",""
"","275","32","1462","0","test_block","poldrack-single-stim","229","320212","0.0-5.0-215.0","go-nogo","false","0","","true","<div class = centerbox><div  id = stim1></div></div>","32","32","750","","test","go","215","random","","",""
"","303","32","1240","0","test_block","poldrack-single-stim","230","321466","0.0-5.0-216.0","go-nogo","false","0","","true","<div class = centerbox><div  id = stim1></div></div>","32","32","750","","test","go","216","random","","",""
"","311","32","1325","0","test_block","poldrack-single-stim","231","322808","0.0-5.0-217.0","go-nogo","false","0","","true","<div class = centerbox><div  id = stim1></div></div>","32","32","750","","test","go","217","random","","",""
"","-1","-1","1260","0","test_block","poldrack-single-stim","232","324083","0.0-5.0-218.0","go-nogo","false","0","","true","<div class = centerbox><div  id = stim2></div></div>","-1","32","750","","test","nogo","218","random","","",""
"","-1","-1","1343","0","test_block","poldrack-single-stim","233","325445","0.0-5.0-219.0","go-nogo","false","0","","true","<div class = centerbox><div  id = stim2></div></div>","-1","32","750","","test","nogo","219","random","","",""
"","355","32","1228","0","test_block","poldrack-single-stim","234","326689","0.0-5.0-220.0","go-nogo","false","0","","true","<div class = centerbox><div  id = stim1></div></div>","32","32","750","","test","go","220","random","","",""
"","352","32","1285","0","test_block","poldrack-single-stim","235","327989","0.0-5.0-221.0","go-nogo","false","0","","true","<div class = centerbox><div  id = stim1></div></div>","32","32","750","","test","go","221","random","","",""
"","276","32","1457","0","test_block","poldrack-single-stim","236","329461","0.0-5.0-222.0","go-nogo","false","0","","true","<div class = centerbox><div  id = stim1></div></div>","32","32","750","","test","go","222","random","","",""
"","479","32","1379","0","test_block","poldrack-single-stim","237","330853","0.0-5.0-223.0","go-nogo","false","0","","true","<div class = centerbox><div  id = stim1></div></div>","32","32","750","","test","go","223","random","","",""
"","302","32","1499","0","test_block","poldrack-single-stim","238","332366","0.0-5.0-224.0","go-nogo","false","0","","true","<div class = centerbox><div  id = stim1></div></div>","32","32","750","","test","go","224","random","","",""
"","331","32","1215","0","test_block","poldrack-single-stim","239","333597","0.0-5.0-225.0","go-nogo","false","0","","true","<div class = centerbox><div  id = stim1></div></div>","32","32","750","","test","go","225","random","","",""
"","-1","-1","1064","0","test_block","poldrack-single-stim","240","334676","0.0-5.0-226.0","go-nogo","false","0","","true","<div class = centerbox><div  id = stim2></div></div>","-1","32","750","","test","nogo","226","random","","",""
"","510","32","1488","0","test_block","poldrack-single-stim","241","336178","0.0-5.0-227.0","go-nogo","false","0","","true","<div class = centerbox><div  id = stim1></div></div>","32","32","750","","test","go","227","random","","",""
"","664","32","1356","0","test_block","poldrack-single-stim","242","337548","0.0-5.0-228.0","go-nogo","false","0","","true","<div class = centerbox><div  id = stim1></div></div>","32","32","750","","test","go","228","random","","",""
"","359","32","1273","0","test_block","poldrack-single-stim","243","338835","0.0-5.0-229.0","go-nogo","false","0","","true","<div class = centerbox><div  id = stim1></div></div>","32","32","750","","test","go","229","random","","",""
"","302","32","1070","0","test_block","poldrack-single-stim","244","339920","0.0-5.0-230.0","go-nogo","false","0","","true","<div class = centerbox><div  id = stim1></div></div>","32","32","750","","test","go","230","random","","",""
"","306","32","1028","0","test_block","poldrack-single-stim","245","340963","0.0-5.0-231.0","go-nogo","false","0","","true","<div class = centerbox><div  id = stim1></div></div>","32","32","750","","test","go","231","random","","",""
"","286","32","1074","0","test_block","poldrack-single-stim","246","342052","0.0-5.0-232.0","go-nogo","false","0","","true","<div class = centerbox><div  id = stim1></div></div>","32","32","750","","test","go","232","random","","",""
"","309","32","1274","0","test_block","poldrack-single-stim","247","343341","0.0-5.0-233.0","go-nogo","false","0","","true","<div class = centerbox><div  id = stim1></div></div>","32","32","750","","test","go","233","random","","",""
"","286","32","1316","0","test_block","poldrack-single-stim","248","344670","0.0-5.0-234.0","go-nogo","false","0","","true","<div class = centerbox><div  id = stim1></div></div>","32","32","750","","test","go","234","random","","",""
"","313","32","1042","0","test_block","poldrack-single-stim","249","345729","0.0-5.0-235.0","go-nogo","false","0","","true","<div class = centerbox><div  id = stim1></div></div>","32","32","750","","test","go","235","random","","",""
"","330","32","1344","0","test_block","poldrack-single-stim","250","347087","0.0-5.0-236.0","go-nogo","false","0","","true","<div class = centerbox><div  id = stim1></div></div>","32","32","750","","test","go","236","random","","",""
"","292","32","1377","0","test_block","poldrack-single-stim","251","348477","0.0-5.0-237.0","go-nogo","false","0","","true","<div class = centerbox><div  id = stim1></div></div>","32","32","750","","test","go","237","random","","",""
"","310","32","1064","0","test_block","poldrack-single-stim","252","349555","0.0-5.0-238.0","go-nogo","false","0","","true","<div class = centerbox><div  id = stim1></div></div>","32","32","750","","test","go","238","random","","",""
"","319","32","1497","0","test_block","poldrack-single-stim","253","351066","0.0-5.0-239.0","go-nogo","false","0","","true","<div class = centerbox><div  id = stim1></div></div>","32","32","750","","test","go","239","random","","",""
"","296","32","1106","0","test_block","poldrack-single-stim","254","352186","0.0-5.0-240.0","go-nogo","false","0","","true","<div class = centerbox><div  id = stim1></div></div>","32","32","750","","test","go","240","random","","",""
"","313","32","1426","0","test_block","poldrack-single-stim","255","353626","0.0-5.0-241.0","go-nogo","false","0","","true","<div class = centerbox><div  id = stim1></div></div>","32","32","750","","test","go","241","random","","",""
"","286","32","1252","0","test_block","poldrack-single-stim","256","354895","0.0-5.0-242.0","go-nogo","false","0","","true","<div class = centerbox><div  id = stim1></div></div>","32","32","750","","test","go","242","random","","",""
"","-1","-1","1229","0","test_block","poldrack-single-stim","257","356136","0.0-5.0-243.0","go-nogo","false","0","","true","<div class = centerbox><div  id = stim2></div></div>","-1","32","750","","test","nogo","243","random","","",""
"","337","32","1164","0","test_block","poldrack-single-stim","258","357316","0.0-5.0-244.0","go-nogo","false","0","","true","<div class = centerbox><div  id = stim1></div></div>","32","32","750","","test","go","244","random","","",""
"","294","32","1175","0","test_block","poldrack-single-stim","259","358506","0.0-5.0-245.0","go-nogo","false","0","","true","<div class = centerbox><div  id = stim1></div></div>","32","32","750","","test","go","245","random","","",""
"","273","32","1431","0","test_block","poldrack-single-stim","260","359950","0.0-5.0-246.0","go-nogo","false","0","","true","<div class = centerbox><div  id = stim1></div></div>","32","32","750","","test","go","246","random","","",""
"","283","32","1402","0","test_block","poldrack-single-stim","261","361367","0.0-5.0-247.0","go-nogo","false","0","","true","<div class = centerbox><div  id = stim1></div></div>","32","32","750","","test","go","247","random","","",""
"","284","32","1330","0","test_block","poldrack-single-stim","262","362711","0.0-5.0-248.0","go-nogo","false","0","","true","<div class = centerbox><div  id = stim1></div></div>","32","32","750","","test","go","248","random","","",""
"","284","32","1194","0","test_block","poldrack-single-stim","263","363918","0.0-5.0-249.0","go-nogo","false","0","","true","<div class = centerbox><div  id = stim1></div></div>","32","32","750","","test","go","249","random","","",""
"","268","32","1257","0","test_block","poldrack-single-stim","264","365190","0.0-5.0-250.0","go-nogo","false","0","","true","<div class = centerbox><div  id = stim1></div></div>","32","32","750","","test","go","250","random","","",""
"","300","32","1254","0","test_block","poldrack-single-stim","265","366459","0.0-5.0-251.0","go-nogo","false","0","","true","<div class = centerbox><div  id = stim1></div></div>","32","32","750","","test","go","251","random","","",""
"","311","32","1349","0","test_block","poldrack-single-stim","266","367823","0.0-5.0-252.0","go-nogo","false","0","","true","<div class = centerbox><div  id = stim1></div></div>","32","32","750","","test","go","252","random","","",""
"","315","32","1391","0","test_block","poldrack-single-stim","267","369228","0.0-5.0-253.0","go-nogo","false","0","","false","<div class = centerbox><div  id = stim2></div></div>","-1","32","750","","test","nogo","253","random","","",""
"","343","32","1379","0","test_block","poldrack-single-stim","268","370619","0.0-5.0-254.0","go-nogo","false","0","","false","<div class = centerbox><div  id = stim2></div></div>","-1","32","750","","test","nogo","254","random","","",""
"","293","32","1139","0","test_block","poldrack-single-stim","269","371775","0.0-5.0-255.0","go-nogo","false","0","","true","<div class = centerbox><div  id = stim1></div></div>","32","32","750","","test","go","255","random","","",""
"","291","32","1103","0","test_block","poldrack-single-stim","270","372892","0.0-5.0-256.0","go-nogo","false","0","","true","<div class = centerbox><div  id = stim1></div></div>","32","32","750","","test","go","256","random","","",""
"","286","32","1470","0","test_block","poldrack-single-stim","271","374377","0.0-5.0-257.0","go-nogo","false","0","","true","<div class = centerbox><div  id = stim1></div></div>","32","32","750","","test","go","257","random","","",""
"","290","32","1419","0","test_block","poldrack-single-stim","272","375810","0.0-5.0-258.0","go-nogo","false","0","","true","<div class = centerbox><div  id = stim1></div></div>","32","32","750","","test","go","258","random","","",""
"","297","32","1472","0","test_block","poldrack-single-stim","273","377296","0.0-5.0-259.0","go-nogo","false","0","","true","<div class = centerbox><div  id = stim1></div></div>","32","32","750","","test","go","259","random","","",""
"","313","32","1097","0","test_block","poldrack-single-stim","274","378409","0.0-5.0-260.0","go-nogo","false","0","","true","<div class = centerbox><div  id = stim1></div></div>","32","32","750","","test","go","260","random","","",""
"","306","32","1031","0","test_block","poldrack-single-stim","275","379453","0.0-5.0-261.0","go-nogo","false","0","","true","<div class = centerbox><div  id = stim1></div></div>","32","32","750","","test","go","261","random","","",""
"","293","32","1234","0","test_block","poldrack-single-stim","276","380702","0.0-5.0-262.0","go-nogo","false","0","","true","<div class = centerbox><div  id = stim1></div></div>","32","32","750","","test","go","262","random","","",""
"","298","32","1327","0","test_block","poldrack-single-stim","277","382046","0.0-5.0-263.0","go-nogo","false","0","","true","<div class = centerbox><div  id = stim1></div></div>","32","32","750","","test","go","263","random","","",""
"","279","32","1359","0","test_block","poldrack-single-stim","278","383417","0.0-5.0-264.0","go-nogo","false","0","","true","<div class = centerbox><div  id = stim1></div></div>","32","32","750","","test","go","264","random","","",""
"","281","32","1182","0","test_block","poldrack-single-stim","279","384613","0.0-5.0-265.0","go-nogo","false","0","","true","<div class = centerbox><div  id = stim1></div></div>","32","32","750","","test","go","265","random","","",""
"","298","32","1271","0","test_block","poldrack-single-stim","280","385902","0.0-5.0-266.0","go-nogo","false","0","","true","<div class = centerbox><div  id = stim1></div></div>","32","32","750","","test","go","266","random","","",""
"","292","32","1033","0","test_block","poldrack-single-stim","281","386950","0.0-5.0-267.0","go-nogo","false","0","","false","<div class = centerbox><div  id = stim2></div></div>","-1","32","750","","test","nogo","267","random","","",""
"","366","32","1039","0","test_block","poldrack-single-stim","282","388002","0.0-5.0-268.0","go-nogo","false","0","","true","<div class = centerbox><div  id = stim1></div></div>","32","32","750","","test","go","268","random","","",""
"","296","32","1300","0","test_block","poldrack-single-stim","283","389316","0.0-5.0-269.0","go-nogo","false","0","","false","<div class = centerbox><div  id = stim2></div></div>","-1","32","750","","test","nogo","269","random","","",""
"","295","32","1145","0","test_block","poldrack-single-stim","284","390474","0.0-5.0-270.0","go-nogo","false","0","","true","<div class = centerbox><div  id = stim1></div></div>","32","32","750","","test","go","270","random","","",""
"","305","32","1235","0","test_block","poldrack-single-stim","285","391722","0.0-5.0-271.0","go-nogo","false","0","","false","<div class = centerbox><div  id = stim2></div></div>","-1","32","750","","test","nogo","271","random","","",""
"","314","32","1152","0","test_block","poldrack-single-stim","286","392887","0.0-5.0-272.0","go-nogo","false","0","","true","<div class = centerbox><div  id = stim1></div></div>","32","32","750","","test","go","272","random","","",""
"","360","32","1498","0","test_block","poldrack-single-stim","287","394403","0.0-5.0-273.0","go-nogo","false","0","","true","<div class = centerbox><div  id = stim1></div></div>","32","32","750","","test","go","273","random","","",""
"","352","32","1060","0","test_block","poldrack-single-stim","288","395476","0.0-5.0-274.0","go-nogo","false","0","","true","<div class = centerbox><div  id = stim1></div></div>","32","32","750","","test","go","274","random","","",""
"","312","32","1026","0","test_block","poldrack-single-stim","289","396514","0.0-5.0-275.0","go-nogo","false","0","","true","<div class = centerbox><div  id = stim1></div></div>","32","32","750","","test","go","275","random","","",""
"","264","32","1047","0","test_block","poldrack-single-stim","290","397576","0.0-5.0-276.0","go-nogo","false","0","","false","<div class = centerbox><div  id = stim2></div></div>","-1","32","750","","test","nogo","276","random","","",""
"","331","32","1260","0","test_block","poldrack-single-stim","291","398850","0.0-5.0-277.0","go-nogo","false","0","","true","<div class = centerbox><div  id = stim1></div></div>","32","32","750","","test","go","277","random","","",""
"","360","32","1165","0","test_block","poldrack-single-stim","292","400030","0.0-5.0-278.0","go-nogo","false","0","","true","<div class = centerbox><div  id = stim1></div></div>","32","32","750","","test","go","278","random","","",""
"","436","32","1043","0","test_block","poldrack-single-stim","293","401088","0.0-5.0-279.0","go-nogo","false","0","","true","<div class = centerbox><div  id = stim1></div></div>","32","32","750","","test","go","279","random","","",""
"","275","32","1125","0","test_block","poldrack-single-stim","294","402226","0.0-5.0-280.0","go-nogo","false","0","","true","<div class = centerbox><div  id = stim1></div></div>","32","32","750","","test","go","280","random","","",""
"","319","32","1213","0","test_block","poldrack-single-stim","295","403455","0.0-5.0-281.0","go-nogo","false","0","","true","<div class = centerbox><div  id = stim1></div></div>","32","32","750","","test","go","281","random","","",""
"","339","32","1270","0","test_block","poldrack-single-stim","296","404739","0.0-5.0-282.0","go-nogo","false","0","","true","<div class = centerbox><div  id = stim1></div></div>","32","32","750","","test","go","282","random","","",""
"","334","32","1114","0","test_block","poldrack-single-stim","297","405868","0.0-5.0-283.0","go-nogo","false","0","","true","<div class = centerbox><div  id = stim1></div></div>","32","32","750","","test","go","283","random","","",""
"","263","32","1293","0","test_block","poldrack-single-stim","298","407176","0.0-5.0-284.0","go-nogo","false","0","","true","<div class = centerbox><div  id = stim1></div></div>","32","32","750","","test","go","284","random","","",""
"","-1","-1","1281","0","test_block","poldrack-single-stim","299","408470","0.0-5.0-285.0","go-nogo","false","0","","true","<div class = centerbox><div  id = stim2></div></div>","-1","32","750","","test","nogo","285","random","","",""
"","316","32","1071","0","test_block","poldrack-single-stim","300","409555","0.0-5.0-286.0","go-nogo","false","0","","true","<div class = centerbox><div  id = stim1></div></div>","32","32","750","","test","go","286","random","","",""
"","551","32","1242","0","test_block","poldrack-single-stim","301","410812","0.0-5.0-287.0","go-nogo","false","0","","true","<div class = centerbox><div  id = stim1></div></div>","32","32","750","","test","go","287","random","","",""
"","377","32","1390","0","test_block","poldrack-single-stim","302","412222","0.0-5.0-288.0","go-nogo","false","0","","true","<div class = centerbox><div  id = stim1></div></div>","32","32","750","","test","go","288","random","","",""
"","267","32","1131","0","test_block","poldrack-single-stim","303","413369","0.0-5.0-289.0","go-nogo","false","0","","true","<div class = centerbox><div  id = stim1></div></div>","32","32","750","","test","go","289","random","","",""
"","316","32","1228","0","test_block","poldrack-single-stim","304","414610","0.0-5.0-290.0","go-nogo","false","0","","true","<div class = centerbox><div  id = stim1></div></div>","32","32","750","","test","go","290","random","","",""
"","-1","-1","1188","0","test_block","poldrack-single-stim","305","415815","0.0-5.0-291.0","go-nogo","false","0","","true","<div class = centerbox><div  id = stim2></div></div>","-1","32","750","","test","nogo","291","random","","",""
"","414","32","1360","0","test_block","poldrack-single-stim","306","417188","0.0-5.0-292.0","go-nogo","false","0","","true","<div class = centerbox><div  id = stim1></div></div>","32","32","750","","test","go","292","random","","",""
"","295","32","1076","0","test_block","poldrack-single-stim","307","418279","0.0-5.0-293.0","go-nogo","false","0","","true","<div class = centerbox><div  id = stim1></div></div>","32","32","750","","test","go","293","random","","",""
"","308","32","1381","0","test_block","poldrack-single-stim","308","419674","0.0-5.0-294.0","go-nogo","false","0","","true","<div class = centerbox><div  id = stim1></div></div>","32","32","750","","test","go","294","random","","",""
"","426","32","1009","0","test_block","poldrack-single-stim","309","420697","0.0-5.0-295.0","go-nogo","false","0","","true","<div class = centerbox><div  id = stim1></div></div>","32","32","750","","test","go","295","random","","",""
"","347","32","1096","0","test_block","poldrack-single-stim","310","421806","0.0-5.0-296.0","go-nogo","false","0","","true","<div class = centerbox><div  id = stim1></div></div>","32","32","750","","test","go","296","random","","",""
"","286","32","1070","0","test_block","poldrack-single-stim","311","422890","0.0-5.0-297.0","go-nogo","false","0","","true","<div class = centerbox><div  id = stim1></div></div>","32","32","750","","test","go","297","random","","",""
"","241","32","1203","0","test_block","poldrack-single-stim","312","424108","0.0-5.0-298.0","go-nogo","false","0","","true","<div class = centerbox><div  id = stim1></div></div>","32","32","750","","test","go","298","random","","",""
"","368","32","1070","0","test_block","poldrack-single-stim","313","425191","0.0-5.0-299.0","go-nogo","false","0","","true","<div class = centerbox><div  id = stim1></div></div>","32","32","750","","test","go","299","random","","",""
"","237","32","1313","0","test_block","poldrack-single-stim","314","426517","0.0-5.0-300.0","go-nogo","false","0","","true","<div class = centerbox><div  id = stim1></div></div>","32","32","750","","test","go","300","random","","",""
"","541","32","1203","0","test_block","poldrack-single-stim","315","427735","0.0-5.0-301.0","go-nogo","false","0","","true","<div class = centerbox><div  id = stim1></div></div>","32","32","750","","test","go","301","random","","",""
"","332","32","1349","0","test_block","poldrack-single-stim","316","429098","0.0-5.0-302.0","go-nogo","false","0","","true","<div class = centerbox><div  id = stim1></div></div>","32","32","750","","test","go","302","random","","",""
"","291","32","1052","0","test_block","poldrack-single-stim","317","430163","0.0-5.0-303.0","go-nogo","false","0","","true","<div class = centerbox><div  id = stim1></div></div>","32","32","750","","test","go","303","random","","",""
"","322","32","1093","0","test_block","poldrack-single-stim","318","431269","0.0-5.0-304.0","go-nogo","false","0","","true","<div class = centerbox><div  id = stim1></div></div>","32","32","750","","test","go","304","random","","",""
"","271","32","1178","0","test_block","poldrack-single-stim","319","432460","0.0-5.0-305.0","go-nogo","false","0","","true","<div class = centerbox><div  id = stim1></div></div>","32","32","750","","test","go","305","random","","",""
"","305","32","1123","0","test_block","poldrack-single-stim","320","433597","0.0-5.0-306.0","go-nogo","false","0","","true","<div class = centerbox><div  id = stim1></div></div>","32","32","750","","test","go","306","random","","",""
"","304","32","1278","0","test_block","poldrack-single-stim","321","434887","0.0-5.0-307.0","go-nogo","false","0","","true","<div class = centerbox><div  id = stim1></div></div>","32","32","750","","test","go","307","random","","",""
"","288","32","1058","0","test_block","poldrack-single-stim","322","435964","0.0-5.0-308.0","go-nogo","false","0","","true","<div class = centerbox><div  id = stim1></div></div>","32","32","750","","test","go","308","random","","",""
"","305","32","1490","0","test_block","poldrack-single-stim","323","437466","0.0-5.0-309.0","go-nogo","false","0","","true","<div class = centerbox><div  id = stim1></div></div>","32","32","750","","test","go","309","random","","",""
"","327","32","1267","0","test_block","poldrack-single-stim","324","438749","0.0-5.0-310.0","go-nogo","false","0","","true","<div class = centerbox><div  id = stim1></div></div>","32","32","750","","test","go","310","random","","",""
"","302","32","1239","0","test_block","poldrack-single-stim","325","440003","0.0-5.0-311.0","go-nogo","false","0","","true","<div class = centerbox><div  id = stim1></div></div>","32","32","750","","test","go","311","random","","",""
"","313","32","1255","0","test_block","poldrack-single-stim","326","441271","0.0-5.0-312.0","go-nogo","false","0","","true","<div class = centerbox><div  id = stim1></div></div>","32","32","750","","test","go","312","random","","",""
"","276","32","1440","0","test_block","poldrack-single-stim","327","442725","0.0-5.0-313.0","go-nogo","false","0","","true","<div class = centerbox><div  id = stim1></div></div>","32","32","750","","test","go","313","random","","",""
"","328","32","1022","0","test_block","poldrack-single-stim","328","443761","0.0-5.0-314.0","go-nogo","false","0","","true","<div class = centerbox><div  id = stim1></div></div>","32","32","750","","test","go","314","random","","",""
"","329","32","1264","0","test_block","poldrack-single-stim","329","445041","0.0-5.0-315.0","go-nogo","false","0","","true","<div class = centerbox><div  id = stim1></div></div>","32","32","750","","test","go","315","random","","",""
"","291","32","1043","0","test_block","poldrack-single-stim","330","446097","0.0-5.0-316.0","go-nogo","false","0","","true","<div class = centerbox><div  id = stim1></div></div>","32","32","750","","test","go","316","random","","",""
"","284","32","1366","0","test_block","poldrack-single-stim","331","447474","0.0-5.0-317.0","go-nogo","false","0","","true","<div class = centerbox><div  id = stim1></div></div>","32","32","750","","test","go","317","random","","",""
"","314","32","1395","0","test_block","poldrack-single-stim","332","448883","0.0-5.0-318.0","go-nogo","false","0","","true","<div class = centerbox><div  id = stim1></div></div>","32","32","750","","test","go","318","random","","",""
"","304","32","1101","0","test_block","poldrack-single-stim","333","449999","0.0-5.0-319.0","go-nogo","false","0","","true","<div class = centerbox><div  id = stim1></div></div>","32","32","750","","test","go","319","random","","",""
"","326","32","1418","0","test_block","poldrack-single-stim","334","451430","0.0-5.0-320.0","go-nogo","false","0","","true","<div class = centerbox><div  id = stim1></div></div>","32","32","750","","test","go","320","random","","",""
"","286","32","1495","0","test_block","poldrack-single-stim","335","452939","0.0-5.0-321.0","go-nogo","false","0","","true","<div class = centerbox><div  id = stim1></div></div>","32","32","750","","test","go","321","random","","",""
"","288","32","1375","0","test_block","poldrack-single-stim","336","454328","0.0-5.0-322.0","go-nogo","false","0","","true","<div class = centerbox><div  id = stim1></div></div>","32","32","750","","test","go","322","random","","",""
"","267","32","1082","0","test_block","poldrack-single-stim","337","455425","0.0-5.0-323.0","go-nogo","false","0","","true","<div class = centerbox><div  id = stim1></div></div>","32","32","750","","test","go","323","random","","",""
"","356","32","1179","0","test_block","poldrack-single-stim","338","456618","0.0-5.0-324.0","go-nogo","false","0","","true","<div class = centerbox><div  id = stim1></div></div>","32","32","750","","test","go","324","random","","",""
"","255","32","1094","0","test_block","poldrack-single-stim","339","457729","0.0-5.0-325.0","go-nogo","false","0","","true","<div class = centerbox><div  id = stim1></div></div>","32","32","750","","test","go","325","random","","",""
"","259","32","1046","0","test_block","poldrack-single-stim","340","458790","0.0-5.0-326.0","go-nogo","false","0","","true","<div class = centerbox><div  id = stim1></div></div>","32","32","750","","test","go","326","random","","",""
"","-1","-1","1160","0","test_block","poldrack-single-stim","341","459963","0.0-5.0-327.0","go-nogo","false","0","","true","<div class = centerbox><div  id = stim2></div></div>","-1","32","750","","test","nogo","327","random","","",""
"","306","32","1020","0","test_block","poldrack-single-stim","342","460996","0.0-5.0-328.0","go-nogo","false","0","","true","<div class = centerbox><div  id = stim1></div></div>","32","32","750","","test","go","328","random","","",""
"","309","32","1040","0","test_block","poldrack-single-stim","343","462051","0.0-5.0-329.0","go-nogo","false","0","","true","<div class = centerbox><div  id = stim1></div></div>","32","32","750","","test","go","329","random","","",""
"","336","32","1296","0","test_block","poldrack-single-stim","344","463362","0.0-5.0-330.0","go-nogo","false","0","","true","<div class = centerbox><div  id = stim1></div></div>","32","32","750","","test","go","330","random","","",""
"","304","32","1353","0","test_block","poldrack-single-stim","345","464730","0.0-5.0-331.0","go-nogo","false","0","","true","<div class = centerbox><div  id = stim1></div></div>","32","32","750","","test","go","331","random","","",""
"","272","32","1217","0","test_block","poldrack-single-stim","346","465963","0.0-5.0-332.0","go-nogo","false","0","","false","<div class = centerbox><div  id = stim2></div></div>","-1","32","750","","test","nogo","332","random","","",""
"","314","32","1115","0","test_block","poldrack-single-stim","347","467090","0.0-5.0-333.0","go-nogo","false","0","","true","<div class = centerbox><div  id = stim1></div></div>","32","32","750","","test","go","333","random","","",""
"","354","32","1444","0","test_block","poldrack-single-stim","348","468548","0.0-5.0-334.0","go-nogo","false","0","","true","<div class = centerbox><div  id = stim1></div></div>","32","32","750","","test","go","334","random","","",""
"","312","32","1011","0","test_block","poldrack-single-stim","349","469572","0.0-5.0-335.0","go-nogo","false","0","","true","<div class = centerbox><div  id = stim1></div></div>","32","32","750","","test","go","335","random","","",""
"","472","32","1441","0","test_block","poldrack-single-stim","350","471027","0.0-5.0-336.0","go-nogo","false","0","","true","<div class = centerbox><div  id = stim1></div></div>","32","32","750","","test","go","336","random","","",""
"","329","32","1355","0","test_block","poldrack-single-stim","351","472396","0.0-5.0-337.0","go-nogo","false","0","","true","<div class = centerbox><div  id = stim1></div></div>","32","32","750","","test","go","337","random","","",""
"","294","32","1478","0","test_block","poldrack-single-stim","352","473889","0.0-5.0-338.0","go-nogo","false","0","","true","<div class = centerbox><div  id = stim1></div></div>","32","32","750","","test","go","338","random","","",""
"","313","32","1083","0","test_block","poldrack-single-stim","353","474988","0.0-5.0-339.0","go-nogo","false","0","","true","<div class = centerbox><div  id = stim1></div></div>","32","32","750","","test","go","339","random","","",""
"","336","32","1385","0","test_block","poldrack-single-stim","354","476386","0.0-5.0-340.0","go-nogo","false","0","","true","<div class = centerbox><div  id = stim1></div></div>","32","32","750","","test","go","340","random","","",""
"","308","32","1342","0","test_block","poldrack-single-stim","355","477747","0.0-5.0-341.0","go-nogo","false","0","","true","<div class = centerbox><div  id = stim1></div></div>","32","32","750","","test","go","341","random","","",""
"","265","32","1040","0","test_block","poldrack-single-stim","356","478800","0.0-5.0-342.0","go-nogo","false","0","","true","<div class = centerbox><div  id = stim1></div></div>","32","32","750","","test","go","342","random","","",""
"","332","32","1036","0","test_block","poldrack-single-stim","357","479851","0.0-5.0-343.0","go-nogo","false","0","","true","<div class = centerbox><div  id = stim1></div></div>","32","32","750","","test","go","343","random","","",""
"","328","32","1257","0","test_block","poldrack-single-stim","358","481123","0.0-5.0-344.0","go-nogo","false","0","","true","<div class = centerbox><div  id = stim1></div></div>","32","32","750","","test","go","344","random","","",""
"","305","32","1289","0","test_block","poldrack-single-stim","359","482425","0.0-5.0-345.0","go-nogo","false","0","","true","<div class = centerbox><div  id = stim1></div></div>","32","32","750","","test","go","345","random","","",""
"","298","32","1381","0","test_block","poldrack-single-stim","360","483820","0.0-5.0-346.0","go-nogo","false","0","","true","<div class = centerbox><div  id = stim1></div></div>","32","32","750","","test","go","346","random","","",""
"","288","32","1122","0","test_block","poldrack-single-stim","361","484956","0.0-5.0-347.0","go-nogo","false","0","","true","<div class = centerbox><div  id = stim1></div></div>","32","32","750","","test","go","347","random","","",""
"","280","32","1466","0","test_block","poldrack-single-stim","362","486436","0.0-5.0-348.0","go-nogo","false","0","","true","<div class = centerbox><div  id = stim1></div></div>","32","32","750","","test","go","348","random","","",""
"","312","32","1317","0","test_block","poldrack-single-stim","363","487767","0.0-5.0-349.0","go-nogo","false","0","","true","<div class = centerbox><div  id = stim1></div></div>","32","32","750","","test","go","349","random","","",""
"","14622","","","","post task questions","survey-text","364","502404","0.0-7.0","go-nogo","false","0","","","","","","","","","","","","{""Q0"":""Hit space on orange box, don't do anything on blue"",""Q1"":""no""}","",""
"<div class = centerbox><p class = center-block-text>Thanks for completing this task!</p><p class = center-block-text>Insert the following code to collect your payment at Amazon Mechanical Turk:</p><p class = center-block-text>799116317</p><p class = center-block-text>Press <strong>enter</strong> to continue.</p></div>","7498","13","7498","0","end","poldrack-text","365","510904","0.0-8.0","go-nogo","false","0","","","","","","","","","","","","","799116317","true"
