"text","rt","key_press","block_duration","timing_post_trial","trial_id","trial_type","trial_index","time_elapsed","internal_node_id","exp_id","full_screen","focus_shifts","view_history","correct","stimulus","correct_response","possible_responses","stim_duration","feedback_duration","exp_stage","condition","trial_num","mode","responses","payment_id","credit_var"
"<div class = centerbox><p class = center-block-text>Welcome to the experiment. This task will take around 10 minutes. Press <strong>enter</strong> to begin.</p></div>","1951","13","1951","0","instruction","poldrack-text","0","1953","0.0-0.0-0.0","go-nogo","true","0","","","","","","","","","","","","","",""
"","11314","","","","instruction","poldrack-instructions","1","13268","0.0-0.0-1.0","go-nogo","true","0","[{""page_index"":0,""viewing_time"":11313}]","","","","","","","","","","","","",""
"","925","32","1060","250","practice","poldrack-categorize","2","16339","0.0-1.0-0.0","go-nogo","true","0","","true","<div class = centerbox><div  id = stim2></div></div>","32","32","750","1000","practice","go","0","random","","",""
"","367","32","1238","250","practice","poldrack-categorize","3","18838","0.0-1.0-1.0","go-nogo","true","0","","true","<div class = centerbox><div  id = stim2></div></div>","32","32","750","1000","practice","go","1","random","","",""
"","-1","-1","1207","250","practice","poldrack-categorize","4","21298","0.0-1.0-2.0","go-nogo","true","0","","true","<div class = centerbox><div id = stim1></div></div>","-1","32","750","1000","practice","nogo","2","random","","",""
"","369","32","1179","250","practice","poldrack-categorize","5","23731","0.0-1.0-3.0","go-nogo","true","0","","true","<div class = centerbox><div  id = stim2></div></div>","32","32","750","1000","practice","go","3","random","","",""
"","316","32","1095","250","practice","poldrack-categorize","6","26084","0.0-1.0-4.0","go-nogo","true","0","","true","<div class = centerbox><div  id = stim2></div></div>","32","32","750","1000","practice","go","4","random","","",""
"","-1","-1","1237","250","practice","poldrack-categorize","7","28576","0.0-1.0-5.0","go-nogo","true","0","","true","<div class = centerbox><div id = stim1></div></div>","-1","32","750","1000","practice","nogo","5","random","","",""
"","-1","-1","1486","250","practice","poldrack-categorize","8","31315","0.0-1.0-6.0","go-nogo","true","0","","true","<div class = centerbox><div id = stim1></div></div>","-1","32","750","1000","practice","nogo","6","random","","",""
"","352","32","1021","250","practice","poldrack-categorize","9","33589","0.0-1.0-7.0","go-nogo","true","0","","true","<div class = centerbox><div  id = stim2></div></div>","32","32","750","1000","practice","go","7","random","","",""
"","302","32","1135","250","practice","poldrack-categorize","10","35977","0.0-1.0-8.0","go-nogo","true","0","","false","<div class = centerbox><div id = stim1></div></div>","-1","32","750","1000","practice","nogo","8","random","","",""
"","-1","-1","1434","250","practice","poldrack-categorize","11","38666","0.0-1.0-9.0","go-nogo","true","0","","true","<div class = centerbox><div id = stim1></div></div>","-1","32","750","1000","practice","nogo","9","random","","",""
"","","","","","reset_trial","call-function","12","38917","0.0-3.0","go-nogo","true","0","","","","","","","","","","","","","",""
"<div class = centerbox><p class = block-text>Practice is over, we will now begin the experiment. You will no longer get feedback about your responses.</p><p class = block-text>Remember, if you see the <font color=""blue"">blue</font> square you should <strong> respond by pressing the spacebar as quickly as possible</strong>. If you see the <font color=""orange"">orange</font> square you should <strong> not respond</strong>. Press <strong>enter</strong> to begin.</p></div>","2250","13","2250","1000","test_intro","poldrack-text","13","41168","0.0-4.0","go-nogo","true","0","","","","","","","","","","","","","",""
"","469","32","1213","0","test_block","poldrack-single-stim","14","43385","0.0-5.0-0.0","go-nogo","true","0","","true","<div class = centerbox><div  id = stim2></div></div>","32","32","750","","test","go","0","random","","",""
"","-1","-1","1395","0","test_block","poldrack-single-stim","15","44851","0.0-5.0-1.0","go-nogo","true","0","","true","<div class = centerbox><div  id = stim1></div></div>","-1","32","750","","test","nogo","1","random","","",""
"","297","32","1328","0","test_block","poldrack-single-stim","16","46214","0.0-5.0-2.0","go-nogo","true","0","","true","<div class = centerbox><div  id = stim2></div></div>","32","32","750","","test","go","2","random","","",""
"","273","32","1310","0","test_block","poldrack-single-stim","17","47565","0.0-5.0-3.0","go-nogo","true","0","","true","<div class = centerbox><div  id = stim2></div></div>","32","32","750","","test","go","3","random","","",""
"","266","32","1283","0","test_block","poldrack-single-stim","18","48889","0.0-5.0-4.0","go-nogo","true","0","","true","<div class = centerbox><div  id = stim2></div></div>","32","32","750","","test","go","4","random","","",""
"","177","32","1056","0","test_block","poldrack-single-stim","19","50000","0.0-5.0-5.0","go-nogo","true","0","","false","<div class = centerbox><div  id = stim1></div></div>","-1","32","750","","test","nogo","5","random","","",""
"","298","32","1321","0","test_block","poldrack-single-stim","20","51360","0.0-5.0-6.0","go-nogo","true","0","","true","<div class = centerbox><div  id = stim2></div></div>","32","32","750","","test","go","6","random","","",""
"","287","32","1342","0","test_block","poldrack-single-stim","21","52750","0.0-5.0-7.0","go-nogo","true","0","","true","<div class = centerbox><div  id = stim2></div></div>","32","32","750","","test","go","7","random","","",""
"","266","32","1343","0","test_block","poldrack-single-stim","22","54133","0.0-5.0-8.0","go-nogo","true","0","","true","<div class = centerbox><div  id = stim2></div></div>","32","32","750","","test","go","8","random","","",""
"","246","32","1068","0","test_block","poldrack-single-stim","23","55238","0.0-5.0-9.0","go-nogo","true","0","","true","<div class = centerbox><div  id = stim2></div></div>","32","32","750","","test","go","9","random","","",""
"","296","32","1073","0","test_block","poldrack-single-stim","24","56362","0.0-5.0-10.0","go-nogo","true","0","","true","<div class = centerbox><div  id = stim2></div></div>","32","32","750","","test","go","10","random","","",""
"","287","32","1022","0","test_block","poldrack-single-stim","25","57423","0.0-5.0-11.0","go-nogo","true","0","","true","<div class = centerbox><div  id = stim2></div></div>","32","32","750","","test","go","11","random","","",""
"","279","32","1138","0","test_block","poldrack-single-stim","26","58603","0.0-5.0-12.0","go-nogo","true","0","","true","<div class = centerbox><div  id = stim2></div></div>","32","32","750","","test","go","12","random","","",""
"","255","32","1410","0","test_block","poldrack-single-stim","27","60051","0.0-5.0-13.0","go-nogo","true","0","","true","<div class = centerbox><div  id = stim2></div></div>","32","32","750","","test","go","13","random","","",""
"","-1","-1","1280","0","test_block","poldrack-single-stim","28","61372","0.0-5.0-14.0","go-nogo","true","0","","true","<div class = centerbox><div  id = stim1></div></div>","-1","32","750","","test","nogo","14","random","","",""
"","235","32","1316","0","test_block","poldrack-single-stim","29","62729","0.0-5.0-15.0","go-nogo","true","0","","true","<div class = centerbox><div  id = stim2></div></div>","32","32","750","","test","go","15","random","","",""
"","254","32","1076","0","test_block","poldrack-single-stim","30","63846","0.0-5.0-16.0","go-nogo","true","0","","false","<div class = centerbox><div  id = stim1></div></div>","-1","32","750","","test","nogo","16","random","","",""
"","306","32","1088","0","test_block","poldrack-single-stim","31","64974","0.0-5.0-17.0","go-nogo","true","0","","true","<div class = centerbox><div  id = stim2></div></div>","32","32","750","","test","go","17","random","","",""
"","304","32","1418","0","test_block","poldrack-single-stim","32","66425","0.0-5.0-18.0","go-nogo","true","0","","true","<div class = centerbox><div  id = stim2></div></div>","32","32","750","","test","go","18","random","","",""
"","290","32","1417","0","test_block","poldrack-single-stim","33","67878","0.0-5.0-19.0","go-nogo","true","0","","true","<div class = centerbox><div  id = stim2></div></div>","32","32","750","","test","go","19","random","","",""
"","277","32","1442","0","test_block","poldrack-single-stim","34","69356","0.0-5.0-20.0","go-nogo","true","0","","true","<div class = centerbox><div  id = stim2></div></div>","32","32","750","","test","go","20","random","","",""
"","127","32","1233","0","test_block","poldrack-single-stim","35","70625","0.0-5.0-21.0","go-nogo","true","0","","false","<div class = centerbox><div  id = stim1></div></div>","-1","32","750","","test","nogo","21","random","","",""
"","729","32","1358","0","test_block","poldrack-single-stim","36","72020","0.0-5.0-22.0","go-nogo","true","0","","true","<div class = centerbox><div  id = stim2></div></div>","32","32","750","","test","go","22","random","","",""
"","295","32","1349","0","test_block","poldrack-single-stim","37","73405","0.0-5.0-23.0","go-nogo","true","0","","true","<div class = centerbox><div  id = stim2></div></div>","32","32","750","","test","go","23","random","","",""
"","346","32","1174","0","test_block","poldrack-single-stim","38","74620","0.0-5.0-24.0","go-nogo","true","0","","true","<div class = centerbox><div  id = stim2></div></div>","32","32","750","","test","go","24","random","","",""
"","365","32","1457","0","test_block","poldrack-single-stim","39","76115","0.0-5.0-25.0","go-nogo","true","0","","true","<div class = centerbox><div  id = stim2></div></div>","32","32","750","","test","go","25","random","","",""
"","372","32","1348","0","test_block","poldrack-single-stim","40","77503","0.0-5.0-26.0","go-nogo","true","0","","true","<div class = centerbox><div  id = stim2></div></div>","32","32","750","","test","go","26","random","","",""
"","412","32","1268","0","test_block","poldrack-single-stim","41","78818","0.0-5.0-27.0","go-nogo","true","0","","true","<div class = centerbox><div  id = stim2></div></div>","32","32","750","","test","go","27","random","","",""
"","370","32","1275","0","test_block","poldrack-single-stim","42","80136","0.0-5.0-28.0","go-nogo","true","0","","true","<div class = centerbox><div  id = stim2></div></div>","32","32","750","","test","go","28","random","","",""
"","269","32","1158","0","test_block","poldrack-single-stim","43","81336","0.0-5.0-29.0","go-nogo","true","0","","true","<div class = centerbox><div  id = stim2></div></div>","32","32","750","","test","go","29","random","","",""
"","270","32","1484","0","test_block","poldrack-single-stim","44","82860","0.0-5.0-30.0","go-nogo","true","0","","true","<div class = centerbox><div  id = stim2></div></div>","32","32","750","","test","go","30","random","","",""
"","-1","-1","1435","0","test_block","poldrack-single-stim","45","84333","0.0-5.0-31.0","go-nogo","true","0","","true","<div class = centerbox><div  id = stim1></div></div>","-1","32","750","","test","nogo","31","random","","",""
"","400","32","1232","0","test_block","poldrack-single-stim","46","85599","0.0-5.0-32.0","go-nogo","true","0","","true","<div class = centerbox><div  id = stim2></div></div>","32","32","750","","test","go","32","random","","",""
"","318","32","1237","0","test_block","poldrack-single-stim","47","86870","0.0-5.0-33.0","go-nogo","true","0","","false","<div class = centerbox><div  id = stim1></div></div>","-1","32","750","","test","nogo","33","random","","",""
"","312","32","1245","0","test_block","poldrack-single-stim","48","88148","0.0-5.0-34.0","go-nogo","true","0","","true","<div class = centerbox><div  id = stim2></div></div>","32","32","750","","test","go","34","random","","",""
"","312","32","1192","0","test_block","poldrack-single-stim","49","89375","0.0-5.0-35.0","go-nogo","true","0","","true","<div class = centerbox><div  id = stim2></div></div>","32","32","750","","test","go","35","random","","",""
"","350","32","1477","0","test_block","poldrack-single-stim","50","90886","0.0-5.0-36.0","go-nogo","true","0","","true","<div class = centerbox><div  id = stim2></div></div>","32","32","750","","test","go","36","random","","",""
"","262","32","1274","0","test_block","poldrack-single-stim","51","92195","0.0-5.0-37.0","go-nogo","true","0","","true","<div class = centerbox><div  id = stim2></div></div>","32","32","750","","test","go","37","random","","",""
"","312","32","1107","0","test_block","poldrack-single-stim","52","93338","0.0-5.0-38.0","go-nogo","true","0","","true","<div class = centerbox><div  id = stim2></div></div>","32","32","750","","test","go","38","random","","",""
"","307","32","1232","0","test_block","poldrack-single-stim","53","94603","0.0-5.0-39.0","go-nogo","true","0","","true","<div class = centerbox><div  id = stim2></div></div>","32","32","750","","test","go","39","random","","",""
"","193","32","1330","0","test_block","poldrack-single-stim","54","95969","0.0-5.0-40.0","go-nogo","true","0","","true","<div class = centerbox><div  id = stim2></div></div>","32","32","750","","test","go","40","random","","",""
"","284","32","1293","0","test_block","poldrack-single-stim","55","97295","0.0-5.0-41.0","go-nogo","true","0","","true","<div class = centerbox><div  id = stim2></div></div>","32","32","750","","test","go","41","random","","",""
"","285","32","1070","0","test_block","poldrack-single-stim","56","98399","0.0-5.0-42.0","go-nogo","true","0","","true","<div class = centerbox><div  id = stim2></div></div>","32","32","750","","test","go","42","random","","",""
"","191","32","1298","0","test_block","poldrack-single-stim","57","99731","0.0-5.0-43.0","go-nogo","true","0","","true","<div class = centerbox><div  id = stim2></div></div>","32","32","750","","test","go","43","random","","",""
"","0","32","1185","0","test_block","poldrack-single-stim","58","100956","0.0-5.0-44.0","go-nogo","true","0","","true","<div class = centerbox><div  id = stim2></div></div>","32","32","750","","test","go","44","random","","",""
"","385","32","1207","0","test_block","poldrack-single-stim","59","102198","0.0-5.0-45.0","go-nogo","true","0","","true","<div class = centerbox><div  id = stim2></div></div>","32","32","750","","test","go","45","random","","",""
"","296","32","1021","0","test_block","poldrack-single-stim","60","103254","0.0-5.0-46.0","go-nogo","true","0","","true","<div class = centerbox><div  id = stim2></div></div>","32","32","750","","test","go","46","random","","",""
"","298","32","1019","0","test_block","poldrack-single-stim","61","104305","0.0-5.0-47.0","go-nogo","true","0","","true","<div class = centerbox><div  id = stim2></div></div>","32","32","750","","test","go","47","random","","",""
"","166","32","1270","0","test_block","poldrack-single-stim","62","105616","0.0-5.0-48.0","go-nogo","true","0","","true","<div class = centerbox><div  id = stim2></div></div>","32","32","750","","test","go","48","random","","",""
"","347","32","1478","0","test_block","poldrack-single-stim","63","107131","0.0-5.0-49.0","go-nogo","true","0","","true","<div class = centerbox><div  id = stim2></div></div>","32","32","750","","test","go","49","random","","",""
"","178","32","1131","0","test_block","poldrack-single-stim","64","108297","0.0-5.0-50.0","go-nogo","true","0","","true","<div class = centerbox><div  id = stim2></div></div>","32","32","750","","test","go","50","random","","",""
"","213","32","1187","0","test_block","poldrack-single-stim","65","109518","0.0-5.0-51.0","go-nogo","true","0","","true","<div class = centerbox><div  id = stim2></div></div>","32","32","750","","test","go","51","random","","",""
"","226","32","1137","0","test_block","poldrack-single-stim","66","110687","0.0-5.0-52.0","go-nogo","true","0","","true","<div class = centerbox><div  id = stim2></div></div>","32","32","750","","test","go","52","random","","",""
"","177","32","1302","0","test_block","poldrack-single-stim","67","112021","0.0-5.0-53.0","go-nogo","true","0","","true","<div class = centerbox><div  id = stim2></div></div>","32","32","750","","test","go","53","random","","",""
"","166","32","1140","0","test_block","poldrack-single-stim","68","113198","0.0-5.0-54.0","go-nogo","true","0","","true","<div class = centerbox><div  id = stim2></div></div>","32","32","750","","test","go","54","random","","",""
"","205","32","1356","0","test_block","poldrack-single-stim","69","114590","0.0-5.0-55.0","go-nogo","true","0","","true","<div class = centerbox><div  id = stim2></div></div>","32","32","750","","test","go","55","random","","",""
"","248","32","1492","0","test_block","poldrack-single-stim","70","116123","0.0-5.0-56.0","go-nogo","true","0","","true","<div class = centerbox><div  id = stim2></div></div>","32","32","750","","test","go","56","random","","",""
"","170","32","1184","0","test_block","poldrack-single-stim","71","117349","0.0-5.0-57.0","go-nogo","true","0","","true","<div class = centerbox><div  id = stim2></div></div>","32","32","750","","test","go","57","random","","",""
"","257","32","1187","0","test_block","poldrack-single-stim","72","118577","0.0-5.0-58.0","go-nogo","true","0","","true","<div class = centerbox><div  id = stim2></div></div>","32","32","750","","test","go","58","random","","",""
"","262","32","1065","0","test_block","poldrack-single-stim","73","119682","0.0-5.0-59.0","go-nogo","true","0","","false","<div class = centerbox><div  id = stim1></div></div>","-1","32","750","","test","nogo","59","random","","",""
"","293","32","1010","0","test_block","poldrack-single-stim","74","120731","0.0-5.0-60.0","go-nogo","true","0","","true","<div class = centerbox><div  id = stim2></div></div>","32","32","750","","test","go","60","random","","",""
"","320","32","1217","0","test_block","poldrack-single-stim","75","121984","0.0-5.0-61.0","go-nogo","true","0","","true","<div class = centerbox><div  id = stim2></div></div>","32","32","750","","test","go","61","random","","",""
"","264","32","1001","0","test_block","poldrack-single-stim","76","123023","0.0-5.0-62.0","go-nogo","true","0","","true","<div class = centerbox><div  id = stim2></div></div>","32","32","750","","test","go","62","random","","",""
"","302","32","1365","0","test_block","poldrack-single-stim","77","124437","0.0-5.0-63.0","go-nogo","true","0","","true","<div class = centerbox><div  id = stim2></div></div>","32","32","750","","test","go","63","random","","",""
"","337","32","1480","0","test_block","poldrack-single-stim","78","125961","0.0-5.0-64.0","go-nogo","true","0","","true","<div class = centerbox><div  id = stim2></div></div>","32","32","750","","test","go","64","random","","",""
"","-1","-1","1160","0","test_block","poldrack-single-stim","79","127159","0.0-5.0-65.0","go-nogo","true","0","","true","<div class = centerbox><div  id = stim1></div></div>","-1","32","750","","test","nogo","65","random","","",""
"","243","32","1071","0","test_block","poldrack-single-stim","80","128267","0.0-5.0-66.0","go-nogo","true","0","","true","<div class = centerbox><div  id = stim2></div></div>","32","32","750","","test","go","66","random","","",""
"","395","32","1058","0","test_block","poldrack-single-stim","81","129383","0.0-5.0-67.0","go-nogo","true","0","","true","<div class = centerbox><div  id = stim2></div></div>","32","32","750","","test","go","67","random","","",""
"","296","32","1005","0","test_block","poldrack-single-stim","82","130436","0.0-5.0-68.0","go-nogo","true","0","","true","<div class = centerbox><div  id = stim2></div></div>","32","32","750","","test","go","68","random","","",""
"","273","32","1148","0","test_block","poldrack-single-stim","83","131627","0.0-5.0-69.0","go-nogo","true","0","","true","<div class = centerbox><div  id = stim2></div></div>","32","32","750","","test","go","69","random","","",""
"","281","32","1081","0","test_block","poldrack-single-stim","84","132752","0.0-5.0-70.0","go-nogo","true","0","","true","<div class = centerbox><div  id = stim2></div></div>","32","32","750","","test","go","70","random","","",""
"","279","32","1362","0","test_block","poldrack-single-stim","85","134154","0.0-5.0-71.0","go-nogo","true","0","","true","<div class = centerbox><div  id = stim2></div></div>","32","32","750","","test","go","71","random","","",""
"","291","32","1080","0","test_block","poldrack-single-stim","86","135268","0.0-5.0-72.0","go-nogo","true","0","","true","<div class = centerbox><div  id = stim2></div></div>","32","32","750","","test","go","72","random","","",""
"","313","32","1422","0","test_block","poldrack-single-stim","87","136724","0.0-5.0-73.0","go-nogo","true","0","","true","<div class = centerbox><div  id = stim2></div></div>","32","32","750","","test","go","73","random","","",""
"","427","32","1356","0","test_block","poldrack-single-stim","88","138112","0.0-5.0-74.0","go-nogo","true","0","","true","<div class = centerbox><div  id = stim2></div></div>","32","32","750","","test","go","74","random","","",""
"","287","32","1179","0","test_block","poldrack-single-stim","89","139323","0.0-5.0-75.0","go-nogo","true","0","","true","<div class = centerbox><div  id = stim2></div></div>","32","32","750","","test","go","75","random","","",""
"","50","32","1121","0","test_block","poldrack-single-stim","90","140478","0.0-5.0-76.0","go-nogo","true","0","","false","<div class = centerbox><div  id = stim1></div></div>","-1","32","750","","test","nogo","76","random","","",""
"","465","32","1454","0","test_block","poldrack-single-stim","91","141964","0.0-5.0-77.0","go-nogo","true","0","","true","<div class = centerbox><div  id = stim2></div></div>","32","32","750","","test","go","77","random","","",""
"","587","32","1217","0","test_block","poldrack-single-stim","92","143221","0.0-5.0-78.0","go-nogo","true","0","","true","<div class = centerbox><div  id = stim2></div></div>","32","32","750","","test","go","78","random","","",""
"","280","32","1073","0","test_block","poldrack-single-stim","93","144327","0.0-5.0-79.0","go-nogo","true","0","","true","<div class = centerbox><div  id = stim2></div></div>","32","32","750","","test","go","79","random","","",""
"","342","32","1332","0","test_block","poldrack-single-stim","94","145692","0.0-5.0-80.0","go-nogo","true","0","","true","<div class = centerbox><div  id = stim2></div></div>","32","32","750","","test","go","80","random","","",""
"","339","32","1093","0","test_block","poldrack-single-stim","95","146818","0.0-5.0-81.0","go-nogo","true","0","","true","<div class = centerbox><div  id = stim2></div></div>","32","32","750","","test","go","81","random","","",""
"","858","32","1204","0","test_block","poldrack-single-stim","96","148056","0.0-5.0-82.0","go-nogo","true","0","","true","<div class = centerbox><div  id = stim2></div></div>","32","32","750","","test","go","82","random","","",""
"","178","32","1098","0","test_block","poldrack-single-stim","97","149190","0.0-5.0-83.0","go-nogo","true","0","","true","<div class = centerbox><div  id = stim2></div></div>","32","32","750","","test","go","83","random","","",""
"","-1","-1","1063","0","test_block","poldrack-single-stim","98","150806","0.0-5.0-84.0","go-nogo","true","1","","false","<div class = centerbox><div  id = stim2></div></div>","32","32","750","","test","go","84","random","","",""
"","211","32","1441","0","test_block","poldrack-single-stim","99","152300","0.0-5.0-85.0","go-nogo","true","0","","true","<div class = centerbox><div  id = stim2></div></div>","32","32","750","","test","go","85","random","","",""
"","288","32","1301","0","test_block","poldrack-single-stim","100","153651","0.0-5.0-86.0","go-nogo","true","0","","true","<div class = centerbox><div  id = stim2></div></div>","32","32","750","","test","go","86","random","","",""
"","269","32","1155","0","test_block","poldrack-single-stim","101","154852","0.0-5.0-87.0","go-nogo","true","0","","true","<div class = centerbox><div  id = stim2></div></div>","32","32","750","","test","go","87","random","","",""
"","124","32","1142","0","test_block","poldrack-single-stim","102","156040","0.0-5.0-88.0","go-nogo","true","0","","true","<div class = centerbox><div  id = stim2></div></div>","32","32","750","","test","go","88","random","","",""
"","463","32","1293","0","test_block","poldrack-single-stim","103","157388","0.0-5.0-89.0","go-nogo","true","0","","true","<div class = centerbox><div  id = stim2></div></div>","32","32","750","","test","go","89","random","","",""
"","251","32","1352","0","test_block","poldrack-single-stim","104","158779","0.0-5.0-90.0","go-nogo","true","0","","true","<div class = centerbox><div  id = stim2></div></div>","32","32","750","","test","go","90","random","","",""
"","-1","-1","1059","0","test_block","poldrack-single-stim","105","159897","0.0-5.0-91.0","go-nogo","true","0","","true","<div class = centerbox><div  id = stim1></div></div>","-1","32","750","","test","nogo","91","random","","",""
"","0","32","1202","0","test_block","poldrack-single-stim","106","161158","0.0-5.0-92.0","go-nogo","true","0","","true","<div class = centerbox><div  id = stim2></div></div>","32","32","750","","test","go","92","random","","",""
"","303","32","1064","0","test_block","poldrack-single-stim","107","162263","0.0-5.0-93.0","go-nogo","true","0","","true","<div class = centerbox><div  id = stim2></div></div>","32","32","750","","test","go","93","random","","",""
"","287","32","1274","0","test_block","poldrack-single-stim","108","163577","0.0-5.0-94.0","go-nogo","true","0","","false","<div class = centerbox><div  id = stim1></div></div>","-1","32","750","","test","nogo","94","random","","",""
"","269","32","1432","0","test_block","poldrack-single-stim","109","165050","0.0-5.0-95.0","go-nogo","true","0","","true","<div class = centerbox><div  id = stim2></div></div>","32","32","750","","test","go","95","random","","",""
"","248","32","1250","0","test_block","poldrack-single-stim","110","166361","0.0-5.0-96.0","go-nogo","true","0","","true","<div class = centerbox><div  id = stim2></div></div>","32","32","750","","test","go","96","random","","",""
"","549","32","1478","0","test_block","poldrack-single-stim","111","167873","0.0-5.0-97.0","go-nogo","true","0","","true","<div class = centerbox><div  id = stim2></div></div>","32","32","750","","test","go","97","random","","",""
"","188","32","1287","0","test_block","poldrack-single-stim","112","169210","0.0-5.0-98.0","go-nogo","true","0","","false","<div class = centerbox><div  id = stim1></div></div>","-1","32","750","","test","nogo","98","random","","",""
"","317","32","1003","0","test_block","poldrack-single-stim","113","170253","0.0-5.0-99.0","go-nogo","true","0","","true","<div class = centerbox><div  id = stim2></div></div>","32","32","750","","test","go","99","random","","",""
"","330","32","1410","0","test_block","poldrack-single-stim","114","171703","0.0-5.0-100.0","go-nogo","true","0","","true","<div class = centerbox><div  id = stim2></div></div>","32","32","750","","test","go","100","random","","",""
"","291","32","1158","0","test_block","poldrack-single-stim","115","172897","0.0-5.0-101.0","go-nogo","true","0","","true","<div class = centerbox><div  id = stim2></div></div>","32","32","750","","test","go","101","random","","",""
"","229","32","1385","0","test_block","poldrack-single-stim","116","174322","0.0-5.0-102.0","go-nogo","true","0","","true","<div class = centerbox><div  id = stim2></div></div>","32","32","750","","test","go","102","random","","",""
"","-1","-1","1028","0","test_block","poldrack-single-stim","117","175382","0.0-5.0-103.0","go-nogo","true","0","","true","<div class = centerbox><div  id = stim1></div></div>","-1","32","750","","test","nogo","103","random","","",""
"","246","32","1154","0","test_block","poldrack-single-stim","118","176571","0.0-5.0-104.0","go-nogo","true","0","","true","<div class = centerbox><div  id = stim2></div></div>","32","32","750","","test","go","104","random","","",""
"","175","32","1289","0","test_block","poldrack-single-stim","119","177897","0.0-5.0-105.0","go-nogo","true","0","","true","<div class = centerbox><div  id = stim2></div></div>","32","32","750","","test","go","105","random","","",""
"","15","32","1170","0","test_block","poldrack-single-stim","120","179107","0.0-5.0-106.0","go-nogo","true","0","","true","<div class = centerbox><div  id = stim2></div></div>","32","32","750","","test","go","106","random","","",""
"","153","32","1374","0","test_block","poldrack-single-stim","121","180516","0.0-5.0-107.0","go-nogo","true","0","","true","<div class = centerbox><div  id = stim2></div></div>","32","32","750","","test","go","107","random","","",""
"","267","32","1027","0","test_block","poldrack-single-stim","122","181591","0.0-5.0-108.0","go-nogo","true","0","","true","<div class = centerbox><div  id = stim2></div></div>","32","32","750","","test","go","108","random","","",""
"","319","32","1404","0","test_block","poldrack-single-stim","123","183036","0.0-5.0-109.0","go-nogo","true","0","","true","<div class = centerbox><div  id = stim2></div></div>","32","32","750","","test","go","109","random","","",""
"","226","32","1237","0","test_block","poldrack-single-stim","124","184307","0.0-5.0-110.0","go-nogo","true","0","","true","<div class = centerbox><div  id = stim2></div></div>","32","32","750","","test","go","110","random","","",""
"","253","32","1192","0","test_block","poldrack-single-stim","125","185530","0.0-5.0-111.0","go-nogo","true","0","","true","<div class = centerbox><div  id = stim2></div></div>","32","32","750","","test","go","111","random","","",""
"","260","32","1181","0","test_block","poldrack-single-stim","126","186744","0.0-5.0-112.0","go-nogo","true","0","","true","<div class = centerbox><div  id = stim2></div></div>","32","32","750","","test","go","112","random","","",""
"","258","32","1465","0","test_block","poldrack-single-stim","127","188245","0.0-5.0-113.0","go-nogo","true","0","","true","<div class = centerbox><div  id = stim2></div></div>","32","32","750","","test","go","113","random","","",""
"","436","32","1057","0","test_block","poldrack-single-stim","128","189341","0.0-5.0-114.0","go-nogo","true","0","","true","<div class = centerbox><div  id = stim2></div></div>","32","32","750","","test","go","114","random","","",""
"","272","32","1050","0","test_block","poldrack-single-stim","129","190424","0.0-5.0-115.0","go-nogo","true","0","","true","<div class = centerbox><div  id = stim2></div></div>","32","32","750","","test","go","115","random","","",""
"","212","32","1471","0","test_block","poldrack-single-stim","130","191929","0.0-5.0-116.0","go-nogo","true","0","","true","<div class = centerbox><div  id = stim2></div></div>","32","32","750","","test","go","116","random","","",""
"","129","32","1259","0","test_block","poldrack-single-stim","131","193224","0.0-5.0-117.0","go-nogo","true","0","","true","<div class = centerbox><div  id = stim2></div></div>","32","32","750","","test","go","117","random","","",""
"","3","32","1199","0","test_block","poldrack-single-stim","132","194459","0.0-5.0-118.0","go-nogo","true","0","","true","<div class = centerbox><div  id = stim2></div></div>","32","32","750","","test","go","118","random","","",""
"","193","32","1449","0","test_block","poldrack-single-stim","133","195941","0.0-5.0-119.0","go-nogo","true","0","","true","<div class = centerbox><div  id = stim2></div></div>","32","32","750","","test","go","119","random","","",""
"","424","32","1249","0","test_block","poldrack-single-stim","134","197222","0.0-5.0-120.0","go-nogo","true","0","","true","<div class = centerbox><div  id = stim2></div></div>","32","32","750","","test","go","120","random","","",""
"","268","32","1223","0","test_block","poldrack-single-stim","135","198488","0.0-5.0-121.0","go-nogo","true","0","","true","<div class = centerbox><div  id = stim2></div></div>","32","32","750","","test","go","121","random","","",""
"","406","32","1166","0","test_block","poldrack-single-stim","136","199686","0.0-5.0-122.0","go-nogo","true","0","","true","<div class = centerbox><div  id = stim2></div></div>","32","32","750","","test","go","122","random","","",""
"","504","32","1066","0","test_block","poldrack-single-stim","137","200784","0.0-5.0-123.0","go-nogo","true","0","","true","<div class = centerbox><div  id = stim2></div></div>","32","32","750","","test","go","123","random","","",""
"","437","32","1220","0","test_block","poldrack-single-stim","138","202045","0.0-5.0-124.0","go-nogo","true","0","","true","<div class = centerbox><div  id = stim2></div></div>","32","32","750","","test","go","124","random","","",""
"","208","32","1135","0","test_block","poldrack-single-stim","139","203213","0.0-5.0-125.0","go-nogo","true","0","","true","<div class = centerbox><div  id = stim2></div></div>","32","32","750","","test","go","125","random","","",""
"","107","32","1410","0","test_block","poldrack-single-stim","140","204661","0.0-5.0-126.0","go-nogo","true","0","","true","<div class = centerbox><div  id = stim2></div></div>","32","32","750","","test","go","126","random","","",""
"","114","32","1422","0","test_block","poldrack-single-stim","141","206121","0.0-5.0-127.0","go-nogo","true","0","","true","<div class = centerbox><div  id = stim2></div></div>","32","32","750","","test","go","127","random","","",""
"","0","32","1296","0","test_block","poldrack-single-stim","142","207455","0.0-5.0-128.0","go-nogo","true","0","","false","<div class = centerbox><div  id = stim1></div></div>","-1","32","750","","test","nogo","128","random","","",""
"","255","32","1024","0","test_block","poldrack-single-stim","143","208512","0.0-5.0-129.0","go-nogo","true","0","","true","<div class = centerbox><div  id = stim2></div></div>","32","32","750","","test","go","129","random","","",""
"","237","32","1149","0","test_block","poldrack-single-stim","144","209694","0.0-5.0-130.0","go-nogo","true","0","","true","<div class = centerbox><div  id = stim2></div></div>","32","32","750","","test","go","130","random","","",""
"","184","32","1449","0","test_block","poldrack-single-stim","145","211183","0.0-5.0-131.0","go-nogo","true","0","","true","<div class = centerbox><div  id = stim2></div></div>","32","32","750","","test","go","131","random","","",""
"","268","32","1000","0","test_block","poldrack-single-stim","146","212219","0.0-5.0-132.0","go-nogo","true","0","","true","<div class = centerbox><div  id = stim2></div></div>","32","32","750","","test","go","132","random","","",""
"","309","32","1250","0","test_block","poldrack-single-stim","147","213499","0.0-5.0-133.0","go-nogo","true","0","","true","<div class = centerbox><div  id = stim2></div></div>","32","32","750","","test","go","133","random","","",""
"","211","32","1411","0","test_block","poldrack-single-stim","148","214942","0.0-5.0-134.0","go-nogo","true","0","","true","<div class = centerbox><div  id = stim2></div></div>","32","32","750","","test","go","134","random","","",""
"","322","32","1403","0","test_block","poldrack-single-stim","149","216374","0.0-5.0-135.0","go-nogo","true","0","","true","<div class = centerbox><div  id = stim2></div></div>","32","32","750","","test","go","135","random","","",""
"","0","32","1119","0","test_block","poldrack-single-stim","150","217524","0.0-5.0-136.0","go-nogo","true","0","","false","<div class = centerbox><div  id = stim1></div></div>","-1","32","750","","test","nogo","136","random","","",""
"","266","32","1453","0","test_block","poldrack-single-stim","151","219008","0.0-5.0-137.0","go-nogo","true","0","","true","<div class = centerbox><div  id = stim2></div></div>","32","32","750","","test","go","137","random","","",""
"","283","32","1002","0","test_block","poldrack-single-stim","152","220047","0.0-5.0-138.0","go-nogo","true","0","","true","<div class = centerbox><div  id = stim2></div></div>","32","32","750","","test","go","138","random","","",""
"","473","32","1249","0","test_block","poldrack-single-stim","153","221335","0.0-5.0-139.0","go-nogo","true","0","","true","<div class = centerbox><div  id = stim2></div></div>","32","32","750","","test","go","139","random","","",""
"","280","32","1135","0","test_block","poldrack-single-stim","154","222502","0.0-5.0-140.0","go-nogo","true","0","","true","<div class = centerbox><div  id = stim2></div></div>","32","32","750","","test","go","140","random","","",""
"","316","32","1350","0","test_block","poldrack-single-stim","155","223882","0.0-5.0-141.0","go-nogo","true","0","","true","<div class = centerbox><div  id = stim2></div></div>","32","32","750","","test","go","141","random","","",""
"","198","32","1121","0","test_block","poldrack-single-stim","156","225035","0.0-5.0-142.0","go-nogo","true","0","","false","<div class = centerbox><div  id = stim1></div></div>","-1","32","750","","test","nogo","142","random","","",""
"","165","32","1221","0","test_block","poldrack-single-stim","157","226288","0.0-5.0-143.0","go-nogo","true","0","","true","<div class = centerbox><div  id = stim2></div></div>","32","32","750","","test","go","143","random","","",""
"","288","32","1172","0","test_block","poldrack-single-stim","158","227491","0.0-5.0-144.0","go-nogo","true","0","","true","<div class = centerbox><div  id = stim2></div></div>","32","32","750","","test","go","144","random","","",""
"","171","32","1344","0","test_block","poldrack-single-stim","159","228868","0.0-5.0-145.0","go-nogo","true","0","","true","<div class = centerbox><div  id = stim2></div></div>","32","32","750","","test","go","145","random","","",""
"","297","32","1168","0","test_block","poldrack-single-stim","160","230054","0.0-5.0-146.0","go-nogo","true","0","","true","<div class = centerbox><div  id = stim2></div></div>","32","32","750","","test","go","146","random","","",""
"","299","32","1090","0","test_block","poldrack-single-stim","161","231175","0.0-5.0-147.0","go-nogo","true","0","","true","<div class = centerbox><div  id = stim2></div></div>","32","32","750","","test","go","147","random","","",""
"","297","32","1097","0","test_block","poldrack-single-stim","162","232303","0.0-5.0-148.0","go-nogo","true","0","","true","<div class = centerbox><div  id = stim2></div></div>","32","32","750","","test","go","148","random","","",""
"","226","32","1427","0","test_block","poldrack-single-stim","163","233760","0.0-5.0-149.0","go-nogo","true","0","","false","<div class = centerbox><div  id = stim1></div></div>","-1","32","750","","test","nogo","149","random","","",""
"","273","32","1169","0","test_block","poldrack-single-stim","164","234959","0.0-5.0-150.0","go-nogo","true","0","","true","<div class = centerbox><div  id = stim2></div></div>","32","32","750","","test","go","150","random","","",""
"","179","32","1442","0","test_block","poldrack-single-stim","165","236430","0.0-5.0-151.0","go-nogo","true","0","","true","<div class = centerbox><div  id = stim2></div></div>","32","32","750","","test","go","151","random","","",""
"","-1","-1","1101","0","test_block","poldrack-single-stim","166","237563","0.0-5.0-152.0","go-nogo","true","0","","true","<div class = centerbox><div  id = stim1></div></div>","-1","32","750","","test","nogo","152","random","","",""
"","308","32","1152","0","test_block","poldrack-single-stim","167","238746","0.0-5.0-153.0","go-nogo","true","0","","true","<div class = centerbox><div  id = stim2></div></div>","32","32","750","","test","go","153","random","","",""
"","245","32","1301","0","test_block","poldrack-single-stim","168","240078","0.0-5.0-154.0","go-nogo","true","0","","true","<div class = centerbox><div  id = stim2></div></div>","32","32","750","","test","go","154","random","","",""
"","385","32","1344","0","test_block","poldrack-single-stim","169","241453","0.0-5.0-155.0","go-nogo","true","0","","true","<div class = centerbox><div  id = stim2></div></div>","32","32","750","","test","go","155","random","","",""
"","275","32","1451","0","test_block","poldrack-single-stim","170","242934","0.0-5.0-156.0","go-nogo","true","0","","true","<div class = centerbox><div  id = stim2></div></div>","32","32","750","","test","go","156","random","","",""
"","309","32","1099","0","test_block","poldrack-single-stim","171","244068","0.0-5.0-157.0","go-nogo","true","0","","true","<div class = centerbox><div  id = stim2></div></div>","32","32","750","","test","go","157","random","","",""
"","436","32","1014","0","test_block","poldrack-single-stim","172","245809","0.0-5.0-158.0","go-nogo","true","1","","true","<div class = centerbox><div  id = stim2></div></div>","32","32","750","","test","go","158","random","","",""
"","-1","-1","1383","0","test_block","poldrack-single-stim","173","247703","0.0-5.0-159.0","go-nogo","true","0","","false","<div class = centerbox><div  id = stim2></div></div>","32","32","750","","test","go","159","random","","",""
"","515","32","1165","0","test_block","poldrack-single-stim","174","248904","0.0-5.0-160.0","go-nogo","true","0","","true","<div class = centerbox><div  id = stim2></div></div>","32","32","750","","test","go","160","random","","",""
"","911","32","1088","0","test_block","poldrack-single-stim","175","250046","0.0-5.0-161.0","go-nogo","true","0","","true","<div class = centerbox><div  id = stim2></div></div>","32","32","750","","test","go","161","random","","",""
"","440","32","1166","0","test_block","poldrack-single-stim","176","251251","0.0-5.0-162.0","go-nogo","true","0","","true","<div class = centerbox><div  id = stim2></div></div>","32","32","750","","test","go","162","random","","",""
"","267","32","1279","0","test_block","poldrack-single-stim","177","252561","0.0-5.0-163.0","go-nogo","true","0","","true","<div class = centerbox><div  id = stim2></div></div>","32","32","750","","test","go","163","random","","",""
"","488","32","1041","0","test_block","poldrack-single-stim","178","253638","0.0-5.0-164.0","go-nogo","true","0","","true","<div class = centerbox><div  id = stim2></div></div>","32","32","750","","test","go","164","random","","",""
"","937","32","1239","0","test_block","poldrack-single-stim","179","254909","0.0-5.0-165.0","go-nogo","true","0","","true","<div class = centerbox><div  id = stim2></div></div>","32","32","750","","test","go","165","random","","",""
"","568","32","1155","0","test_block","poldrack-single-stim","180","256105","0.0-5.0-166.0","go-nogo","true","0","","true","<div class = centerbox><div  id = stim2></div></div>","32","32","750","","test","go","166","random","","",""
"","279","32","1267","0","test_block","poldrack-single-stim","181","257402","0.0-5.0-167.0","go-nogo","true","0","","true","<div class = centerbox><div  id = stim2></div></div>","32","32","750","","test","go","167","random","","",""
"","597","32","1059","0","test_block","poldrack-single-stim","182","258492","0.0-5.0-168.0","go-nogo","true","0","","true","<div class = centerbox><div  id = stim2></div></div>","32","32","750","","test","go","168","random","","",""
"","356","32","1338","0","test_block","poldrack-single-stim","183","259860","0.0-5.0-169.0","go-nogo","true","0","","true","<div class = centerbox><div  id = stim2></div></div>","32","32","750","","test","go","169","random","","",""
"","87","32","1258","0","test_block","poldrack-single-stim","184","261153","0.0-5.0-170.0","go-nogo","true","0","","true","<div class = centerbox><div  id = stim2></div></div>","32","32","750","","test","go","170","random","","",""
"","43","32","1002","0","test_block","poldrack-single-stim","185","262189","0.0-5.0-171.0","go-nogo","true","0","","true","<div class = centerbox><div  id = stim2></div></div>","32","32","750","","test","go","171","random","","",""
"","272","32","1446","0","test_block","poldrack-single-stim","186","263668","0.0-5.0-172.0","go-nogo","true","0","","true","<div class = centerbox><div  id = stim2></div></div>","32","32","750","","test","go","172","random","","",""
"","380","32","1222","0","test_block","poldrack-single-stim","187","264920","0.0-5.0-173.0","go-nogo","true","0","","true","<div class = centerbox><div  id = stim2></div></div>","32","32","750","","test","go","173","random","","",""
"","18","32","1059","0","test_block","poldrack-single-stim","188","266015","0.0-5.0-174.0","go-nogo","true","0","","true","<div class = centerbox><div  id = stim2></div></div>","32","32","750","","test","go","174","random","","",""
"","-1","-1","1053","0","test_block","poldrack-single-stim","189","267100","0.0-5.0-175.0","go-nogo","true","0","","false","<div class = centerbox><div  id = stim2></div></div>","32","32","750","","test","go","175","random","","",""
"","367","32","1035","0","test_block","poldrack-single-stim","190","268169","0.0-5.0-176.0","go-nogo","true","0","","true","<div class = centerbox><div  id = stim2></div></div>","32","32","750","","test","go","176","random","","",""
"","227","32","1021","0","test_block","poldrack-single-stim","191","269223","0.0-5.0-177.0","go-nogo","true","0","","true","<div class = centerbox><div  id = stim2></div></div>","32","32","750","","test","go","177","random","","",""
"","263","32","1041","0","test_block","poldrack-single-stim","192","270295","0.0-5.0-178.0","go-nogo","true","0","","true","<div class = centerbox><div  id = stim2></div></div>","32","32","750","","test","go","178","random","","",""
"","373","32","1279","0","test_block","poldrack-single-stim","193","271607","0.0-5.0-179.0","go-nogo","true","0","","true","<div class = centerbox><div  id = stim2></div></div>","32","32","750","","test","go","179","random","","",""
"","277","32","1208","0","test_block","poldrack-single-stim","194","272848","0.0-5.0-180.0","go-nogo","true","0","","false","<div class = centerbox><div  id = stim1></div></div>","-1","32","750","","test","nogo","180","random","","",""
"","334","32","1190","0","test_block","poldrack-single-stim","195","274069","0.0-5.0-181.0","go-nogo","true","0","","true","<div class = centerbox><div  id = stim2></div></div>","32","32","750","","test","go","181","random","","",""
"","278","32","1084","0","test_block","poldrack-single-stim","196","275187","0.0-5.0-182.0","go-nogo","true","0","","true","<div class = centerbox><div  id = stim2></div></div>","32","32","750","","test","go","182","random","","",""
"","27","32","1475","0","test_block","poldrack-single-stim","197","276692","0.0-5.0-183.0","go-nogo","true","0","","false","<div class = centerbox><div  id = stim1></div></div>","-1","32","750","","test","nogo","183","random","","",""
"","297","32","1160","0","test_block","poldrack-single-stim","198","277883","0.0-5.0-184.0","go-nogo","true","0","","true","<div class = centerbox><div  id = stim2></div></div>","32","32","750","","test","go","184","random","","",""
"","280","32","1238","0","test_block","poldrack-single-stim","199","279163","0.0-5.0-185.0","go-nogo","true","0","","true","<div class = centerbox><div  id = stim2></div></div>","32","32","750","","test","go","185","random","","",""
"","286","32","1108","0","test_block","poldrack-single-stim","200","280308","0.0-5.0-186.0","go-nogo","true","0","","true","<div class = centerbox><div  id = stim2></div></div>","32","32","750","","test","go","186","random","","",""
"","300","32","1119","0","test_block","poldrack-single-stim","201","281458","0.0-5.0-187.0","go-nogo","true","0","","true","<div class = centerbox><div  id = stim2></div></div>","32","32","750","","test","go","187","random","","",""
"","350","32","1140","0","test_block","poldrack-single-stim","202","282630","0.0-5.0-188.0","go-nogo","true","0","","true","<div class = centerbox><div  id = stim2></div></div>","32","32","750","","test","go","188","random","","",""
"","477","32","1302","0","test_block","poldrack-single-stim","203","283960","0.0-5.0-189.0","go-nogo","true","0","","true","<div class = centerbox><div  id = stim2></div></div>","32","32","750","","test","go","189","random","","",""
"","697","32","1034","0","test_block","poldrack-single-stim","204","285024","0.0-5.0-190.0","go-nogo","true","0","","true","<div class = centerbox><div  id = stim2></div></div>","32","32","750","","test","go","190","random","","",""
"","386","32","1399","0","test_block","poldrack-single-stim","205","286452","0.0-5.0-191.0","go-nogo","true","0","","true","<div class = centerbox><div  id = stim2></div></div>","32","32","750","","test","go","191","random","","",""
"","10","32","1161","0","test_block","poldrack-single-stim","206","287645","0.0-5.0-192.0","go-nogo","true","0","","true","<div class = centerbox><div  id = stim2></div></div>","32","32","750","","test","go","192","random","","",""
"","482","32","1248","0","test_block","poldrack-single-stim","207","288924","0.0-5.0-193.0","go-nogo","true","0","","true","<div class = centerbox><div  id = stim2></div></div>","32","32","750","","test","go","193","random","","",""
"","243","32","1144","0","test_block","poldrack-single-stim","208","290099","0.0-5.0-194.0","go-nogo","true","0","","true","<div class = centerbox><div  id = stim2></div></div>","32","32","750","","test","go","194","random","","",""
"","251","32","1344","0","test_block","poldrack-single-stim","209","291475","0.0-5.0-195.0","go-nogo","true","0","","true","<div class = centerbox><div  id = stim2></div></div>","32","32","750","","test","go","195","random","","",""
"","439","32","1411","0","test_block","poldrack-single-stim","210","292922","0.0-5.0-196.0","go-nogo","true","0","","true","<div class = centerbox><div  id = stim2></div></div>","32","32","750","","test","go","196","random","","",""
"","38","32","1148","0","test_block","poldrack-single-stim","211","294099","0.0-5.0-197.0","go-nogo","true","0","","true","<div class = centerbox><div  id = stim2></div></div>","32","32","750","","test","go","197","random","","",""
"","237","32","1105","0","test_block","poldrack-single-stim","212","295234","0.0-5.0-198.0","go-nogo","true","0","","true","<div class = centerbox><div  id = stim2></div></div>","32","32","750","","test","go","198","random","","",""
"","157","32","1334","0","test_block","poldrack-single-stim","213","296598","0.0-5.0-199.0","go-nogo","true","0","","true","<div class = centerbox><div  id = stim2></div></div>","32","32","750","","test","go","199","random","","",""
"","328","32","1309","0","test_block","poldrack-single-stim","214","297938","0.0-5.0-200.0","go-nogo","true","0","","true","<div class = centerbox><div  id = stim2></div></div>","32","32","750","","test","go","200","random","","",""
"","29","32","1419","0","test_block","poldrack-single-stim","215","299388","0.0-5.0-201.0","go-nogo","true","0","","true","<div class = centerbox><div  id = stim2></div></div>","32","32","750","","test","go","201","random","","",""
"","117","32","1317","0","test_block","poldrack-single-stim","216","300735","0.0-5.0-202.0","go-nogo","true","0","","false","<div class = centerbox><div  id = stim1></div></div>","-1","32","750","","test","nogo","202","random","","",""
"","273","32","1182","0","test_block","poldrack-single-stim","217","301947","0.0-5.0-203.0","go-nogo","true","0","","true","<div class = centerbox><div  id = stim2></div></div>","32","32","750","","test","go","203","random","","",""
"","277","32","1003","0","test_block","poldrack-single-stim","218","302981","0.0-5.0-204.0","go-nogo","true","0","","true","<div class = centerbox><div  id = stim2></div></div>","32","32","750","","test","go","204","random","","",""
"","284","32","1084","0","test_block","poldrack-single-stim","219","304095","0.0-5.0-205.0","go-nogo","true","0","","true","<div class = centerbox><div  id = stim2></div></div>","32","32","750","","test","go","205","random","","",""
"","225","32","1034","0","test_block","poldrack-single-stim","220","305159","0.0-5.0-206.0","go-nogo","true","0","","true","<div class = centerbox><div  id = stim2></div></div>","32","32","750","","test","go","206","random","","",""
"","160","32","1468","0","test_block","poldrack-single-stim","221","306666","0.0-5.0-207.0","go-nogo","true","0","","true","<div class = centerbox><div  id = stim2></div></div>","32","32","750","","test","go","207","random","","",""
"","310","32","1456","0","test_block","poldrack-single-stim","222","308153","0.0-5.0-208.0","go-nogo","true","0","","true","<div class = centerbox><div  id = stim2></div></div>","32","32","750","","test","go","208","random","","",""
"","388","32","1002","0","test_block","poldrack-single-stim","223","309189","0.0-5.0-209.0","go-nogo","true","0","","true","<div class = centerbox><div  id = stim2></div></div>","32","32","750","","test","go","209","random","","",""
"","284","32","1439","0","test_block","poldrack-single-stim","224","310657","0.0-5.0-210.0","go-nogo","true","0","","false","<div class = centerbox><div  id = stim1></div></div>","-1","32","750","","test","nogo","210","random","","",""
"","1068","32","1231","0","test_block","poldrack-single-stim","225","311922","0.0-5.0-211.0","go-nogo","true","0","","false","<div class = centerbox><div  id = stim1></div></div>","-1","32","750","","test","nogo","211","random","","",""
"","378","32","1111","0","test_block","poldrack-single-stim","226","313067","0.0-5.0-212.0","go-nogo","true","0","","true","<div class = centerbox><div  id = stim2></div></div>","32","32","750","","test","go","212","random","","",""
"","277","32","1206","0","test_block","poldrack-single-stim","227","314303","0.0-5.0-213.0","go-nogo","true","0","","true","<div class = centerbox><div  id = stim2></div></div>","32","32","750","","test","go","213","random","","",""
"","49","32","1253","0","test_block","poldrack-single-stim","228","315586","0.0-5.0-214.0","go-nogo","true","0","","true","<div class = centerbox><div  id = stim2></div></div>","32","32","750","","test","go","214","random","","",""
"","431","32","1132","0","test_block","poldrack-single-stim","229","316746","0.0-5.0-215.0","go-nogo","true","0","","true","<div class = centerbox><div  id = stim2></div></div>","32","32","750","","test","go","215","random","","",""
"","405","32","1137","0","test_block","poldrack-single-stim","230","318811","0.0-5.0-216.0","go-nogo","true","1","","false","<div class = centerbox><div  id = stim1></div></div>","-1","32","750","","test","nogo","216","random","","",""
"","951","32","1029","0","test_block","poldrack-single-stim","231","319867","0.0-5.0-217.0","go-nogo","true","0","","true","<div class = centerbox><div  id = stim2></div></div>","32","32","750","","test","go","217","random","","",""
"","484","32","1391","0","test_block","poldrack-single-stim","232","321288","0.0-5.0-218.0","go-nogo","true","0","","true","<div class = centerbox><div  id = stim2></div></div>","32","32","750","","test","go","218","random","","",""
"","348","32","1112","0","test_block","poldrack-single-stim","233","322441","0.0-5.0-219.0","go-nogo","true","0","","true","<div class = centerbox><div  id = stim2></div></div>","32","32","750","","test","go","219","random","","",""
"","387","32","1295","0","test_block","poldrack-single-stim","234","323769","0.0-5.0-220.0","go-nogo","true","0","","true","<div class = centerbox><div  id = stim2></div></div>","32","32","750","","test","go","220","random","","",""
"","277","32","1305","0","test_block","poldrack-single-stim","235","325106","0.0-5.0-221.0","go-nogo","true","0","","true","<div class = centerbox><div  id = stim2></div></div>","32","32","750","","test","go","221","random","","",""
"","285","32","1465","0","test_block","poldrack-single-stim","236","326600","0.0-5.0-222.0","go-nogo","true","0","","true","<div class = centerbox><div  id = stim2></div></div>","32","32","750","","test","go","222","random","","",""
"","291","32","1056","0","test_block","poldrack-single-stim","237","327690","0.0-5.0-223.0","go-nogo","true","0","","true","<div class = centerbox><div  id = stim2></div></div>","32","32","750","","test","go","223","random","","",""
"","245","32","1061","0","test_block","poldrack-single-stim","238","328781","0.0-5.0-224.0","go-nogo","true","0","","true","<div class = centerbox><div  id = stim2></div></div>","32","32","750","","test","go","224","random","","",""
"","33","32","1130","0","test_block","poldrack-single-stim","239","329941","0.0-5.0-225.0","go-nogo","true","0","","true","<div class = centerbox><div  id = stim2></div></div>","32","32","750","","test","go","225","random","","",""
"","1","32","1180","0","test_block","poldrack-single-stim","240","331151","0.0-5.0-226.0","go-nogo","true","0","","true","<div class = centerbox><div  id = stim2></div></div>","32","32","750","","test","go","226","random","","",""
"","573","32","1196","0","test_block","poldrack-single-stim","241","332379","0.0-5.0-227.0","go-nogo","true","0","","true","<div class = centerbox><div  id = stim2></div></div>","32","32","750","","test","go","227","random","","",""
"","260","32","1280","0","test_block","poldrack-single-stim","242","333690","0.0-5.0-228.0","go-nogo","true","0","","false","<div class = centerbox><div  id = stim1></div></div>","-1","32","750","","test","nogo","228","random","","",""
"","404","32","1451","0","test_block","poldrack-single-stim","243","335172","0.0-5.0-229.0","go-nogo","true","0","","true","<div class = centerbox><div  id = stim2></div></div>","32","32","750","","test","go","229","random","","",""
"","214","32","1008","0","test_block","poldrack-single-stim","244","336215","0.0-5.0-230.0","go-nogo","true","0","","true","<div class = centerbox><div  id = stim2></div></div>","32","32","750","","test","go","230","random","","",""
"","233","32","1298","0","test_block","poldrack-single-stim","245","337543","0.0-5.0-231.0","go-nogo","true","0","","true","<div class = centerbox><div  id = stim2></div></div>","32","32","750","","test","go","231","random","","",""
"","1080","32","1121","0","test_block","poldrack-single-stim","246","338694","0.0-5.0-232.0","go-nogo","true","0","","false","<div class = centerbox><div  id = stim1></div></div>","-1","32","750","","test","nogo","232","random","","",""
"","617","32","1100","0","test_block","poldrack-single-stim","247","339825","0.0-5.0-233.0","go-nogo","true","0","","true","<div class = centerbox><div  id = stim2></div></div>","32","32","750","","test","go","233","random","","",""
"","415","32","1143","0","test_block","poldrack-single-stim","248","340998","0.0-5.0-234.0","go-nogo","true","0","","true","<div class = centerbox><div  id = stim2></div></div>","32","32","750","","test","go","234","random","","",""
"","296","32","1138","0","test_block","poldrack-single-stim","249","342168","0.0-5.0-235.0","go-nogo","true","0","","true","<div class = centerbox><div  id = stim2></div></div>","32","32","750","","test","go","235","random","","",""
"","179","32","1408","0","test_block","poldrack-single-stim","250","343611","0.0-5.0-236.0","go-nogo","true","0","","true","<div class = centerbox><div  id = stim2></div></div>","32","32","750","","test","go","236","random","","",""
"","165","32","1328","0","test_block","poldrack-single-stim","251","344969","0.0-5.0-237.0","go-nogo","true","0","","false","<div class = centerbox><div  id = stim1></div></div>","-1","32","750","","test","nogo","237","random","","",""
"","568","32","1492","0","test_block","poldrack-single-stim","252","346490","0.0-5.0-238.0","go-nogo","true","0","","true","<div class = centerbox><div  id = stim2></div></div>","32","32","750","","test","go","238","random","","",""
"","278","32","1202","0","test_block","poldrack-single-stim","253","347722","0.0-5.0-239.0","go-nogo","true","0","","true","<div class = centerbox><div  id = stim2></div></div>","32","32","750","","test","go","239","random","","",""
"","339","32","1448","0","test_block","poldrack-single-stim","254","349202","0.0-5.0-240.0","go-nogo","true","0","","true","<div class = centerbox><div  id = stim2></div></div>","32","32","750","","test","go","240","random","","",""
"","285","32","1156","0","test_block","poldrack-single-stim","255","350388","0.0-5.0-241.0","go-nogo","true","0","","true","<div class = centerbox><div  id = stim2></div></div>","32","32","750","","test","go","241","random","","",""
"","283","32","1156","0","test_block","poldrack-single-stim","256","351575","0.0-5.0-242.0","go-nogo","true","0","","true","<div class = centerbox><div  id = stim2></div></div>","32","32","750","","test","go","242","random","","",""
"","248","32","1090","0","test_block","poldrack-single-stim","257","352696","0.0-5.0-243.0","go-nogo","true","0","","true","<div class = centerbox><div  id = stim2></div></div>","32","32","750","","test","go","243","random","","",""
"","182","32","1011","0","test_block","poldrack-single-stim","258","353738","0.0-5.0-244.0","go-nogo","true","0","","true","<div class = centerbox><div  id = stim2></div></div>","32","32","750","","test","go","244","random","","",""
"","259","32","1095","0","test_block","poldrack-single-stim","259","354864","0.0-5.0-245.0","go-nogo","true","0","","true","<div class = centerbox><div  id = stim2></div></div>","32","32","750","","test","go","245","random","","",""
"","302","32","1056","0","test_block","poldrack-single-stim","260","355950","0.0-5.0-246.0","go-nogo","true","0","","true","<div class = centerbox><div  id = stim2></div></div>","32","32","750","","test","go","246","random","","",""
"","286","32","1276","0","test_block","poldrack-single-stim","261","357259","0.0-5.0-247.0","go-nogo","true","0","","true","<div class = centerbox><div  id = stim2></div></div>","32","32","750","","test","go","247","random","","",""
"","309","32","1280","0","test_block","poldrack-single-stim","262","358569","0.0-5.0-248.0","go-nogo","true","0","","true","<div class = centerbox><div  id = stim2></div></div>","32","32","750","","test","go","248","random","","",""
"","100","32","1459","0","test_block","poldrack-single-stim","263","360061","0.0-5.0-249.0","go-nogo","true","0","","false","<div class = centerbox><div  id = stim1></div></div>","-1","32","750","","test","nogo","249","random","","",""
"","322","32","1213","0","test_block","poldrack-single-stim","264","361304","0.0-5.0-250.0","go-nogo","true","0","","true","<div class = centerbox><div  id = stim2></div></div>","32","32","750","","test","go","250","random","","",""
"","-1","-1","1078","0","test_block","poldrack-single-stim","265","362411","0.0-5.0-251.0","go-nogo","true","0","","false","<div class = centerbox><div  id = stim2></div></div>","32","32","750","","test","go","251","random","","",""
"","357","32","1339","0","test_block","poldrack-single-stim","266","363780","0.0-5.0-252.0","go-nogo","true","0","","true","<div class = centerbox><div  id = stim2></div></div>","32","32","750","","test","go","252","random","","",""
"","-1","-1","1314","0","test_block","poldrack-single-stim","267","365814","0.0-5.0-253.0","go-nogo","true","1","","false","<div class = centerbox><div  id = stim2></div></div>","32","32","750","","test","go","253","random","","",""
"","-1","-1","1234","0","test_block","poldrack-single-stim","268","367813","0.0-5.0-254.0","go-nogo","true","0","","false","<div class = centerbox><div  id = stim2></div></div>","32","32","750","","test","go","254","random","","",""
"","979","32","1237","0","test_block","poldrack-single-stim","269","369071","0.0-5.0-255.0","go-nogo","true","0","","true","<div class = centerbox><div  id = stim2></div></div>","32","32","750","","test","go","255","random","","",""
"","287","32","1006","0","test_block","poldrack-single-stim","270","370108","0.0-5.0-256.0","go-nogo","true","0","","true","<div class = centerbox><div  id = stim2></div></div>","32","32","750","","test","go","256","random","","",""
"","241","32","1163","0","test_block","poldrack-single-stim","271","371303","0.0-5.0-257.0","go-nogo","true","0","","true","<div class = centerbox><div  id = stim2></div></div>","32","32","750","","test","go","257","random","","",""
"","137","32","1403","0","test_block","poldrack-single-stim","272","372736","0.0-5.0-258.0","go-nogo","true","0","","true","<div class = centerbox><div  id = stim2></div></div>","32","32","750","","test","go","258","random","","",""
"","977","32","1150","0","test_block","poldrack-single-stim","273","373914","0.0-5.0-259.0","go-nogo","true","0","","true","<div class = centerbox><div  id = stim2></div></div>","32","32","750","","test","go","259","random","","",""
"","309","32","1004","0","test_block","poldrack-single-stim","274","374948","0.0-5.0-260.0","go-nogo","true","0","","true","<div class = centerbox><div  id = stim2></div></div>","32","32","750","","test","go","260","random","","",""
"","347","32","1377","0","test_block","poldrack-single-stim","275","376355","0.0-5.0-261.0","go-nogo","true","0","","true","<div class = centerbox><div  id = stim2></div></div>","32","32","750","","test","go","261","random","","",""
"","380","32","1104","0","test_block","poldrack-single-stim","276","377489","0.0-5.0-262.0","go-nogo","true","0","","true","<div class = centerbox><div  id = stim2></div></div>","32","32","750","","test","go","262","random","","",""
"","606","32","1450","0","test_block","poldrack-single-stim","277","378968","0.0-5.0-263.0","go-nogo","true","0","","true","<div class = centerbox><div  id = stim2></div></div>","32","32","750","","test","go","263","random","","",""
"","325","32","1394","0","test_block","poldrack-single-stim","278","380393","0.0-5.0-264.0","go-nogo","true","0","","true","<div class = centerbox><div  id = stim2></div></div>","32","32","750","","test","go","264","random","","",""
"","342","32","1290","0","test_block","poldrack-single-stim","279","381814","0.0-5.0-265.0","go-nogo","true","1","","true","<div class = centerbox><div  id = stim2></div></div>","32","32","750","","test","go","265","random","","",""
"","-1","-1","1370","0","test_block","poldrack-single-stim","280","383813","0.0-5.0-266.0","go-nogo","true","0","","false","<div class = centerbox><div  id = stim2></div></div>","32","32","750","","test","go","266","random","","",""
"","-1","-1","1313","0","test_block","poldrack-single-stim","281","385154","0.0-5.0-267.0","go-nogo","true","0","","false","<div class = centerbox><div  id = stim2></div></div>","32","32","750","","test","go","267","random","","",""
"","89","32","1120","0","test_block","poldrack-single-stim","282","386307","0.0-5.0-268.0","go-nogo","true","0","","true","<div class = centerbox><div  id = stim2></div></div>","32","32","750","","test","go","268","random","","",""
"","-1","-1","1242","0","test_block","poldrack-single-stim","283","387814","0.0-5.0-269.0","go-nogo","true","1","","false","<div class = centerbox><div  id = stim2></div></div>","32","32","750","","test","go","269","random","","",""
"","-1","-1","1113","0","test_block","poldrack-single-stim","284","388959","0.0-5.0-270.0","go-nogo","true","0","","false","<div class = centerbox><div  id = stim2></div></div>","32","32","750","","test","go","270","random","","",""
"","299","32","1078","0","test_block","poldrack-single-stim","285","390071","0.0-5.0-271.0","go-nogo","true","0","","true","<div class = centerbox><div  id = stim2></div></div>","32","32","750","","test","go","271","random","","",""
"","791","32","1080","0","test_block","poldrack-single-stim","286","391181","0.0-5.0-272.0","go-nogo","true","0","","true","<div class = centerbox><div  id = stim2></div></div>","32","32","750","","test","go","272","random","","",""
"","272","32","1251","0","test_block","poldrack-single-stim","287","392464","0.0-5.0-273.0","go-nogo","true","0","","true","<div class = centerbox><div  id = stim2></div></div>","32","32","750","","test","go","273","random","","",""
"","862","32","1188","0","test_block","poldrack-single-stim","288","393683","0.0-5.0-274.0","go-nogo","true","0","","true","<div class = centerbox><div  id = stim2></div></div>","32","32","750","","test","go","274","random","","",""
"","314","32","1476","0","test_block","poldrack-single-stim","289","395190","0.0-5.0-275.0","go-nogo","true","0","","true","<div class = centerbox><div  id = stim2></div></div>","32","32","750","","test","go","275","random","","",""
"","280","32","1230","0","test_block","poldrack-single-stim","290","396450","0.0-5.0-276.0","go-nogo","true","0","","true","<div class = centerbox><div  id = stim2></div></div>","32","32","750","","test","go","276","random","","",""
"","124","32","1040","0","test_block","poldrack-single-stim","291","397520","0.0-5.0-277.0","go-nogo","true","0","","true","<div class = centerbox><div  id = stim2></div></div>","32","32","750","","test","go","277","random","","",""
"","46","32","1347","0","test_block","poldrack-single-stim","292","398898","0.0-5.0-278.0","go-nogo","true","0","","true","<div class = centerbox><div  id = stim2></div></div>","32","32","750","","test","go","278","random","","",""
"","185","32","1045","0","test_block","poldrack-single-stim","293","399977","0.0-5.0-279.0","go-nogo","true","0","","true","<div class = centerbox><div  id = stim2></div></div>","32","32","750","","test","go","279","random","","",""
"","37","32","1409","0","test_block","poldrack-single-stim","294","401418","0.0-5.0-280.0","go-nogo","true","0","","true","<div class = centerbox><div  id = stim2></div></div>","32","32","750","","test","go","280","random","","",""
"","660","32","1450","0","test_block","poldrack-single-stim","295","402900","0.0-5.0-281.0","go-nogo","true","0","","true","<div class = centerbox><div  id = stim2></div></div>","32","32","750","","test","go","281","random","","",""
"","508","32","1019","0","test_block","poldrack-single-stim","296","403950","0.0-5.0-282.0","go-nogo","true","0","","true","<div class = centerbox><div  id = stim2></div></div>","32","32","750","","test","go","282","random","","",""
"","381","32","1385","0","test_block","poldrack-single-stim","297","405370","0.0-5.0-283.0","go-nogo","true","0","","true","<div class = centerbox><div  id = stim2></div></div>","32","32","750","","test","go","283","random","","",""
"","326","32","1304","0","test_block","poldrack-single-stim","298","406704","0.0-5.0-284.0","go-nogo","true","0","","true","<div class = centerbox><div  id = stim2></div></div>","32","32","750","","test","go","284","random","","",""
"","0","32","1003","0","test_block","poldrack-single-stim","299","407737","0.0-5.0-285.0","go-nogo","true","0","","false","<div class = centerbox><div  id = stim1></div></div>","-1","32","750","","test","nogo","285","random","","",""
"","343","32","1069","0","test_block","poldrack-single-stim","300","408836","0.0-5.0-286.0","go-nogo","true","0","","true","<div class = centerbox><div  id = stim2></div></div>","32","32","750","","test","go","286","random","","",""
"","330","32","1004","0","test_block","poldrack-single-stim","301","409872","0.0-5.0-287.0","go-nogo","true","0","","true","<div class = centerbox><div  id = stim2></div></div>","32","32","750","","test","go","287","random","","",""
"","253","32","1240","0","test_block","poldrack-single-stim","302","411160","0.0-5.0-288.0","go-nogo","true","0","","true","<div class = centerbox><div  id = stim2></div></div>","32","32","750","","test","go","288","random","","",""
"","488","32","1431","0","test_block","poldrack-single-stim","303","412621","0.0-5.0-289.0","go-nogo","true","0","","true","<div class = centerbox><div  id = stim2></div></div>","32","32","750","","test","go","289","random","","",""
"","756","32","1262","0","test_block","poldrack-single-stim","304","413911","0.0-5.0-290.0","go-nogo","true","0","","true","<div class = centerbox><div  id = stim2></div></div>","32","32","750","","test","go","290","random","","",""
"","297","32","1209","0","test_block","poldrack-single-stim","305","415149","0.0-5.0-291.0","go-nogo","true","0","","true","<div class = centerbox><div  id = stim2></div></div>","32","32","750","","test","go","291","random","","",""
"","336","32","1255","0","test_block","poldrack-single-stim","306","416437","0.0-5.0-292.0","go-nogo","true","0","","false","<div class = centerbox><div  id = stim1></div></div>","-1","32","750","","test","nogo","292","random","","",""
"","699","32","1076","0","test_block","poldrack-single-stim","307","417542","0.0-5.0-293.0","go-nogo","true","0","","true","<div class = centerbox><div  id = stim2></div></div>","32","32","750","","test","go","293","random","","",""
"","329","32","1197","0","test_block","poldrack-single-stim","308","418770","0.0-5.0-294.0","go-nogo","true","0","","true","<div class = centerbox><div  id = stim2></div></div>","32","32","750","","test","go","294","random","","",""
"","222","32","1085","0","test_block","poldrack-single-stim","309","419885","0.0-5.0-295.0","go-nogo","true","0","","true","<div class = centerbox><div  id = stim2></div></div>","32","32","750","","test","go","295","random","","",""
"","223","32","1175","0","test_block","poldrack-single-stim","310","421094","0.0-5.0-296.0","go-nogo","true","0","","true","<div class = centerbox><div  id = stim2></div></div>","32","32","750","","test","go","296","random","","",""
"","106","32","1316","0","test_block","poldrack-single-stim","311","422439","0.0-5.0-297.0","go-nogo","true","0","","true","<div class = centerbox><div  id = stim2></div></div>","32","32","750","","test","go","297","random","","",""
"","393","32","1034","0","test_block","poldrack-single-stim","312","423502","0.0-5.0-298.0","go-nogo","true","0","","true","<div class = centerbox><div  id = stim2></div></div>","32","32","750","","test","go","298","random","","",""
"","-1","-1","1457","0","test_block","poldrack-single-stim","313","424988","0.0-5.0-299.0","go-nogo","true","0","","true","<div class = centerbox><div  id = stim1></div></div>","-1","32","750","","test","nogo","299","random","","",""
"","19","32","1307","0","test_block","poldrack-single-stim","314","426325","0.0-5.0-300.0","go-nogo","true","0","","true","<div class = centerbox><div  id = stim2></div></div>","32","32","750","","test","go","300","random","","",""
"","10","32","1182","0","test_block","poldrack-single-stim","315","427537","0.0-5.0-301.0","go-nogo","true","0","","true","<div class = centerbox><div  id = stim2></div></div>","32","32","750","","test","go","301","random","","",""
"","141","32","1307","0","test_block","poldrack-single-stim","316","428876","0.0-5.0-302.0","go-nogo","true","0","","true","<div class = centerbox><div  id = stim2></div></div>","32","32","750","","test","go","302","random","","",""
"","420","32","1060","0","test_block","poldrack-single-stim","317","429965","0.0-5.0-303.0","go-nogo","true","0","","true","<div class = centerbox><div  id = stim2></div></div>","32","32","750","","test","go","303","random","","",""
"","323","32","1039","0","test_block","poldrack-single-stim","318","431033","0.0-5.0-304.0","go-nogo","true","0","","true","<div class = centerbox><div  id = stim2></div></div>","32","32","750","","test","go","304","random","","",""
"","71","32","1137","0","test_block","poldrack-single-stim","319","432200","0.0-5.0-305.0","go-nogo","true","0","","true","<div class = centerbox><div  id = stim2></div></div>","32","32","750","","test","go","305","random","","",""
"","344","32","1252","0","test_block","poldrack-single-stim","320","433481","0.0-5.0-306.0","go-nogo","true","0","","true","<div class = centerbox><div  id = stim2></div></div>","32","32","750","","test","go","306","random","","",""
"","518","32","1047","0","test_block","poldrack-single-stim","321","434558","0.0-5.0-307.0","go-nogo","true","0","","true","<div class = centerbox><div  id = stim2></div></div>","32","32","750","","test","go","307","random","","",""
"","812","32","1310","0","test_block","poldrack-single-stim","322","435903","0.0-5.0-308.0","go-nogo","true","0","","true","<div class = centerbox><div  id = stim2></div></div>","32","32","750","","test","go","308","random","","",""
"","721","32","1318","0","test_block","poldrack-single-stim","323","437250","0.0-5.0-309.0","go-nogo","true","0","","true","<div class = centerbox><div  id = stim2></div></div>","32","32","750","","test","go","309","random","","",""
"","542","32","1027","0","test_block","poldrack-single-stim","324","438306","0.0-5.0-310.0","go-nogo","true","0","","true","<div class = centerbox><div  id = stim2></div></div>","32","32","750","","test","go","310","random","","",""
"","1118","32","1437","0","test_block","poldrack-single-stim","325","439772","0.0-5.0-311.0","go-nogo","true","0","","true","<div class = centerbox><div  id = stim2></div></div>","32","32","750","","test","go","311","random","","",""
"","337","32","1060","0","test_block","poldrack-single-stim","326","440866","0.0-5.0-312.0","go-nogo","true","0","","true","<div class = centerbox><div  id = stim2></div></div>","32","32","750","","test","go","312","random","","",""
"","298","32","1402","0","test_block","poldrack-single-stim","327","442301","0.0-5.0-313.0","go-nogo","true","0","","true","<div class = centerbox><div  id = stim2></div></div>","32","32","750","","test","go","313","random","","",""
"","451","32","1464","0","test_block","poldrack-single-stim","328","443794","0.0-5.0-314.0","go-nogo","true","0","","true","<div class = centerbox><div  id = stim2></div></div>","32","32","750","","test","go","314","random","","",""
"","507","32","1008","0","test_block","poldrack-single-stim","329","444850","0.0-5.0-315.0","go-nogo","true","0","","true","<div class = centerbox><div  id = stim2></div></div>","32","32","750","","test","go","315","random","","",""
"","332","32","1019","0","test_block","poldrack-single-stim","330","445899","0.0-5.0-316.0","go-nogo","true","0","","true","<div class = centerbox><div  id = stim2></div></div>","32","32","750","","test","go","316","random","","",""
"","836","32","1156","0","test_block","poldrack-single-stim","331","447084","0.0-5.0-317.0","go-nogo","true","0","","true","<div class = centerbox><div  id = stim2></div></div>","32","32","750","","test","go","317","random","","",""
"","273","32","1452","0","test_block","poldrack-single-stim","332","448566","0.0-5.0-318.0","go-nogo","true","0","","true","<div class = centerbox><div  id = stim2></div></div>","32","32","750","","test","go","318","random","","",""
"","7","32","1217","0","test_block","poldrack-single-stim","333","449813","0.0-5.0-319.0","go-nogo","true","0","","true","<div class = centerbox><div  id = stim2></div></div>","32","32","750","","test","go","319","random","","",""
"","339","32","1342","0","test_block","poldrack-single-stim","334","451191","0.0-5.0-320.0","go-nogo","true","0","","true","<div class = centerbox><div  id = stim2></div></div>","32","32","750","","test","go","320","random","","",""
"","0","32","1341","0","test_block","poldrack-single-stim","335","452562","0.0-5.0-321.0","go-nogo","true","0","","true","<div class = centerbox><div  id = stim2></div></div>","32","32","750","","test","go","321","random","","",""
"","493","32","1130","0","test_block","poldrack-single-stim","336","453722","0.0-5.0-322.0","go-nogo","true","0","","true","<div class = centerbox><div  id = stim2></div></div>","32","32","750","","test","go","322","random","","",""
"","228","32","1083","0","test_block","poldrack-single-stim","337","454836","0.0-5.0-323.0","go-nogo","true","0","","true","<div class = centerbox><div  id = stim2></div></div>","32","32","750","","test","go","323","random","","",""
"","523","32","1042","0","test_block","poldrack-single-stim","338","455908","0.0-5.0-324.0","go-nogo","true","0","","true","<div class = centerbox><div  id = stim2></div></div>","32","32","750","","test","go","324","random","","",""
"","617","32","1461","0","test_block","poldrack-single-stim","339","457401","0.0-5.0-325.0","go-nogo","true","0","","true","<div class = centerbox><div  id = stim2></div></div>","32","32","750","","test","go","325","random","","",""
"","149","32","1489","0","test_block","poldrack-single-stim","340","458920","0.0-5.0-326.0","go-nogo","true","0","","false","<div class = centerbox><div  id = stim1></div></div>","-1","32","750","","test","nogo","326","random","","",""
"","39","32","1060","0","test_block","poldrack-single-stim","341","460009","0.0-5.0-327.0","go-nogo","true","0","","true","<div class = centerbox><div  id = stim2></div></div>","32","32","750","","test","go","327","random","","",""
"","198","32","1368","0","test_block","poldrack-single-stim","342","461407","0.0-5.0-328.0","go-nogo","true","0","","true","<div class = centerbox><div  id = stim2></div></div>","32","32","750","","test","go","328","random","","",""
"","344","32","1353","0","test_block","poldrack-single-stim","343","462797","0.0-5.0-329.0","go-nogo","true","0","","true","<div class = centerbox><div  id = stim2></div></div>","32","32","750","","test","go","329","random","","",""
"","224","32","1307","0","test_block","poldrack-single-stim","344","464135","0.0-5.0-330.0","go-nogo","true","0","","true","<div class = centerbox><div  id = stim2></div></div>","32","32","750","","test","go","330","random","","",""
"","327","32","1358","0","test_block","poldrack-single-stim","345","465523","0.0-5.0-331.0","go-nogo","true","0","","true","<div class = centerbox><div  id = stim2></div></div>","32","32","750","","test","go","331","random","","",""
"","282","32","1159","0","test_block","poldrack-single-stim","346","466713","0.0-5.0-332.0","go-nogo","true","0","","true","<div class = centerbox><div  id = stim2></div></div>","32","32","750","","test","go","332","random","","",""
"","309","32","1043","0","test_block","poldrack-single-stim","347","467787","0.0-5.0-333.0","go-nogo","true","0","","true","<div class = centerbox><div  id = stim2></div></div>","32","32","750","","test","go","333","random","","",""
"","244","32","1015","0","test_block","poldrack-single-stim","348","468831","0.0-5.0-334.0","go-nogo","true","0","","true","<div class = centerbox><div  id = stim2></div></div>","32","32","750","","test","go","334","random","","",""
"","111","32","1452","0","test_block","poldrack-single-stim","349","470314","0.0-5.0-335.0","go-nogo","true","0","","true","<div class = centerbox><div  id = stim2></div></div>","32","32","750","","test","go","335","random","","",""
"","54","32","1354","0","test_block","poldrack-single-stim","350","471697","0.0-5.0-336.0","go-nogo","true","0","","true","<div class = centerbox><div  id = stim2></div></div>","32","32","750","","test","go","336","random","","",""
"","191","32","1465","0","test_block","poldrack-single-stim","351","473191","0.0-5.0-337.0","go-nogo","true","0","","false","<div class = centerbox><div  id = stim1></div></div>","-1","32","750","","test","nogo","337","random","","",""
"","249","32","1191","0","test_block","poldrack-single-stim","352","474411","0.0-5.0-338.0","go-nogo","true","0","","true","<div class = centerbox><div  id = stim2></div></div>","32","32","750","","test","go","338","random","","",""
"","271","32","1059","0","test_block","poldrack-single-stim","353","475505","0.0-5.0-339.0","go-nogo","true","0","","true","<div class = centerbox><div  id = stim2></div></div>","32","32","750","","test","go","339","random","","",""
"","286","32","1208","0","test_block","poldrack-single-stim","354","476743","0.0-5.0-340.0","go-nogo","true","0","","true","<div class = centerbox><div  id = stim2></div></div>","32","32","750","","test","go","340","random","","",""
"","147","32","1389","0","test_block","poldrack-single-stim","355","478167","0.0-5.0-341.0","go-nogo","true","0","","true","<div class = centerbox><div  id = stim2></div></div>","32","32","750","","test","go","341","random","","",""
"","362","32","1263","0","test_block","poldrack-single-stim","356","479458","0.0-5.0-342.0","go-nogo","true","0","","true","<div class = centerbox><div  id = stim2></div></div>","32","32","750","","test","go","342","random","","",""
"","94","32","1123","0","test_block","poldrack-single-stim","357","480610","0.0-5.0-343.0","go-nogo","true","0","","true","<div class = centerbox><div  id = stim2></div></div>","32","32","750","","test","go","343","random","","",""
"","262","32","1495","0","test_block","poldrack-single-stim","358","482578","0.0-5.0-344.0","go-nogo","true","1","","true","<div class = centerbox><div  id = stim2></div></div>","32","32","750","","test","go","344","random","","",""
"","105","32","1156","0","test_block","poldrack-single-stim","359","483784","0.0-5.0-345.0","go-nogo","true","0","","true","<div class = centerbox><div  id = stim2></div></div>","32","32","750","","test","go","345","random","","",""
"","135","32","1370","0","test_block","poldrack-single-stim","360","485184","0.0-5.0-346.0","go-nogo","true","0","","true","<div class = centerbox><div  id = stim2></div></div>","32","32","750","","test","go","346","random","","",""
"","303","32","1001","0","test_block","poldrack-single-stim","361","486215","0.0-5.0-347.0","go-nogo","true","0","","false","<div class = centerbox><div  id = stim1></div></div>","-1","32","750","","test","nogo","347","random","","",""
"","1032","32","1489","0","test_block","poldrack-single-stim","362","487733","0.0-5.0-348.0","go-nogo","true","0","","true","<div class = centerbox><div  id = stim2></div></div>","32","32","750","","test","go","348","random","","",""
"","174","32","1101","0","test_block","poldrack-single-stim","363","488860","0.0-5.0-349.0","go-nogo","true","0","","true","<div class = centerbox><div  id = stim2></div></div>","32","32","750","","test","go","349","random","","",""
"","25149","","","","post task questions","survey-text","364","514044","0.0-7.0","go-nogo","true","0","","","","","","","","","","","","{""Q0"":""IF I SEE BLUE COLOUR I PRESS SPACE BAR"",""Q1"":""GOOD""}","",""
"<div class = centerbox><p class = center-block-text>Thanks for completing this task!</p><p class = center-block-text>Insert the following code to collect your payment at Amazon Mechanical Turk:</p><p class = center-block-text>576018317</p><p class = center-block-text>Press <strong>enter</strong> to continue.</p></div>","6598","13","6598","0","end","poldrack-text","365","521644","0.0-8.0","go-nogo","true","2","","","","","","","","","","","","","576018317","true"
