"text","rt","key_press","block_duration","timing_post_trial","trial_id","trial_type","trial_index","time_elapsed","internal_node_id","exp_id","full_screen","focus_shifts","view_history","correct","stimulus","correct_response","possible_responses","stim_duration","feedback_duration","exp_stage","condition","trial_num","mode","responses","payment_id","credit_var"
"<div class = centerbox><p class = center-block-text>Welcome to the experiment. This task will take around 10 minutes. Press <strong>enter</strong> to begin.</p></div>","6568","13","6568","0","instruction","poldrack-text","0","6572","0.0-0.0-0.0","go-nogo","true","0","","","","","","","","","","","","","",""
"","10891","","","","instruction","poldrack-instructions","1","17464","0.0-0.0-1.0","go-nogo","false","0","[{""page_index"":0,""viewing_time"":10890}]","","","","","","","","","","","","",""
"","435","32","1427","250","practice","poldrack-categorize","2","20905","0.0-1.0-0.0","go-nogo","false","0","","true","<div class = centerbox><div  id = stim2></div></div>","32","32","750","1000","practice","go","0","random","","",""
"","401","32","1117","250","practice","poldrack-categorize","3","23280","0.0-1.0-1.0","go-nogo","false","0","","true","<div class = centerbox><div  id = stim2></div></div>","32","32","750","1000","practice","go","1","random","","",""
"","-1","-1","1130","250","practice","poldrack-categorize","4","25666","0.0-1.0-2.0","go-nogo","false","0","","true","<div class = centerbox><div id = stim1></div></div>","-1","32","750","1000","practice","nogo","2","random","","",""
"","-1","-1","1242","250","practice","poldrack-categorize","5","28167","0.0-1.0-3.0","go-nogo","false","0","","true","<div class = centerbox><div id = stim1></div></div>","-1","32","750","1000","practice","nogo","3","random","","",""
"","-1","-1","1259","250","practice","poldrack-categorize","6","30684","0.0-1.0-4.0","go-nogo","false","0","","true","<div class = centerbox><div id = stim1></div></div>","-1","32","750","1000","practice","nogo","4","random","","",""
"","530","32","1087","250","practice","poldrack-categorize","7","33029","0.0-1.0-5.0","go-nogo","false","0","","true","<div class = centerbox><div  id = stim2></div></div>","32","32","750","1000","practice","go","5","random","","",""
"","-1","-1","1036","250","practice","poldrack-categorize","8","35326","0.0-1.0-6.0","go-nogo","false","0","","true","<div class = centerbox><div id = stim1></div></div>","-1","32","750","1000","practice","nogo","6","random","","",""
"","433","32","1400","250","practice","poldrack-categorize","9","37987","0.0-1.0-7.0","go-nogo","false","0","","true","<div class = centerbox><div  id = stim2></div></div>","32","32","750","1000","practice","go","7","random","","",""
"","486","32","1072","250","practice","poldrack-categorize","10","40315","0.0-1.0-8.0","go-nogo","false","0","","true","<div class = centerbox><div  id = stim2></div></div>","32","32","750","1000","practice","go","8","random","","",""
"","-1","-1","1331","250","practice","poldrack-categorize","11","42903","0.0-1.0-9.0","go-nogo","false","0","","true","<div class = centerbox><div id = stim1></div></div>","-1","32","750","1000","practice","nogo","9","random","","",""
"","","","","","reset_trial","call-function","12","43157","0.0-3.0","go-nogo","false","0","","","","","","","","","","","","","",""
"<div class = centerbox><p class = block-text>Practice is over, we will now begin the experiment. You will no longer get feedback about your responses.</p><p class = block-text>Remember, if you see the <font color=""blue"">blue</font> square you should <strong> respond by pressing the spacebar as quickly as possible</strong>. If you see the <font color=""orange"">orange</font> square you should <strong> not respond</strong>. Press <strong>enter</strong> to begin.</p></div>","4497","13","4497","1000","test_intro","poldrack-text","13","47656","0.0-4.0","go-nogo","false","0","","","","","","","","","","","","","",""
"","438","32","1480","0","test_block","poldrack-single-stim","14","50143","0.0-5.0-0.0","go-nogo","false","0","","true","<div class = centerbox><div  id = stim2></div></div>","32","32","750","","test","go","0","random","","",""
"","421","32","1360","0","test_block","poldrack-single-stim","15","51583","0.0-5.0-1.0","go-nogo","false","0","","true","<div class = centerbox><div  id = stim2></div></div>","32","32","750","","test","go","1","random","","",""
"","383","32","1495","0","test_block","poldrack-single-stim","16","53151","0.0-5.0-2.0","go-nogo","false","0","","true","<div class = centerbox><div  id = stim2></div></div>","32","32","750","","test","go","2","random","","",""
"","448","32","1454","0","test_block","poldrack-single-stim","17","54638","0.0-5.0-3.0","go-nogo","false","0","","true","<div class = centerbox><div  id = stim2></div></div>","32","32","750","","test","go","3","random","","",""
"","422","32","1498","0","test_block","poldrack-single-stim","18","56164","0.0-5.0-4.0","go-nogo","false","0","","true","<div class = centerbox><div  id = stim2></div></div>","32","32","750","","test","go","4","random","","",""
"","389","32","1201","0","test_block","poldrack-single-stim","19","57398","0.0-5.0-5.0","go-nogo","false","0","","true","<div class = centerbox><div  id = stim2></div></div>","32","32","750","","test","go","5","random","","",""
"","607","32","1005","0","test_block","poldrack-single-stim","20","58430","0.0-5.0-6.0","go-nogo","false","0","","true","<div class = centerbox><div  id = stim2></div></div>","32","32","750","","test","go","6","random","","",""
"","617","32","1012","0","test_block","poldrack-single-stim","21","59477","0.0-5.0-7.0","go-nogo","false","0","","true","<div class = centerbox><div  id = stim2></div></div>","32","32","750","","test","go","7","random","","",""
"","508","32","1488","0","test_block","poldrack-single-stim","22","60992","0.0-5.0-8.0","go-nogo","false","0","","true","<div class = centerbox><div  id = stim2></div></div>","32","32","750","","test","go","8","random","","",""
"","430","32","1271","0","test_block","poldrack-single-stim","23","62288","0.0-5.0-9.0","go-nogo","false","0","","true","<div class = centerbox><div  id = stim2></div></div>","32","32","750","","test","go","9","random","","",""
"","412","32","1338","0","test_block","poldrack-single-stim","24","63658","0.0-5.0-10.0","go-nogo","false","0","","true","<div class = centerbox><div  id = stim2></div></div>","32","32","750","","test","go","10","random","","",""
"","459","32","1004","0","test_block","poldrack-single-stim","25","64696","0.0-5.0-11.0","go-nogo","false","0","","true","<div class = centerbox><div  id = stim2></div></div>","32","32","750","","test","go","11","random","","",""
"","498","32","1423","0","test_block","poldrack-single-stim","26","66140","0.0-5.0-12.0","go-nogo","false","0","","true","<div class = centerbox><div  id = stim2></div></div>","32","32","750","","test","go","12","random","","",""
"","539","32","1360","0","test_block","poldrack-single-stim","27","67529","0.0-5.0-13.0","go-nogo","false","0","","true","<div class = centerbox><div  id = stim2></div></div>","32","32","750","","test","go","13","random","","",""
"","622","32","1454","0","test_block","poldrack-single-stim","28","69011","0.0-5.0-14.0","go-nogo","false","0","","true","<div class = centerbox><div  id = stim2></div></div>","32","32","750","","test","go","14","random","","",""
"","608","32","1348","0","test_block","poldrack-single-stim","29","70384","0.0-5.0-15.0","go-nogo","false","0","","true","<div class = centerbox><div  id = stim2></div></div>","32","32","750","","test","go","15","random","","",""
"","583","32","1137","0","test_block","poldrack-single-stim","30","71545","0.0-5.0-16.0","go-nogo","false","0","","true","<div class = centerbox><div  id = stim2></div></div>","32","32","750","","test","go","16","random","","",""
"","573","32","1157","0","test_block","poldrack-single-stim","31","72735","0.0-5.0-17.0","go-nogo","false","0","","true","<div class = centerbox><div  id = stim2></div></div>","32","32","750","","test","go","17","random","","",""
"","426","32","1204","0","test_block","poldrack-single-stim","32","73961","0.0-5.0-18.0","go-nogo","false","0","","true","<div class = centerbox><div  id = stim2></div></div>","32","32","750","","test","go","18","random","","",""
"","-1","-1","1040","0","test_block","poldrack-single-stim","33","75024","0.0-5.0-19.0","go-nogo","false","0","","true","<div class = centerbox><div  id = stim1></div></div>","-1","32","750","","test","nogo","19","random","","",""
"","439","32","1288","0","test_block","poldrack-single-stim","34","76336","0.0-5.0-20.0","go-nogo","false","0","","true","<div class = centerbox><div  id = stim2></div></div>","32","32","750","","test","go","20","random","","",""
"","333","32","1448","0","test_block","poldrack-single-stim","35","77813","0.0-5.0-21.0","go-nogo","false","0","","true","<div class = centerbox><div  id = stim2></div></div>","32","32","750","","test","go","21","random","","",""
"","352","32","1101","0","test_block","poldrack-single-stim","36","78935","0.0-5.0-22.0","go-nogo","false","0","","true","<div class = centerbox><div  id = stim2></div></div>","32","32","750","","test","go","22","random","","",""
"","433","32","1055","0","test_block","poldrack-single-stim","37","80015","0.0-5.0-23.0","go-nogo","false","0","","true","<div class = centerbox><div  id = stim2></div></div>","32","32","750","","test","go","23","random","","",""
"","356","32","1394","0","test_block","poldrack-single-stim","38","81431","0.0-5.0-24.0","go-nogo","false","0","","true","<div class = centerbox><div  id = stim2></div></div>","32","32","750","","test","go","24","random","","",""
"","320","32","1298","0","test_block","poldrack-single-stim","39","82758","0.0-5.0-25.0","go-nogo","false","0","","true","<div class = centerbox><div  id = stim2></div></div>","32","32","750","","test","go","25","random","","",""
"","375","32","1495","0","test_block","poldrack-single-stim","40","84276","0.0-5.0-26.0","go-nogo","false","0","","true","<div class = centerbox><div  id = stim2></div></div>","32","32","750","","test","go","26","random","","",""
"","292","32","1237","0","test_block","poldrack-single-stim","41","85535","0.0-5.0-27.0","go-nogo","false","0","","true","<div class = centerbox><div  id = stim2></div></div>","32","32","750","","test","go","27","random","","",""
"","348","32","1075","0","test_block","poldrack-single-stim","42","86641","0.0-5.0-28.0","go-nogo","false","0","","true","<div class = centerbox><div  id = stim2></div></div>","32","32","750","","test","go","28","random","","",""
"","432","32","1165","0","test_block","poldrack-single-stim","43","87827","0.0-5.0-29.0","go-nogo","false","0","","true","<div class = centerbox><div  id = stim2></div></div>","32","32","750","","test","go","29","random","","",""
"","348","32","1342","0","test_block","poldrack-single-stim","44","89204","0.0-5.0-30.0","go-nogo","false","0","","true","<div class = centerbox><div  id = stim2></div></div>","32","32","750","","test","go","30","random","","",""
"","321","32","1164","0","test_block","poldrack-single-stim","45","90391","0.0-5.0-31.0","go-nogo","false","0","","false","<div class = centerbox><div  id = stim1></div></div>","-1","32","750","","test","nogo","31","random","","",""
"","413","32","1305","0","test_block","poldrack-single-stim","46","91716","0.0-5.0-32.0","go-nogo","false","0","","true","<div class = centerbox><div  id = stim2></div></div>","32","32","750","","test","go","32","random","","",""
"","388","32","1372","0","test_block","poldrack-single-stim","47","93115","0.0-5.0-33.0","go-nogo","false","0","","true","<div class = centerbox><div  id = stim2></div></div>","32","32","750","","test","go","33","random","","",""
"","336","32","1223","0","test_block","poldrack-single-stim","48","94394","0.0-5.0-34.0","go-nogo","false","0","","false","<div class = centerbox><div  id = stim1></div></div>","-1","32","750","","test","nogo","34","random","","",""
"","-1","-1","1366","0","test_block","poldrack-single-stim","49","95782","0.0-5.0-35.0","go-nogo","false","0","","false","<div class = centerbox><div  id = stim2></div></div>","32","32","750","","test","go","35","random","","",""
"","-1","-1","1379","0","test_block","poldrack-single-stim","50","97186","0.0-5.0-36.0","go-nogo","false","0","","false","<div class = centerbox><div  id = stim2></div></div>","32","32","750","","test","go","36","random","","",""
"","429","32","1347","0","test_block","poldrack-single-stim","51","98563","0.0-5.0-37.0","go-nogo","false","0","","true","<div class = centerbox><div  id = stim2></div></div>","32","32","750","","test","go","37","random","","",""
"","578","32","1287","0","test_block","poldrack-single-stim","52","99870","0.0-5.0-38.0","go-nogo","false","0","","true","<div class = centerbox><div  id = stim2></div></div>","32","32","750","","test","go","38","random","","",""
"","542","32","1384","0","test_block","poldrack-single-stim","53","101276","0.0-5.0-39.0","go-nogo","false","0","","true","<div class = centerbox><div  id = stim2></div></div>","32","32","750","","test","go","39","random","","",""
"","358","32","1014","0","test_block","poldrack-single-stim","54","102310","0.0-5.0-40.0","go-nogo","false","0","","true","<div class = centerbox><div  id = stim2></div></div>","32","32","750","","test","go","40","random","","",""
"","397","32","1002","0","test_block","poldrack-single-stim","55","103347","0.0-5.0-41.0","go-nogo","false","0","","true","<div class = centerbox><div  id = stim2></div></div>","32","32","750","","test","go","41","random","","",""
"","412","32","1123","0","test_block","poldrack-single-stim","56","104495","0.0-5.0-42.0","go-nogo","false","0","","true","<div class = centerbox><div  id = stim2></div></div>","32","32","750","","test","go","42","random","","",""
"","373","32","1312","0","test_block","poldrack-single-stim","57","105830","0.0-5.0-43.0","go-nogo","false","0","","true","<div class = centerbox><div  id = stim2></div></div>","32","32","750","","test","go","43","random","","",""
"","379","32","1294","0","test_block","poldrack-single-stim","58","107145","0.0-5.0-44.0","go-nogo","false","0","","true","<div class = centerbox><div  id = stim2></div></div>","32","32","750","","test","go","44","random","","",""
"","355","32","1077","0","test_block","poldrack-single-stim","59","108248","0.0-5.0-45.0","go-nogo","false","0","","true","<div class = centerbox><div  id = stim2></div></div>","32","32","750","","test","go","45","random","","",""
"","382","32","1085","0","test_block","poldrack-single-stim","60","109353","0.0-5.0-46.0","go-nogo","false","0","","true","<div class = centerbox><div  id = stim2></div></div>","32","32","750","","test","go","46","random","","",""
"","459","32","1050","0","test_block","poldrack-single-stim","61","110427","0.0-5.0-47.0","go-nogo","false","0","","true","<div class = centerbox><div  id = stim2></div></div>","32","32","750","","test","go","47","random","","",""
"","549","32","1118","0","test_block","poldrack-single-stim","62","111571","0.0-5.0-48.0","go-nogo","false","0","","true","<div class = centerbox><div  id = stim2></div></div>","32","32","750","","test","go","48","random","","",""
"","559","32","1058","0","test_block","poldrack-single-stim","63","112653","0.0-5.0-49.0","go-nogo","false","0","","true","<div class = centerbox><div  id = stim2></div></div>","32","32","750","","test","go","49","random","","",""
"","671","32","1440","0","test_block","poldrack-single-stim","64","114112","0.0-5.0-50.0","go-nogo","false","0","","true","<div class = centerbox><div  id = stim2></div></div>","32","32","750","","test","go","50","random","","",""
"","-1","-1","1386","0","test_block","poldrack-single-stim","65","115515","0.0-5.0-51.0","go-nogo","false","0","","false","<div class = centerbox><div  id = stim2></div></div>","32","32","750","","test","go","51","random","","",""
"","522","32","1320","0","test_block","poldrack-single-stim","66","116855","0.0-5.0-52.0","go-nogo","false","0","","true","<div class = centerbox><div  id = stim2></div></div>","32","32","750","","test","go","52","random","","",""
"","455","32","1357","0","test_block","poldrack-single-stim","67","118253","0.0-5.0-53.0","go-nogo","false","0","","true","<div class = centerbox><div  id = stim2></div></div>","32","32","750","","test","go","53","random","","",""
"","402","32","1322","0","test_block","poldrack-single-stim","68","119599","0.0-5.0-54.0","go-nogo","false","0","","true","<div class = centerbox><div  id = stim2></div></div>","32","32","750","","test","go","54","random","","",""
"","403","32","1450","0","test_block","poldrack-single-stim","69","121105","0.0-5.0-55.0","go-nogo","false","0","","true","<div class = centerbox><div  id = stim2></div></div>","32","32","750","","test","go","55","random","","",""
"","-1","-1","1124","0","test_block","poldrack-single-stim","70","122278","0.0-5.0-56.0","go-nogo","false","0","","true","<div class = centerbox><div  id = stim1></div></div>","-1","32","750","","test","nogo","56","random","","",""
"","520","32","1370","0","test_block","poldrack-single-stim","71","123673","0.0-5.0-57.0","go-nogo","false","0","","true","<div class = centerbox><div  id = stim2></div></div>","32","32","750","","test","go","57","random","","",""
"","465","32","1436","0","test_block","poldrack-single-stim","72","125132","0.0-5.0-58.0","go-nogo","false","0","","true","<div class = centerbox><div  id = stim2></div></div>","32","32","750","","test","go","58","random","","",""
"","361","32","1068","0","test_block","poldrack-single-stim","73","126241","0.0-5.0-59.0","go-nogo","false","0","","true","<div class = centerbox><div  id = stim2></div></div>","32","32","750","","test","go","59","random","","",""
"","899","32","1031","0","test_block","poldrack-single-stim","74","127293","0.0-5.0-60.0","go-nogo","false","0","","true","<div class = centerbox><div  id = stim2></div></div>","32","32","750","","test","go","60","random","","",""
"","613","32","1208","0","test_block","poldrack-single-stim","75","128524","0.0-5.0-61.0","go-nogo","false","0","","true","<div class = centerbox><div  id = stim2></div></div>","32","32","750","","test","go","61","random","","",""
"","365","32","1186","0","test_block","poldrack-single-stim","76","129732","0.0-5.0-62.0","go-nogo","false","0","","true","<div class = centerbox><div  id = stim2></div></div>","32","32","750","","test","go","62","random","","",""
"","389","32","1444","0","test_block","poldrack-single-stim","77","131199","0.0-5.0-63.0","go-nogo","false","0","","true","<div class = centerbox><div  id = stim2></div></div>","32","32","750","","test","go","63","random","","",""
"","312","32","1412","0","test_block","poldrack-single-stim","78","132632","0.0-5.0-64.0","go-nogo","false","0","","true","<div class = centerbox><div  id = stim2></div></div>","32","32","750","","test","go","64","random","","",""
"","347","32","1471","0","test_block","poldrack-single-stim","79","134124","0.0-5.0-65.0","go-nogo","false","0","","true","<div class = centerbox><div  id = stim2></div></div>","32","32","750","","test","go","65","random","","",""
"","356","32","1152","0","test_block","poldrack-single-stim","80","135313","0.0-5.0-66.0","go-nogo","false","0","","true","<div class = centerbox><div  id = stim2></div></div>","32","32","750","","test","go","66","random","","",""
"","407","32","1292","0","test_block","poldrack-single-stim","81","136638","0.0-5.0-67.0","go-nogo","false","0","","true","<div class = centerbox><div  id = stim2></div></div>","32","32","750","","test","go","67","random","","",""
"","649","32","1000","0","test_block","poldrack-single-stim","82","137670","0.0-5.0-68.0","go-nogo","false","0","","true","<div class = centerbox><div  id = stim2></div></div>","32","32","750","","test","go","68","random","","",""
"","982","32","1365","0","test_block","poldrack-single-stim","83","139060","0.0-5.0-69.0","go-nogo","false","0","","true","<div class = centerbox><div  id = stim2></div></div>","32","32","750","","test","go","69","random","","",""
"","432","32","1317","0","test_block","poldrack-single-stim","84","140400","0.0-5.0-70.0","go-nogo","false","0","","true","<div class = centerbox><div  id = stim2></div></div>","32","32","750","","test","go","70","random","","",""
"","383","32","1415","0","test_block","poldrack-single-stim","85","141847","0.0-5.0-71.0","go-nogo","false","0","","true","<div class = centerbox><div  id = stim2></div></div>","32","32","750","","test","go","71","random","","",""
"","784","32","1044","0","test_block","poldrack-single-stim","86","143426","0.0-5.0-72.0","go-nogo","false","0","","true","<div class = centerbox><div  id = stim2></div></div>","32","32","750","","test","go","72","random","","",""
"","-1","-1","1493","0","test_block","poldrack-single-stim","87","144958","0.0-5.0-73.0","go-nogo","false","0","","true","<div class = centerbox><div  id = stim1></div></div>","-1","32","750","","test","nogo","73","random","","",""
"","558","32","1274","0","test_block","poldrack-single-stim","88","146253","0.0-5.0-74.0","go-nogo","false","0","","true","<div class = centerbox><div  id = stim2></div></div>","32","32","750","","test","go","74","random","","",""
"","554","32","1149","0","test_block","poldrack-single-stim","89","147433","0.0-5.0-75.0","go-nogo","false","0","","true","<div class = centerbox><div  id = stim2></div></div>","32","32","750","","test","go","75","random","","",""
"","528","32","1234","0","test_block","poldrack-single-stim","90","148687","0.0-5.0-76.0","go-nogo","false","0","","true","<div class = centerbox><div  id = stim2></div></div>","32","32","750","","test","go","76","random","","",""
"","626","32","1009","0","test_block","poldrack-single-stim","91","149716","0.0-5.0-77.0","go-nogo","false","0","","true","<div class = centerbox><div  id = stim2></div></div>","32","32","750","","test","go","77","random","","",""
"","438","32","1385","0","test_block","poldrack-single-stim","92","151120","0.0-5.0-78.0","go-nogo","false","0","","true","<div class = centerbox><div  id = stim2></div></div>","32","32","750","","test","go","78","random","","",""
"","-1","-1","1121","0","test_block","poldrack-single-stim","93","152290","0.0-5.0-79.0","go-nogo","false","0","","false","<div class = centerbox><div  id = stim2></div></div>","32","32","750","","test","go","79","random","","",""
"","837","32","1482","0","test_block","poldrack-single-stim","94","153792","0.0-5.0-80.0","go-nogo","false","0","","true","<div class = centerbox><div  id = stim2></div></div>","32","32","750","","test","go","80","random","","",""
"","610","32","1499","0","test_block","poldrack-single-stim","95","155314","0.0-5.0-81.0","go-nogo","false","0","","true","<div class = centerbox><div  id = stim2></div></div>","32","32","750","","test","go","81","random","","",""
"","338","32","1209","0","test_block","poldrack-single-stim","96","156548","0.0-5.0-82.0","go-nogo","false","0","","true","<div class = centerbox><div  id = stim2></div></div>","32","32","750","","test","go","82","random","","",""
"","576","32","1077","0","test_block","poldrack-single-stim","97","157648","0.0-5.0-83.0","go-nogo","false","0","","true","<div class = centerbox><div  id = stim2></div></div>","32","32","750","","test","go","83","random","","",""
"","492","32","1333","0","test_block","poldrack-single-stim","98","159008","0.0-5.0-84.0","go-nogo","false","0","","true","<div class = centerbox><div  id = stim2></div></div>","32","32","750","","test","go","84","random","","",""
"","371","32","1239","0","test_block","poldrack-single-stim","99","160270","0.0-5.0-85.0","go-nogo","false","0","","true","<div class = centerbox><div  id = stim2></div></div>","32","32","750","","test","go","85","random","","",""
"","-1","-1","1421","0","test_block","poldrack-single-stim","100","161716","0.0-5.0-86.0","go-nogo","false","0","","true","<div class = centerbox><div  id = stim1></div></div>","-1","32","750","","test","nogo","86","random","","",""
"","-1","-1","1372","0","test_block","poldrack-single-stim","101","163107","0.0-5.0-87.0","go-nogo","false","0","","true","<div class = centerbox><div  id = stim1></div></div>","-1","32","750","","test","nogo","87","random","","",""
"","443","32","1212","0","test_block","poldrack-single-stim","102","164354","0.0-5.0-88.0","go-nogo","false","0","","true","<div class = centerbox><div  id = stim2></div></div>","32","32","750","","test","go","88","random","","",""
"","345","32","1066","0","test_block","poldrack-single-stim","103","165441","0.0-5.0-89.0","go-nogo","false","0","","true","<div class = centerbox><div  id = stim2></div></div>","32","32","750","","test","go","89","random","","",""
"","406","32","1408","0","test_block","poldrack-single-stim","104","166871","0.0-5.0-90.0","go-nogo","false","0","","true","<div class = centerbox><div  id = stim2></div></div>","32","32","750","","test","go","90","random","","",""
"","369","32","1171","0","test_block","poldrack-single-stim","105","168062","0.0-5.0-91.0","go-nogo","false","0","","true","<div class = centerbox><div  id = stim2></div></div>","32","32","750","","test","go","91","random","","",""
"","355","32","1254","0","test_block","poldrack-single-stim","106","169338","0.0-5.0-92.0","go-nogo","false","0","","false","<div class = centerbox><div  id = stim1></div></div>","-1","32","750","","test","nogo","92","random","","",""
"","-1","-1","1483","0","test_block","poldrack-single-stim","107","170842","0.0-5.0-93.0","go-nogo","false","0","","true","<div class = centerbox><div  id = stim1></div></div>","-1","32","750","","test","nogo","93","random","","",""
"","451","32","1286","0","test_block","poldrack-single-stim","108","172155","0.0-5.0-94.0","go-nogo","false","0","","true","<div class = centerbox><div  id = stim2></div></div>","32","32","750","","test","go","94","random","","",""
"","-1","-1","1345","0","test_block","poldrack-single-stim","109","173523","0.0-5.0-95.0","go-nogo","false","0","","true","<div class = centerbox><div  id = stim1></div></div>","-1","32","750","","test","nogo","95","random","","",""
"","442","32","1104","0","test_block","poldrack-single-stim","110","174648","0.0-5.0-96.0","go-nogo","false","0","","true","<div class = centerbox><div  id = stim2></div></div>","32","32","750","","test","go","96","random","","",""
"","-1","-1","1259","0","test_block","poldrack-single-stim","111","175929","0.0-5.0-97.0","go-nogo","false","0","","false","<div class = centerbox><div  id = stim2></div></div>","32","32","750","","test","go","97","random","","",""
"","348","32","1498","0","test_block","poldrack-single-stim","112","177448","0.0-5.0-98.0","go-nogo","false","0","","true","<div class = centerbox><div  id = stim2></div></div>","32","32","750","","test","go","98","random","","",""
"","311","32","1229","0","test_block","poldrack-single-stim","113","178699","0.0-5.0-99.0","go-nogo","false","0","","true","<div class = centerbox><div  id = stim2></div></div>","32","32","750","","test","go","99","random","","",""
"","282","32","1439","0","test_block","poldrack-single-stim","114","180160","0.0-5.0-100.0","go-nogo","false","0","","true","<div class = centerbox><div  id = stim2></div></div>","32","32","750","","test","go","100","random","","",""
"","-1","-1","1447","0","test_block","poldrack-single-stim","115","181634","0.0-5.0-101.0","go-nogo","false","0","","true","<div class = centerbox><div  id = stim1></div></div>","-1","32","750","","test","nogo","101","random","","",""
"","296","32","1499","0","test_block","poldrack-single-stim","116","183158","0.0-5.0-102.0","go-nogo","false","0","","true","<div class = centerbox><div  id = stim2></div></div>","32","32","750","","test","go","102","random","","",""
"","347","32","1310","0","test_block","poldrack-single-stim","117","184496","0.0-5.0-103.0","go-nogo","false","0","","true","<div class = centerbox><div  id = stim2></div></div>","32","32","750","","test","go","103","random","","",""
"","389","32","1193","0","test_block","poldrack-single-stim","118","185708","0.0-5.0-104.0","go-nogo","false","0","","true","<div class = centerbox><div  id = stim2></div></div>","32","32","750","","test","go","104","random","","",""
"","361","32","1086","0","test_block","poldrack-single-stim","119","186815","0.0-5.0-105.0","go-nogo","false","0","","true","<div class = centerbox><div  id = stim2></div></div>","32","32","750","","test","go","105","random","","",""
"","423","32","1036","0","test_block","poldrack-single-stim","120","187885","0.0-5.0-106.0","go-nogo","false","0","","true","<div class = centerbox><div  id = stim2></div></div>","32","32","750","","test","go","106","random","","",""
"","403","32","1455","0","test_block","poldrack-single-stim","121","189360","0.0-5.0-107.0","go-nogo","false","0","","true","<div class = centerbox><div  id = stim2></div></div>","32","32","750","","test","go","107","random","","",""
"","324","32","1426","0","test_block","poldrack-single-stim","122","190810","0.0-5.0-108.0","go-nogo","false","0","","true","<div class = centerbox><div  id = stim2></div></div>","32","32","750","","test","go","108","random","","",""
"","359","32","1490","0","test_block","poldrack-single-stim","123","192319","0.0-5.0-109.0","go-nogo","false","0","","true","<div class = centerbox><div  id = stim2></div></div>","32","32","750","","test","go","109","random","","",""
"","409","32","1180","0","test_block","poldrack-single-stim","124","193521","0.0-5.0-110.0","go-nogo","false","0","","true","<div class = centerbox><div  id = stim2></div></div>","32","32","750","","test","go","110","random","","",""
"","487","32","1326","0","test_block","poldrack-single-stim","125","194869","0.0-5.0-111.0","go-nogo","false","0","","true","<div class = centerbox><div  id = stim2></div></div>","32","32","750","","test","go","111","random","","",""
"","-1","-1","1452","0","test_block","poldrack-single-stim","126","196340","0.0-5.0-112.0","go-nogo","false","0","","false","<div class = centerbox><div  id = stim2></div></div>","32","32","750","","test","go","112","random","","",""
"","458","32","1051","0","test_block","poldrack-single-stim","127","197410","0.0-5.0-113.0","go-nogo","false","0","","true","<div class = centerbox><div  id = stim2></div></div>","32","32","750","","test","go","113","random","","",""
"","439","32","1323","0","test_block","poldrack-single-stim","128","198756","0.0-5.0-114.0","go-nogo","false","0","","true","<div class = centerbox><div  id = stim2></div></div>","32","32","750","","test","go","114","random","","",""
"","414","32","1254","0","test_block","poldrack-single-stim","129","200028","0.0-5.0-115.0","go-nogo","false","0","","true","<div class = centerbox><div  id = stim2></div></div>","32","32","750","","test","go","115","random","","",""
"","474","32","1171","0","test_block","poldrack-single-stim","130","201216","0.0-5.0-116.0","go-nogo","false","0","","true","<div class = centerbox><div  id = stim2></div></div>","32","32","750","","test","go","116","random","","",""
"","-1","-1","1476","0","test_block","poldrack-single-stim","131","202713","0.0-5.0-117.0","go-nogo","false","0","","true","<div class = centerbox><div  id = stim1></div></div>","-1","32","750","","test","nogo","117","random","","",""
"","687","32","1050","0","test_block","poldrack-single-stim","132","203783","0.0-5.0-118.0","go-nogo","false","0","","true","<div class = centerbox><div  id = stim2></div></div>","32","32","750","","test","go","118","random","","",""
"","1197","32","1372","0","test_block","poldrack-single-stim","133","205180","0.0-5.0-119.0","go-nogo","false","0","","true","<div class = centerbox><div  id = stim2></div></div>","32","32","750","","test","go","119","random","","",""
"","523","32","1264","0","test_block","poldrack-single-stim","134","206469","0.0-5.0-120.0","go-nogo","false","0","","true","<div class = centerbox><div  id = stim2></div></div>","32","32","750","","test","go","120","random","","",""
"","1039","32","1046","0","test_block","poldrack-single-stim","135","207534","0.0-5.0-121.0","go-nogo","false","0","","true","<div class = centerbox><div  id = stim2></div></div>","32","32","750","","test","go","121","random","","",""
"","-1","-1","1104","0","test_block","poldrack-single-stim","136","208663","0.0-5.0-122.0","go-nogo","false","0","","false","<div class = centerbox><div  id = stim2></div></div>","32","32","750","","test","go","122","random","","",""
"","383","32","1438","0","test_block","poldrack-single-stim","137","210447","0.0-5.0-123.0","go-nogo","false","0","","true","<div class = centerbox><div  id = stim2></div></div>","32","32","750","","test","go","123","random","","",""
"","345","32","1251","0","test_block","poldrack-single-stim","138","211717","0.0-5.0-124.0","go-nogo","false","0","","true","<div class = centerbox><div  id = stim2></div></div>","32","32","750","","test","go","124","random","","",""
"","312","32","1101","0","test_block","poldrack-single-stim","139","212836","0.0-5.0-125.0","go-nogo","false","0","","true","<div class = centerbox><div  id = stim2></div></div>","32","32","750","","test","go","125","random","","",""
"","398","32","1418","0","test_block","poldrack-single-stim","140","214279","0.0-5.0-126.0","go-nogo","false","0","","true","<div class = centerbox><div  id = stim2></div></div>","32","32","750","","test","go","126","random","","",""
"","435","32","1165","0","test_block","poldrack-single-stim","141","215466","0.0-5.0-127.0","go-nogo","false","0","","true","<div class = centerbox><div  id = stim2></div></div>","32","32","750","","test","go","127","random","","",""
"","620","32","1310","0","test_block","poldrack-single-stim","142","216813","0.0-5.0-128.0","go-nogo","false","0","","true","<div class = centerbox><div  id = stim2></div></div>","32","32","750","","test","go","128","random","","",""
"","-1","-1","1282","0","test_block","poldrack-single-stim","143","218114","0.0-5.0-129.0","go-nogo","false","0","","true","<div class = centerbox><div  id = stim1></div></div>","-1","32","750","","test","nogo","129","random","","",""
"","-1","-1","1158","0","test_block","poldrack-single-stim","144","219325","0.0-5.0-130.0","go-nogo","false","0","","true","<div class = centerbox><div  id = stim1></div></div>","-1","32","750","","test","nogo","130","random","","",""
"","401","32","1452","0","test_block","poldrack-single-stim","145","220801","0.0-5.0-131.0","go-nogo","false","0","","true","<div class = centerbox><div  id = stim2></div></div>","32","32","750","","test","go","131","random","","",""
"","424","32","1324","0","test_block","poldrack-single-stim","146","222277","0.0-5.0-132.0","go-nogo","false","0","","false","<div class = centerbox><div  id = stim1></div></div>","-1","32","750","","test","nogo","132","random","","",""
"","347","32","1191","0","test_block","poldrack-single-stim","147","223487","0.0-5.0-133.0","go-nogo","false","0","","true","<div class = centerbox><div  id = stim2></div></div>","32","32","750","","test","go","133","random","","",""
"","364","32","1096","0","test_block","poldrack-single-stim","148","224604","0.0-5.0-134.0","go-nogo","false","0","","true","<div class = centerbox><div  id = stim2></div></div>","32","32","750","","test","go","134","random","","",""
"","338","32","1311","0","test_block","poldrack-single-stim","149","225935","0.0-5.0-135.0","go-nogo","false","0","","true","<div class = centerbox><div  id = stim2></div></div>","32","32","750","","test","go","135","random","","",""
"","357","32","1220","0","test_block","poldrack-single-stim","150","227178","0.0-5.0-136.0","go-nogo","false","0","","true","<div class = centerbox><div  id = stim2></div></div>","32","32","750","","test","go","136","random","","",""
"","287","32","1152","0","test_block","poldrack-single-stim","151","228350","0.0-5.0-137.0","go-nogo","false","0","","true","<div class = centerbox><div  id = stim2></div></div>","32","32","750","","test","go","137","random","","",""
"","349","32","1013","0","test_block","poldrack-single-stim","152","229384","0.0-5.0-138.0","go-nogo","false","0","","true","<div class = centerbox><div  id = stim2></div></div>","32","32","750","","test","go","138","random","","",""
"","377","32","1391","0","test_block","poldrack-single-stim","153","230811","0.0-5.0-139.0","go-nogo","false","0","","true","<div class = centerbox><div  id = stim2></div></div>","32","32","750","","test","go","139","random","","",""
"","331","32","1142","0","test_block","poldrack-single-stim","154","231971","0.0-5.0-140.0","go-nogo","false","0","","true","<div class = centerbox><div  id = stim2></div></div>","32","32","750","","test","go","140","random","","",""
"","332","32","1211","0","test_block","poldrack-single-stim","155","233200","0.0-5.0-141.0","go-nogo","false","0","","true","<div class = centerbox><div  id = stim2></div></div>","32","32","750","","test","go","141","random","","",""
"","322","32","1039","0","test_block","poldrack-single-stim","156","234262","0.0-5.0-142.0","go-nogo","false","0","","true","<div class = centerbox><div  id = stim2></div></div>","32","32","750","","test","go","142","random","","",""
"","301","32","1339","0","test_block","poldrack-single-stim","157","235623","0.0-5.0-143.0","go-nogo","false","0","","true","<div class = centerbox><div  id = stim2></div></div>","32","32","750","","test","go","143","random","","",""
"","308","32","1267","0","test_block","poldrack-single-stim","158","236910","0.0-5.0-144.0","go-nogo","false","0","","true","<div class = centerbox><div  id = stim2></div></div>","32","32","750","","test","go","144","random","","",""
"","273","32","1084","0","test_block","poldrack-single-stim","159","238017","0.0-5.0-145.0","go-nogo","false","0","","false","<div class = centerbox><div  id = stim1></div></div>","-1","32","750","","test","nogo","145","random","","",""
"","497","32","1469","0","test_block","poldrack-single-stim","160","239505","0.0-5.0-146.0","go-nogo","false","0","","true","<div class = centerbox><div  id = stim2></div></div>","32","32","750","","test","go","146","random","","",""
"","354","32","1094","0","test_block","poldrack-single-stim","161","240622","0.0-5.0-147.0","go-nogo","false","0","","true","<div class = centerbox><div  id = stim2></div></div>","32","32","750","","test","go","147","random","","",""
"","316","32","1259","0","test_block","poldrack-single-stim","162","241898","0.0-5.0-148.0","go-nogo","false","0","","true","<div class = centerbox><div  id = stim2></div></div>","32","32","750","","test","go","148","random","","",""
"","323","32","1460","0","test_block","poldrack-single-stim","163","243375","0.0-5.0-149.0","go-nogo","false","0","","true","<div class = centerbox><div  id = stim2></div></div>","32","32","750","","test","go","149","random","","",""
"","426","32","1090","0","test_block","poldrack-single-stim","164","244487","0.0-5.0-150.0","go-nogo","false","0","","true","<div class = centerbox><div  id = stim2></div></div>","32","32","750","","test","go","150","random","","",""
"","440","32","1025","0","test_block","poldrack-single-stim","165","245531","0.0-5.0-151.0","go-nogo","false","0","","true","<div class = centerbox><div  id = stim2></div></div>","32","32","750","","test","go","151","random","","",""
"","392","32","1200","0","test_block","poldrack-single-stim","166","246751","0.0-5.0-152.0","go-nogo","false","0","","false","<div class = centerbox><div  id = stim1></div></div>","-1","32","750","","test","nogo","152","random","","",""
"","452","32","1269","0","test_block","poldrack-single-stim","167","248039","0.0-5.0-153.0","go-nogo","false","0","","true","<div class = centerbox><div  id = stim2></div></div>","32","32","750","","test","go","153","random","","",""
"","768","32","1202","0","test_block","poldrack-single-stim","168","249262","0.0-5.0-154.0","go-nogo","false","0","","true","<div class = centerbox><div  id = stim2></div></div>","32","32","750","","test","go","154","random","","",""
"","619","32","1039","0","test_block","poldrack-single-stim","169","250321","0.0-5.0-155.0","go-nogo","false","0","","true","<div class = centerbox><div  id = stim2></div></div>","32","32","750","","test","go","155","random","","",""
"","-1","-1","1217","0","test_block","poldrack-single-stim","170","251569","0.0-5.0-156.0","go-nogo","false","0","","false","<div class = centerbox><div  id = stim2></div></div>","32","32","750","","test","go","156","random","","",""
"","378","32","1241","0","test_block","poldrack-single-stim","171","252832","0.0-5.0-157.0","go-nogo","false","0","","true","<div class = centerbox><div  id = stim2></div></div>","32","32","750","","test","go","157","random","","",""
"","231","32","1026","0","test_block","poldrack-single-stim","172","253878","0.0-5.0-158.0","go-nogo","false","0","","true","<div class = centerbox><div  id = stim2></div></div>","32","32","750","","test","go","158","random","","",""
"","340","32","1164","0","test_block","poldrack-single-stim","173","255062","0.0-5.0-159.0","go-nogo","false","0","","true","<div class = centerbox><div  id = stim2></div></div>","32","32","750","","test","go","159","random","","",""
"","279","32","1096","0","test_block","poldrack-single-stim","174","256182","0.0-5.0-160.0","go-nogo","false","0","","true","<div class = centerbox><div  id = stim2></div></div>","32","32","750","","test","go","160","random","","",""
"","291","32","1041","0","test_block","poldrack-single-stim","175","257250","0.0-5.0-161.0","go-nogo","false","0","","true","<div class = centerbox><div  id = stim2></div></div>","32","32","750","","test","go","161","random","","",""
"","302","32","1079","0","test_block","poldrack-single-stim","176","258349","0.0-5.0-162.0","go-nogo","false","0","","true","<div class = centerbox><div  id = stim2></div></div>","32","32","750","","test","go","162","random","","",""
"","320","32","1044","0","test_block","poldrack-single-stim","177","259413","0.0-5.0-163.0","go-nogo","false","0","","true","<div class = centerbox><div  id = stim2></div></div>","32","32","750","","test","go","163","random","","",""
"","315","32","1184","0","test_block","poldrack-single-stim","178","260619","0.0-5.0-164.0","go-nogo","false","0","","true","<div class = centerbox><div  id = stim2></div></div>","32","32","750","","test","go","164","random","","",""
"","254","32","1393","0","test_block","poldrack-single-stim","179","262063","0.0-5.0-165.0","go-nogo","false","0","","true","<div class = centerbox><div  id = stim2></div></div>","32","32","750","","test","go","165","random","","",""
"","671","32","1460","0","test_block","poldrack-single-stim","180","263544","0.0-5.0-166.0","go-nogo","false","0","","true","<div class = centerbox><div  id = stim2></div></div>","32","32","750","","test","go","166","random","","",""
"","337","32","1458","0","test_block","poldrack-single-stim","181","265024","0.0-5.0-167.0","go-nogo","false","0","","true","<div class = centerbox><div  id = stim2></div></div>","32","32","750","","test","go","167","random","","",""
"","306","32","1420","0","test_block","poldrack-single-stim","182","266463","0.0-5.0-168.0","go-nogo","false","0","","true","<div class = centerbox><div  id = stim2></div></div>","32","32","750","","test","go","168","random","","",""
"","288","32","1175","0","test_block","poldrack-single-stim","183","267658","0.0-5.0-169.0","go-nogo","false","0","","true","<div class = centerbox><div  id = stim2></div></div>","32","32","750","","test","go","169","random","","",""
"","278","32","1150","0","test_block","poldrack-single-stim","184","268829","0.0-5.0-170.0","go-nogo","false","0","","false","<div class = centerbox><div  id = stim1></div></div>","-1","32","750","","test","nogo","170","random","","",""
"","463","32","1400","0","test_block","poldrack-single-stim","185","270248","0.0-5.0-171.0","go-nogo","false","0","","true","<div class = centerbox><div  id = stim2></div></div>","32","32","750","","test","go","171","random","","",""
"","334","32","1013","0","test_block","poldrack-single-stim","186","271281","0.0-5.0-172.0","go-nogo","false","0","","true","<div class = centerbox><div  id = stim2></div></div>","32","32","750","","test","go","172","random","","",""
"","29","32","1291","0","test_block","poldrack-single-stim","187","272997","0.0-5.0-173.0","go-nogo","false","0","","true","<div class = centerbox><div  id = stim2></div></div>","32","32","750","","test","go","173","random","","",""
"","317","32","1201","0","test_block","poldrack-single-stim","188","274220","0.0-5.0-174.0","go-nogo","false","0","","true","<div class = centerbox><div  id = stim2></div></div>","32","32","750","","test","go","174","random","","",""
"","278","32","1387","0","test_block","poldrack-single-stim","189","275625","0.0-5.0-175.0","go-nogo","false","0","","true","<div class = centerbox><div  id = stim2></div></div>","32","32","750","","test","go","175","random","","",""
"","327","32","1442","0","test_block","poldrack-single-stim","190","277086","0.0-5.0-176.0","go-nogo","false","0","","true","<div class = centerbox><div  id = stim2></div></div>","32","32","750","","test","go","176","random","","",""
"","399","32","1211","0","test_block","poldrack-single-stim","191","278317","0.0-5.0-177.0","go-nogo","false","0","","true","<div class = centerbox><div  id = stim2></div></div>","32","32","750","","test","go","177","random","","",""
"","392","32","1149","0","test_block","poldrack-single-stim","192","279485","0.0-5.0-178.0","go-nogo","false","0","","true","<div class = centerbox><div  id = stim2></div></div>","32","32","750","","test","go","178","random","","",""
"","436","32","1318","0","test_block","poldrack-single-stim","193","280821","0.0-5.0-179.0","go-nogo","false","0","","true","<div class = centerbox><div  id = stim2></div></div>","32","32","750","","test","go","179","random","","",""
"","-1","-1","1344","0","test_block","poldrack-single-stim","194","282185","0.0-5.0-180.0","go-nogo","false","0","","true","<div class = centerbox><div  id = stim1></div></div>","-1","32","750","","test","nogo","180","random","","",""
"","388","32","1204","0","test_block","poldrack-single-stim","195","283409","0.0-5.0-181.0","go-nogo","false","0","","true","<div class = centerbox><div  id = stim2></div></div>","32","32","750","","test","go","181","random","","",""
"","431","32","1387","0","test_block","poldrack-single-stim","196","284816","0.0-5.0-182.0","go-nogo","false","0","","true","<div class = centerbox><div  id = stim2></div></div>","32","32","750","","test","go","182","random","","",""
"","323","32","1052","0","test_block","poldrack-single-stim","197","285887","0.0-5.0-183.0","go-nogo","false","0","","true","<div class = centerbox><div  id = stim2></div></div>","32","32","750","","test","go","183","random","","",""
"","403","32","1374","0","test_block","poldrack-single-stim","198","287279","0.0-5.0-184.0","go-nogo","false","0","","true","<div class = centerbox><div  id = stim2></div></div>","32","32","750","","test","go","184","random","","",""
"","349","32","1129","0","test_block","poldrack-single-stim","199","288427","0.0-5.0-185.0","go-nogo","false","0","","true","<div class = centerbox><div  id = stim2></div></div>","32","32","750","","test","go","185","random","","",""
"","407","32","1496","0","test_block","poldrack-single-stim","200","289945","0.0-5.0-186.0","go-nogo","false","0","","true","<div class = centerbox><div  id = stim2></div></div>","32","32","750","","test","go","186","random","","",""
"","380","32","1046","0","test_block","poldrack-single-stim","201","291010","0.0-5.0-187.0","go-nogo","false","0","","true","<div class = centerbox><div  id = stim2></div></div>","32","32","750","","test","go","187","random","","",""
"","462","32","1407","0","test_block","poldrack-single-stim","202","292437","0.0-5.0-188.0","go-nogo","false","0","","true","<div class = centerbox><div  id = stim2></div></div>","32","32","750","","test","go","188","random","","",""
"","354","32","1191","0","test_block","poldrack-single-stim","203","293644","0.0-5.0-189.0","go-nogo","false","0","","true","<div class = centerbox><div  id = stim2></div></div>","32","32","750","","test","go","189","random","","",""
"","347","32","1332","0","test_block","poldrack-single-stim","204","295043","0.0-5.0-190.0","go-nogo","false","0","","true","<div class = centerbox><div  id = stim2></div></div>","32","32","750","","test","go","190","random","","",""
"","378","32","1402","0","test_block","poldrack-single-stim","205","296468","0.0-5.0-191.0","go-nogo","false","0","","true","<div class = centerbox><div  id = stim2></div></div>","32","32","750","","test","go","191","random","","",""
"","361","32","1341","0","test_block","poldrack-single-stim","206","297824","0.0-5.0-192.0","go-nogo","false","0","","true","<div class = centerbox><div  id = stim2></div></div>","32","32","750","","test","go","192","random","","",""
"","404","32","1382","0","test_block","poldrack-single-stim","207","299223","0.0-5.0-193.0","go-nogo","false","0","","true","<div class = centerbox><div  id = stim2></div></div>","32","32","750","","test","go","193","random","","",""
"","449","32","1301","0","test_block","poldrack-single-stim","208","300546","0.0-5.0-194.0","go-nogo","false","0","","true","<div class = centerbox><div  id = stim2></div></div>","32","32","750","","test","go","194","random","","",""
"","394","32","1479","0","test_block","poldrack-single-stim","209","302048","0.0-5.0-195.0","go-nogo","false","0","","true","<div class = centerbox><div  id = stim2></div></div>","32","32","750","","test","go","195","random","","",""
"","352","32","1381","0","test_block","poldrack-single-stim","210","303454","0.0-5.0-196.0","go-nogo","false","0","","true","<div class = centerbox><div  id = stim2></div></div>","32","32","750","","test","go","196","random","","",""
"","550","32","1273","0","test_block","poldrack-single-stim","211","304744","0.0-5.0-197.0","go-nogo","false","0","","true","<div class = centerbox><div  id = stim2></div></div>","32","32","750","","test","go","197","random","","",""
"","375","32","1179","0","test_block","poldrack-single-stim","212","305942","0.0-5.0-198.0","go-nogo","false","0","","true","<div class = centerbox><div  id = stim2></div></div>","32","32","750","","test","go","198","random","","",""
"","358","32","1384","0","test_block","poldrack-single-stim","213","307346","0.0-5.0-199.0","go-nogo","false","0","","true","<div class = centerbox><div  id = stim2></div></div>","32","32","750","","test","go","199","random","","",""
"","356","32","1412","0","test_block","poldrack-single-stim","214","308778","0.0-5.0-200.0","go-nogo","false","0","","true","<div class = centerbox><div  id = stim2></div></div>","32","32","750","","test","go","200","random","","",""
"","478","32","1211","0","test_block","poldrack-single-stim","215","310012","0.0-5.0-201.0","go-nogo","false","0","","false","<div class = centerbox><div  id = stim1></div></div>","-1","32","750","","test","nogo","201","random","","",""
"","-1","-1","1054","0","test_block","poldrack-single-stim","216","311087","0.0-5.0-202.0","go-nogo","false","0","","false","<div class = centerbox><div  id = stim2></div></div>","32","32","750","","test","go","202","random","","",""
"","420","32","1001","0","test_block","poldrack-single-stim","217","312113","0.0-5.0-203.0","go-nogo","false","0","","true","<div class = centerbox><div  id = stim2></div></div>","32","32","750","","test","go","203","random","","",""
"","772","32","1384","0","test_block","poldrack-single-stim","218","313515","0.0-5.0-204.0","go-nogo","false","0","","true","<div class = centerbox><div  id = stim2></div></div>","32","32","750","","test","go","204","random","","",""
"","624","32","1404","0","test_block","poldrack-single-stim","219","314937","0.0-5.0-205.0","go-nogo","false","0","","true","<div class = centerbox><div  id = stim2></div></div>","32","32","750","","test","go","205","random","","",""
"","385","32","1252","0","test_block","poldrack-single-stim","220","316210","0.0-5.0-206.0","go-nogo","false","0","","true","<div class = centerbox><div  id = stim2></div></div>","32","32","750","","test","go","206","random","","",""
"","314","32","1148","0","test_block","poldrack-single-stim","221","317379","0.0-5.0-207.0","go-nogo","false","0","","true","<div class = centerbox><div  id = stim2></div></div>","32","32","750","","test","go","207","random","","",""
"","660","32","1157","0","test_block","poldrack-single-stim","222","318554","0.0-5.0-208.0","go-nogo","false","0","","true","<div class = centerbox><div  id = stim2></div></div>","32","32","750","","test","go","208","random","","",""
"","-1","-1","1443","0","test_block","poldrack-single-stim","223","320019","0.0-5.0-209.0","go-nogo","false","0","","false","<div class = centerbox><div  id = stim2></div></div>","32","32","750","","test","go","209","random","","",""
"","388","32","1304","0","test_block","poldrack-single-stim","224","321339","0.0-5.0-210.0","go-nogo","false","0","","true","<div class = centerbox><div  id = stim2></div></div>","32","32","750","","test","go","210","random","","",""
"","475","32","1209","0","test_block","poldrack-single-stim","225","322569","0.0-5.0-211.0","go-nogo","false","0","","true","<div class = centerbox><div  id = stim2></div></div>","32","32","750","","test","go","211","random","","",""
"","372","32","1402","0","test_block","poldrack-single-stim","226","323988","0.0-5.0-212.0","go-nogo","false","0","","true","<div class = centerbox><div  id = stim2></div></div>","32","32","750","","test","go","212","random","","",""
"","335","32","1078","0","test_block","poldrack-single-stim","227","325086","0.0-5.0-213.0","go-nogo","false","0","","true","<div class = centerbox><div  id = stim2></div></div>","32","32","750","","test","go","213","random","","",""
"","368","32","1420","0","test_block","poldrack-single-stim","228","326527","0.0-5.0-214.0","go-nogo","false","0","","true","<div class = centerbox><div  id = stim2></div></div>","32","32","750","","test","go","214","random","","",""
"","623","32","1060","0","test_block","poldrack-single-stim","229","327610","0.0-5.0-215.0","go-nogo","false","0","","true","<div class = centerbox><div  id = stim2></div></div>","32","32","750","","test","go","215","random","","",""
"","-1","-1","1270","0","test_block","poldrack-single-stim","230","328934","0.0-5.0-216.0","go-nogo","false","0","","true","<div class = centerbox><div  id = stim1></div></div>","-1","32","750","","test","nogo","216","random","","",""
"","-1","-1","1348","0","test_block","poldrack-single-stim","231","330302","0.0-5.0-217.0","go-nogo","false","0","","false","<div class = centerbox><div  id = stim2></div></div>","32","32","750","","test","go","217","random","","",""
"","-1","-1","1398","0","test_block","poldrack-single-stim","232","331726","0.0-5.0-218.0","go-nogo","false","0","","false","<div class = centerbox><div  id = stim2></div></div>","32","32","750","","test","go","218","random","","",""
"","1","32","1232","0","test_block","poldrack-single-stim","233","333103","0.0-5.0-219.0","go-nogo","false","0","","true","<div class = centerbox><div  id = stim2></div></div>","32","32","750","","test","go","219","random","","",""
"","392","32","1290","0","test_block","poldrack-single-stim","234","334431","0.0-5.0-220.0","go-nogo","false","0","","false","<div class = centerbox><div  id = stim1></div></div>","-1","32","750","","test","nogo","220","random","","",""
"","419","32","1494","0","test_block","poldrack-single-stim","235","335944","0.0-5.0-221.0","go-nogo","false","0","","true","<div class = centerbox><div  id = stim2></div></div>","32","32","750","","test","go","221","random","","",""
"","416","32","1144","0","test_block","poldrack-single-stim","236","337109","0.0-5.0-222.0","go-nogo","false","0","","true","<div class = centerbox><div  id = stim2></div></div>","32","32","750","","test","go","222","random","","",""
"","497","32","1153","0","test_block","poldrack-single-stim","237","338321","0.0-5.0-223.0","go-nogo","false","0","","true","<div class = centerbox><div  id = stim2></div></div>","32","32","750","","test","go","223","random","","",""
"","-1","-1","1054","0","test_block","poldrack-single-stim","238","339402","0.0-5.0-224.0","go-nogo","false","0","","true","<div class = centerbox><div  id = stim1></div></div>","-1","32","750","","test","nogo","224","random","","",""
"","-1","-1","1358","0","test_block","poldrack-single-stim","239","340780","0.0-5.0-225.0","go-nogo","false","0","","true","<div class = centerbox><div  id = stim1></div></div>","-1","32","750","","test","nogo","225","random","","",""
"","390","32","1375","0","test_block","poldrack-single-stim","240","342175","0.0-5.0-226.0","go-nogo","false","0","","true","<div class = centerbox><div  id = stim2></div></div>","32","32","750","","test","go","226","random","","",""
"","312","32","1251","0","test_block","poldrack-single-stim","241","343454","0.0-5.0-227.0","go-nogo","false","0","","true","<div class = centerbox><div  id = stim2></div></div>","32","32","750","","test","go","227","random","","",""
"","260","32","1016","0","test_block","poldrack-single-stim","242","344490","0.0-5.0-228.0","go-nogo","false","0","","true","<div class = centerbox><div  id = stim2></div></div>","32","32","750","","test","go","228","random","","",""
"","-1","-1","1283","0","test_block","poldrack-single-stim","243","345796","0.0-5.0-229.0","go-nogo","false","0","","true","<div class = centerbox><div  id = stim1></div></div>","-1","32","750","","test","nogo","229","random","","",""
"","-1","-1","1168","0","test_block","poldrack-single-stim","244","346985","0.0-5.0-230.0","go-nogo","false","0","","true","<div class = centerbox><div  id = stim1></div></div>","-1","32","750","","test","nogo","230","random","","",""
"","544","32","1121","0","test_block","poldrack-single-stim","245","348138","0.0-5.0-231.0","go-nogo","false","0","","true","<div class = centerbox><div  id = stim2></div></div>","32","32","750","","test","go","231","random","","",""
"","678","32","1130","0","test_block","poldrack-single-stim","246","349297","0.0-5.0-232.0","go-nogo","false","0","","true","<div class = centerbox><div  id = stim2></div></div>","32","32","750","","test","go","232","random","","",""
"","586","32","1431","0","test_block","poldrack-single-stim","247","350750","0.0-5.0-233.0","go-nogo","false","0","","true","<div class = centerbox><div  id = stim2></div></div>","32","32","750","","test","go","233","random","","",""
"","959","32","1022","0","test_block","poldrack-single-stim","248","351794","0.0-5.0-234.0","go-nogo","false","0","","true","<div class = centerbox><div  id = stim2></div></div>","32","32","750","","test","go","234","random","","",""
"","516","32","1389","0","test_block","poldrack-single-stim","249","353205","0.0-5.0-235.0","go-nogo","false","0","","true","<div class = centerbox><div  id = stim2></div></div>","32","32","750","","test","go","235","random","","",""
"","737","32","1212","0","test_block","poldrack-single-stim","250","354447","0.0-5.0-236.0","go-nogo","false","0","","true","<div class = centerbox><div  id = stim2></div></div>","32","32","750","","test","go","236","random","","",""
"","947","32","1022","0","test_block","poldrack-single-stim","251","355491","0.0-5.0-237.0","go-nogo","false","0","","true","<div class = centerbox><div  id = stim2></div></div>","32","32","750","","test","go","237","random","","",""
"","979","32","1313","0","test_block","poldrack-single-stim","252","356823","0.0-5.0-238.0","go-nogo","false","0","","true","<div class = centerbox><div  id = stim2></div></div>","32","32","750","","test","go","238","random","","",""
"","393","32","1099","0","test_block","poldrack-single-stim","253","357941","0.0-5.0-239.0","go-nogo","false","0","","true","<div class = centerbox><div  id = stim2></div></div>","32","32","750","","test","go","239","random","","",""
"","475","32","1074","0","test_block","poldrack-single-stim","254","359033","0.0-5.0-240.0","go-nogo","false","0","","true","<div class = centerbox><div  id = stim2></div></div>","32","32","750","","test","go","240","random","","",""
"","657","32","1029","0","test_block","poldrack-single-stim","255","361065","0.0-5.0-241.0","go-nogo","false","1","","true","<div class = centerbox><div  id = stim2></div></div>","32","32","750","","test","go","241","random","","",""
"","-1","-1","1206","0","test_block","poldrack-single-stim","256","363115","0.0-5.0-242.0","go-nogo","false","0","","false","<div class = centerbox><div  id = stim2></div></div>","32","32","750","","test","go","242","random","","",""
"","-1","-1","1425","0","test_block","poldrack-single-stim","257","365124","0.0-5.0-243.0","go-nogo","false","0","","false","<div class = centerbox><div  id = stim2></div></div>","32","32","750","","test","go","243","random","","",""
"","-1","-1","1377","0","test_block","poldrack-single-stim","258","367114","0.0-5.0-244.0","go-nogo","false","0","","false","<div class = centerbox><div  id = stim2></div></div>","32","32","750","","test","go","244","random","","",""
"","-1","-1","1431","0","test_block","poldrack-single-stim","259","369119","0.0-5.0-245.0","go-nogo","false","0","","false","<div class = centerbox><div  id = stim2></div></div>","32","32","750","","test","go","245","random","","",""
"","-1","-1","1280","0","test_block","poldrack-single-stim","260","370447","0.0-5.0-246.0","go-nogo","false","0","","false","<div class = centerbox><div  id = stim2></div></div>","32","32","750","","test","go","246","random","","",""
"","375","32","1405","0","test_block","poldrack-single-stim","261","371880","0.0-5.0-247.0","go-nogo","false","0","","true","<div class = centerbox><div  id = stim2></div></div>","32","32","750","","test","go","247","random","","",""
"","347","32","1442","0","test_block","poldrack-single-stim","262","373343","0.0-5.0-248.0","go-nogo","false","0","","true","<div class = centerbox><div  id = stim2></div></div>","32","32","750","","test","go","248","random","","",""
"","-1","-1","1231","0","test_block","poldrack-single-stim","263","374597","0.0-5.0-249.0","go-nogo","false","0","","true","<div class = centerbox><div  id = stim1></div></div>","-1","32","750","","test","nogo","249","random","","",""
"","388","32","1182","0","test_block","poldrack-single-stim","264","375799","0.0-5.0-250.0","go-nogo","false","0","","true","<div class = centerbox><div  id = stim2></div></div>","32","32","750","","test","go","250","random","","",""
"","552","32","1302","0","test_block","poldrack-single-stim","265","377124","0.0-5.0-251.0","go-nogo","false","0","","true","<div class = centerbox><div  id = stim2></div></div>","32","32","750","","test","go","251","random","","",""
"","654","32","1272","0","test_block","poldrack-single-stim","266","378417","0.0-5.0-252.0","go-nogo","false","0","","true","<div class = centerbox><div  id = stim2></div></div>","32","32","750","","test","go","252","random","","",""
"","405","32","1422","0","test_block","poldrack-single-stim","267","379866","0.0-5.0-253.0","go-nogo","false","0","","true","<div class = centerbox><div  id = stim2></div></div>","32","32","750","","test","go","253","random","","",""
"","337","32","1097","0","test_block","poldrack-single-stim","268","380982","0.0-5.0-254.0","go-nogo","false","0","","true","<div class = centerbox><div  id = stim2></div></div>","32","32","750","","test","go","254","random","","",""
"","366","32","1475","0","test_block","poldrack-single-stim","269","382491","0.0-5.0-255.0","go-nogo","false","0","","true","<div class = centerbox><div  id = stim2></div></div>","32","32","750","","test","go","255","random","","",""
"","296","32","1468","0","test_block","poldrack-single-stim","270","383985","0.0-5.0-256.0","go-nogo","false","0","","true","<div class = centerbox><div  id = stim2></div></div>","32","32","750","","test","go","256","random","","",""
"","287","32","1475","0","test_block","poldrack-single-stim","271","385479","0.0-5.0-257.0","go-nogo","false","0","","true","<div class = centerbox><div  id = stim2></div></div>","32","32","750","","test","go","257","random","","",""
"","327","32","1256","0","test_block","poldrack-single-stim","272","386754","0.0-5.0-258.0","go-nogo","false","0","","true","<div class = centerbox><div  id = stim2></div></div>","32","32","750","","test","go","258","random","","",""
"","303","32","1414","0","test_block","poldrack-single-stim","273","388188","0.0-5.0-259.0","go-nogo","false","0","","true","<div class = centerbox><div  id = stim2></div></div>","32","32","750","","test","go","259","random","","",""
"","272","32","1000","0","test_block","poldrack-single-stim","274","389212","0.0-5.0-260.0","go-nogo","false","0","","true","<div class = centerbox><div  id = stim2></div></div>","32","32","750","","test","go","260","random","","",""
"","325","32","1238","0","test_block","poldrack-single-stim","275","390474","0.0-5.0-261.0","go-nogo","false","0","","true","<div class = centerbox><div  id = stim2></div></div>","32","32","750","","test","go","261","random","","",""
"","1025","32","1276","0","test_block","poldrack-single-stim","276","391804","0.0-5.0-262.0","go-nogo","false","0","","true","<div class = centerbox><div  id = stim2></div></div>","32","32","750","","test","go","262","random","","",""
"","263","32","1045","0","test_block","poldrack-single-stim","277","392880","0.0-5.0-263.0","go-nogo","false","0","","true","<div class = centerbox><div  id = stim2></div></div>","32","32","750","","test","go","263","random","","",""
"","324","32","1067","0","test_block","poldrack-single-stim","278","393975","0.0-5.0-264.0","go-nogo","false","0","","true","<div class = centerbox><div  id = stim2></div></div>","32","32","750","","test","go","264","random","","",""
"","314","32","1045","0","test_block","poldrack-single-stim","279","395039","0.0-5.0-265.0","go-nogo","false","0","","true","<div class = centerbox><div  id = stim2></div></div>","32","32","750","","test","go","265","random","","",""
"","-1","-1","1292","0","test_block","poldrack-single-stim","280","396354","0.0-5.0-266.0","go-nogo","false","0","","true","<div class = centerbox><div  id = stim1></div></div>","-1","32","750","","test","nogo","266","random","","",""
"","326","32","1048","0","test_block","poldrack-single-stim","281","397421","0.0-5.0-267.0","go-nogo","false","0","","true","<div class = centerbox><div  id = stim2></div></div>","32","32","750","","test","go","267","random","","",""
"","311","32","1259","0","test_block","poldrack-single-stim","282","398703","0.0-5.0-268.0","go-nogo","false","0","","true","<div class = centerbox><div  id = stim2></div></div>","32","32","750","","test","go","268","random","","",""
"","289","32","1062","0","test_block","poldrack-single-stim","283","399787","0.0-5.0-269.0","go-nogo","false","0","","true","<div class = centerbox><div  id = stim2></div></div>","32","32","750","","test","go","269","random","","",""
"","274","32","1104","0","test_block","poldrack-single-stim","284","400914","0.0-5.0-270.0","go-nogo","false","0","","true","<div class = centerbox><div  id = stim2></div></div>","32","32","750","","test","go","270","random","","",""
"","387","32","1231","0","test_block","poldrack-single-stim","285","402166","0.0-5.0-271.0","go-nogo","false","0","","true","<div class = centerbox><div  id = stim2></div></div>","32","32","750","","test","go","271","random","","",""
"","343","32","1077","0","test_block","poldrack-single-stim","286","403265","0.0-5.0-272.0","go-nogo","false","0","","true","<div class = centerbox><div  id = stim2></div></div>","32","32","750","","test","go","272","random","","",""
"","315","32","1428","0","test_block","poldrack-single-stim","287","404713","0.0-5.0-273.0","go-nogo","false","0","","true","<div class = centerbox><div  id = stim2></div></div>","32","32","750","","test","go","273","random","","",""
"","303","32","1372","0","test_block","poldrack-single-stim","288","406107","0.0-5.0-274.0","go-nogo","false","0","","true","<div class = centerbox><div  id = stim2></div></div>","32","32","750","","test","go","274","random","","",""
"","343","32","1328","0","test_block","poldrack-single-stim","289","407503","0.0-5.0-275.0","go-nogo","false","0","","true","<div class = centerbox><div  id = stim2></div></div>","32","32","750","","test","go","275","random","","",""
"","359","32","1155","0","test_block","poldrack-single-stim","290","408679","0.0-5.0-276.0","go-nogo","false","0","","true","<div class = centerbox><div  id = stim2></div></div>","32","32","750","","test","go","276","random","","",""
"","378","32","1240","0","test_block","poldrack-single-stim","291","409940","0.0-5.0-277.0","go-nogo","false","0","","true","<div class = centerbox><div  id = stim2></div></div>","32","32","750","","test","go","277","random","","",""
"","318","32","1166","0","test_block","poldrack-single-stim","292","411124","0.0-5.0-278.0","go-nogo","false","0","","true","<div class = centerbox><div  id = stim2></div></div>","32","32","750","","test","go","278","random","","",""
"","943","32","1003","0","test_block","poldrack-single-stim","293","412188","0.0-5.0-279.0","go-nogo","false","0","","true","<div class = centerbox><div  id = stim2></div></div>","32","32","750","","test","go","279","random","","",""
"","-1","-1","1376","0","test_block","poldrack-single-stim","294","413586","0.0-5.0-280.0","go-nogo","false","0","","false","<div class = centerbox><div  id = stim2></div></div>","32","32","750","","test","go","280","random","","",""
"","441","32","1338","0","test_block","poldrack-single-stim","295","414942","0.0-5.0-281.0","go-nogo","false","0","","true","<div class = centerbox><div  id = stim2></div></div>","32","32","750","","test","go","281","random","","",""
"","433","32","1039","0","test_block","poldrack-single-stim","296","416015","0.0-5.0-282.0","go-nogo","false","0","","true","<div class = centerbox><div  id = stim2></div></div>","32","32","750","","test","go","282","random","","",""
"","964","32","1045","0","test_block","poldrack-single-stim","297","417079","0.0-5.0-283.0","go-nogo","false","0","","true","<div class = centerbox><div  id = stim2></div></div>","32","32","750","","test","go","283","random","","",""
"","825","32","1133","0","test_block","poldrack-single-stim","298","418232","0.0-5.0-284.0","go-nogo","false","0","","true","<div class = centerbox><div  id = stim2></div></div>","32","32","750","","test","go","284","random","","",""
"","-1","-1","1080","0","test_block","poldrack-single-stim","299","419332","0.0-5.0-285.0","go-nogo","false","0","","false","<div class = centerbox><div  id = stim2></div></div>","32","32","750","","test","go","285","random","","",""
"","640","32","1106","0","test_block","poldrack-single-stim","300","420462","0.0-5.0-286.0","go-nogo","false","0","","true","<div class = centerbox><div  id = stim2></div></div>","32","32","750","","test","go","286","random","","",""
"","534","32","1317","0","test_block","poldrack-single-stim","301","421820","0.0-5.0-287.0","go-nogo","false","0","","true","<div class = centerbox><div  id = stim2></div></div>","32","32","750","","test","go","287","random","","",""
"","393","32","1450","0","test_block","poldrack-single-stim","302","423291","0.0-5.0-288.0","go-nogo","false","0","","true","<div class = centerbox><div  id = stim2></div></div>","32","32","750","","test","go","288","random","","",""
"","428","32","1188","0","test_block","poldrack-single-stim","303","424503","0.0-5.0-289.0","go-nogo","false","0","","true","<div class = centerbox><div  id = stim2></div></div>","32","32","750","","test","go","289","random","","",""
"","214","32","1150","0","test_block","poldrack-single-stim","304","425671","0.0-5.0-290.0","go-nogo","false","0","","true","<div class = centerbox><div  id = stim2></div></div>","32","32","750","","test","go","290","random","","",""
"","470","32","1485","0","test_block","poldrack-single-stim","305","427174","0.0-5.0-291.0","go-nogo","false","0","","true","<div class = centerbox><div  id = stim2></div></div>","32","32","750","","test","go","291","random","","",""
"","478","32","1352","0","test_block","poldrack-single-stim","306","428544","0.0-5.0-292.0","go-nogo","false","0","","true","<div class = centerbox><div  id = stim2></div></div>","32","32","750","","test","go","292","random","","",""
"","297","32","1225","0","test_block","poldrack-single-stim","307","429790","0.0-5.0-293.0","go-nogo","false","0","","true","<div class = centerbox><div  id = stim2></div></div>","32","32","750","","test","go","293","random","","",""
"","269","32","1335","0","test_block","poldrack-single-stim","308","431148","0.0-5.0-294.0","go-nogo","false","0","","true","<div class = centerbox><div  id = stim2></div></div>","32","32","750","","test","go","294","random","","",""
"","772","32","1272","0","test_block","poldrack-single-stim","309","432456","0.0-5.0-295.0","go-nogo","false","0","","true","<div class = centerbox><div  id = stim2></div></div>","32","32","750","","test","go","295","random","","",""
"","330","32","1416","0","test_block","poldrack-single-stim","310","433894","0.0-5.0-296.0","go-nogo","false","0","","true","<div class = centerbox><div  id = stim2></div></div>","32","32","750","","test","go","296","random","","",""
"","325","32","1485","0","test_block","poldrack-single-stim","311","435397","0.0-5.0-297.0","go-nogo","false","0","","true","<div class = centerbox><div  id = stim2></div></div>","32","32","750","","test","go","297","random","","",""
"","350","32","1021","0","test_block","poldrack-single-stim","312","436438","0.0-5.0-298.0","go-nogo","false","0","","true","<div class = centerbox><div  id = stim2></div></div>","32","32","750","","test","go","298","random","","",""
"","321","32","1215","0","test_block","poldrack-single-stim","313","437681","0.0-5.0-299.0","go-nogo","false","0","","true","<div class = centerbox><div  id = stim2></div></div>","32","32","750","","test","go","299","random","","",""
"","294","32","1356","0","test_block","poldrack-single-stim","314","439057","0.0-5.0-300.0","go-nogo","false","0","","true","<div class = centerbox><div  id = stim2></div></div>","32","32","750","","test","go","300","random","","",""
"","292","32","1348","0","test_block","poldrack-single-stim","315","440426","0.0-5.0-301.0","go-nogo","false","0","","true","<div class = centerbox><div  id = stim2></div></div>","32","32","750","","test","go","301","random","","",""
"","308","32","1117","0","test_block","poldrack-single-stim","316","441562","0.0-5.0-302.0","go-nogo","false","0","","true","<div class = centerbox><div  id = stim2></div></div>","32","32","750","","test","go","302","random","","",""
"","-1","-1","1432","0","test_block","poldrack-single-stim","317","443014","0.0-5.0-303.0","go-nogo","false","0","","false","<div class = centerbox><div  id = stim2></div></div>","32","32","750","","test","go","303","random","","",""
"","310","32","1299","0","test_block","poldrack-single-stim","318","444333","0.0-5.0-304.0","go-nogo","false","0","","true","<div class = centerbox><div  id = stim2></div></div>","32","32","750","","test","go","304","random","","",""
"","301","32","1292","0","test_block","poldrack-single-stim","319","445646","0.0-5.0-305.0","go-nogo","false","0","","true","<div class = centerbox><div  id = stim2></div></div>","32","32","750","","test","go","305","random","","",""
"","293","32","1107","0","test_block","poldrack-single-stim","320","446773","0.0-5.0-306.0","go-nogo","false","0","","false","<div class = centerbox><div  id = stim1></div></div>","-1","32","750","","test","nogo","306","random","","",""
"","634","32","1005","0","test_block","poldrack-single-stim","321","447799","0.0-5.0-307.0","go-nogo","false","0","","true","<div class = centerbox><div  id = stim2></div></div>","32","32","750","","test","go","307","random","","",""
"","433","32","1305","0","test_block","poldrack-single-stim","322","449122","0.0-5.0-308.0","go-nogo","false","0","","true","<div class = centerbox><div  id = stim2></div></div>","32","32","750","","test","go","308","random","","",""
"","332","32","1173","0","test_block","poldrack-single-stim","323","450314","0.0-5.0-309.0","go-nogo","false","0","","true","<div class = centerbox><div  id = stim2></div></div>","32","32","750","","test","go","309","random","","",""
"","222","32","1355","0","test_block","poldrack-single-stim","324","451689","0.0-5.0-310.0","go-nogo","false","0","","false","<div class = centerbox><div  id = stim1></div></div>","-1","32","750","","test","nogo","310","random","","",""
"","354","32","1336","0","test_block","poldrack-single-stim","325","453046","0.0-5.0-311.0","go-nogo","false","0","","true","<div class = centerbox><div  id = stim2></div></div>","32","32","750","","test","go","311","random","","",""
"","190","32","1475","0","test_block","poldrack-single-stim","326","454541","0.0-5.0-312.0","go-nogo","false","0","","true","<div class = centerbox><div  id = stim2></div></div>","32","32","750","","test","go","312","random","","",""
"","304","32","1260","0","test_block","poldrack-single-stim","327","455821","0.0-5.0-313.0","go-nogo","false","0","","true","<div class = centerbox><div  id = stim2></div></div>","32","32","750","","test","go","313","random","","",""
"","315","32","1165","0","test_block","poldrack-single-stim","328","457009","0.0-5.0-314.0","go-nogo","false","0","","false","<div class = centerbox><div  id = stim1></div></div>","-1","32","750","","test","nogo","314","random","","",""
"","907","32","1451","0","test_block","poldrack-single-stim","329","458481","0.0-5.0-315.0","go-nogo","false","0","","true","<div class = centerbox><div  id = stim2></div></div>","32","32","750","","test","go","315","random","","",""
"","323","32","1284","0","test_block","poldrack-single-stim","330","459789","0.0-5.0-316.0","go-nogo","false","0","","true","<div class = centerbox><div  id = stim2></div></div>","32","32","750","","test","go","316","random","","",""
"","299","32","1144","0","test_block","poldrack-single-stim","331","460955","0.0-5.0-317.0","go-nogo","false","0","","true","<div class = centerbox><div  id = stim2></div></div>","32","32","750","","test","go","317","random","","",""
"","300","32","1034","0","test_block","poldrack-single-stim","332","462008","0.0-5.0-318.0","go-nogo","false","0","","true","<div class = centerbox><div  id = stim2></div></div>","32","32","750","","test","go","318","random","","",""
"","346","32","1031","0","test_block","poldrack-single-stim","333","463056","0.0-5.0-319.0","go-nogo","false","0","","true","<div class = centerbox><div  id = stim2></div></div>","32","32","750","","test","go","319","random","","",""
"","588","32","1069","0","test_block","poldrack-single-stim","334","464147","0.0-5.0-320.0","go-nogo","false","0","","false","<div class = centerbox><div  id = stim1></div></div>","-1","32","750","","test","nogo","320","random","","",""
"","400","32","1098","0","test_block","poldrack-single-stim","335","465272","0.0-5.0-321.0","go-nogo","false","0","","true","<div class = centerbox><div  id = stim2></div></div>","32","32","750","","test","go","321","random","","",""
"","325","32","1176","0","test_block","poldrack-single-stim","336","466468","0.0-5.0-322.0","go-nogo","false","0","","true","<div class = centerbox><div  id = stim2></div></div>","32","32","750","","test","go","322","random","","",""
"","546","32","1105","0","test_block","poldrack-single-stim","337","467592","0.0-5.0-323.0","go-nogo","false","0","","true","<div class = centerbox><div  id = stim2></div></div>","32","32","750","","test","go","323","random","","",""
"","393","32","1481","0","test_block","poldrack-single-stim","338","469093","0.0-5.0-324.0","go-nogo","false","0","","true","<div class = centerbox><div  id = stim2></div></div>","32","32","750","","test","go","324","random","","",""
"","379","32","1490","0","test_block","poldrack-single-stim","339","470603","0.0-5.0-325.0","go-nogo","false","0","","false","<div class = centerbox><div  id = stim1></div></div>","-1","32","750","","test","nogo","325","random","","",""
"","305","32","1161","0","test_block","poldrack-single-stim","340","471790","0.0-5.0-326.0","go-nogo","false","0","","false","<div class = centerbox><div  id = stim1></div></div>","-1","32","750","","test","nogo","326","random","","",""
"","407","32","1060","0","test_block","poldrack-single-stim","341","472869","0.0-5.0-327.0","go-nogo","false","0","","true","<div class = centerbox><div  id = stim2></div></div>","32","32","750","","test","go","327","random","","",""
"","311","32","1485","0","test_block","poldrack-single-stim","342","474376","0.0-5.0-328.0","go-nogo","false","0","","true","<div class = centerbox><div  id = stim2></div></div>","32","32","750","","test","go","328","random","","",""
"","304","32","1009","0","test_block","poldrack-single-stim","343","475406","0.0-5.0-329.0","go-nogo","false","0","","true","<div class = centerbox><div  id = stim2></div></div>","32","32","750","","test","go","329","random","","",""
"","368","32","1191","0","test_block","poldrack-single-stim","344","476617","0.0-5.0-330.0","go-nogo","false","0","","true","<div class = centerbox><div  id = stim2></div></div>","32","32","750","","test","go","330","random","","",""
"","314","32","1305","0","test_block","poldrack-single-stim","345","477975","0.0-5.0-331.0","go-nogo","false","0","","true","<div class = centerbox><div  id = stim2></div></div>","32","32","750","","test","go","331","random","","",""
"","337","32","1441","0","test_block","poldrack-single-stim","346","479435","0.0-5.0-332.0","go-nogo","false","0","","false","<div class = centerbox><div  id = stim1></div></div>","-1","32","750","","test","nogo","332","random","","",""
"","405","32","1163","0","test_block","poldrack-single-stim","347","480615","0.0-5.0-333.0","go-nogo","false","0","","true","<div class = centerbox><div  id = stim2></div></div>","32","32","750","","test","go","333","random","","",""
"","428","32","1090","0","test_block","poldrack-single-stim","348","481763","0.0-5.0-334.0","go-nogo","false","0","","true","<div class = centerbox><div  id = stim2></div></div>","32","32","750","","test","go","334","random","","",""
"","340","32","1222","0","test_block","poldrack-single-stim","349","483008","0.0-5.0-335.0","go-nogo","false","0","","true","<div class = centerbox><div  id = stim2></div></div>","32","32","750","","test","go","335","random","","",""
"","322","32","1235","0","test_block","poldrack-single-stim","350","484268","0.0-5.0-336.0","go-nogo","false","0","","true","<div class = centerbox><div  id = stim2></div></div>","32","32","750","","test","go","336","random","","",""
"","320","32","1303","0","test_block","poldrack-single-stim","351","485592","0.0-5.0-337.0","go-nogo","false","0","","true","<div class = centerbox><div  id = stim2></div></div>","32","32","750","","test","go","337","random","","",""
"","64","32","1131","0","test_block","poldrack-single-stim","352","486742","0.0-5.0-338.0","go-nogo","false","0","","true","<div class = centerbox><div  id = stim2></div></div>","32","32","750","","test","go","338","random","","",""
"","878","32","1092","0","test_block","poldrack-single-stim","353","487858","0.0-5.0-339.0","go-nogo","false","0","","true","<div class = centerbox><div  id = stim2></div></div>","32","32","750","","test","go","339","random","","",""
"","1082","32","1215","0","test_block","poldrack-single-stim","354","489095","0.0-5.0-340.0","go-nogo","false","0","","true","<div class = centerbox><div  id = stim2></div></div>","32","32","750","","test","go","340","random","","",""
"","389","32","1422","0","test_block","poldrack-single-stim","355","490537","0.0-5.0-341.0","go-nogo","false","0","","true","<div class = centerbox><div  id = stim2></div></div>","32","32","750","","test","go","341","random","","",""
"","134","32","1433","0","test_block","poldrack-single-stim","356","491988","0.0-5.0-342.0","go-nogo","false","0","","true","<div class = centerbox><div  id = stim2></div></div>","32","32","750","","test","go","342","random","","",""
"","608","32","1115","0","test_block","poldrack-single-stim","357","493120","0.0-5.0-343.0","go-nogo","false","0","","true","<div class = centerbox><div  id = stim2></div></div>","32","32","750","","test","go","343","random","","",""
"","398","32","1062","0","test_block","poldrack-single-stim","358","494236","0.0-5.0-344.0","go-nogo","false","0","","true","<div class = centerbox><div  id = stim2></div></div>","32","32","750","","test","go","344","random","","",""
"","-1","-1","1164","0","test_block","poldrack-single-stim","359","495871","0.0-5.0-345.0","go-nogo","false","1","","false","<div class = centerbox><div  id = stim2></div></div>","32","32","750","","test","go","345","random","","",""
"","378","32","1261","0","test_block","poldrack-single-stim","360","497186","0.0-5.0-346.0","go-nogo","false","0","","true","<div class = centerbox><div  id = stim2></div></div>","32","32","750","","test","go","346","random","","",""
"","288","32","1297","0","test_block","poldrack-single-stim","361","498504","0.0-5.0-347.0","go-nogo","false","0","","true","<div class = centerbox><div  id = stim2></div></div>","32","32","750","","test","go","347","random","","",""
"","136","32","1055","0","test_block","poldrack-single-stim","362","499577","0.0-5.0-348.0","go-nogo","false","0","","true","<div class = centerbox><div  id = stim2></div></div>","32","32","750","","test","go","348","random","","",""
"","136","32","1167","0","test_block","poldrack-single-stim","363","500766","0.0-5.0-349.0","go-nogo","false","0","","true","<div class = centerbox><div  id = stim2></div></div>","32","32","750","","test","go","349","random","","",""
"","20642","","","","post task questions","survey-text","364","521430","0.0-7.0","go-nogo","false","0","","","","","","","","","","","","{""Q0"":""Press the spacebar for blue squares. Do not respond to orange squares."",""Q1"":""No.""}","",""
"<div class = centerbox><p class = center-block-text>Thanks for completing this task!</p><p class = center-block-text>Insert the following code to collect your payment at Amazon Mechanical Turk:</p><p class = center-block-text>568092317</p><p class = center-block-text>Press <strong>enter</strong> to continue.</p></div>","3181","13","3181","0","end","poldrack-text","365","525613","0.0-8.0","go-nogo","false","0","","","","","","","","","","","","","568092317","true"
