"text","rt","key_press","block_duration","timing_post_trial","trial_id","trial_type","trial_index","time_elapsed","internal_node_id","exp_id","full_screen","focus_shifts","view_history","correct","stimulus","correct_response","possible_responses","stim_duration","feedback_duration","exp_stage","condition","trial_num","mode","responses","payment_id","credit_var"
"<div class = centerbox><p class = center-block-text>Welcome to the experiment. This task will take around 10 minutes. Press <strong>enter</strong> to begin.</p></div>","7604","13","7604","0","instruction","poldrack-text","0","7608","0.0-0.0-0.0","go-nogo","true","1","","","","","","","","","","","","","",""
"","30489","","","","instruction","poldrack-instructions","1","38099","0.0-0.0-1.0","go-nogo","false","1","[{""page_index"":0,""viewing_time"":30487}]","","","","","","","","","","","","",""
"","-1","-1","1098","250","practice","poldrack-categorize","2","41217","0.0-1.0-0.0","go-nogo","false","0","","true","<div class = centerbox><div id = stim1></div></div>","-1","32","750","1000","practice","nogo","0","random","","",""
"","427","32","1258","250","practice","poldrack-categorize","3","43732","0.0-1.0-1.0","go-nogo","false","0","","true","<div class = centerbox><div  id = stim2></div></div>","32","32","750","1000","practice","go","1","random","","",""
"","-1","-1","1026","250","practice","poldrack-categorize","4","46019","0.0-1.0-2.0","go-nogo","false","0","","true","<div class = centerbox><div id = stim1></div></div>","-1","32","750","1000","practice","nogo","2","random","","",""
"","-1","-1","1083","250","practice","poldrack-categorize","5","48362","0.0-1.0-3.0","go-nogo","false","0","","true","<div class = centerbox><div id = stim1></div></div>","-1","32","750","1000","practice","nogo","3","random","","",""
"","467","32","1302","250","practice","poldrack-categorize","6","50922","0.0-1.0-4.0","go-nogo","false","0","","true","<div class = centerbox><div  id = stim2></div></div>","32","32","750","1000","practice","go","4","random","","",""
"","418","32","1158","250","practice","poldrack-categorize","7","53338","0.0-1.0-5.0","go-nogo","false","0","","true","<div class = centerbox><div  id = stim2></div></div>","32","32","750","1000","practice","go","5","random","","",""
"","-1","-1","1454","250","practice","poldrack-categorize","8","56053","0.0-1.0-6.0","go-nogo","false","0","","true","<div class = centerbox><div id = stim1></div></div>","-1","32","750","1000","practice","nogo","6","random","","",""
"","478","32","1495","250","practice","poldrack-categorize","9","58805","0.0-1.0-7.0","go-nogo","false","0","","true","<div class = centerbox><div  id = stim2></div></div>","32","32","750","1000","practice","go","7","random","","",""
"","-1","-1","1367","250","practice","poldrack-categorize","10","61430","0.0-1.0-8.0","go-nogo","false","0","","true","<div class = centerbox><div id = stim1></div></div>","-1","32","750","1000","practice","nogo","8","random","","",""
"","382","32","1384","250","practice","poldrack-categorize","11","64071","0.0-1.0-9.0","go-nogo","false","0","","true","<div class = centerbox><div  id = stim2></div></div>","32","32","750","1000","practice","go","9","random","","",""
"","","","","","reset_trial","call-function","12","64323","0.0-3.0","go-nogo","false","0","","","","","","","","","","","","","",""
"<div class = centerbox><p class = block-text>Practice is over, we will now begin the experiment. You will no longer get feedback about your responses.</p><p class = block-text>Remember, if you see the <font color=""blue"">blue</font> square you should <strong> respond by pressing the spacebar as quickly as possible</strong>. If you see the <font color=""orange"">orange</font> square you should <strong> not respond</strong>. Press <strong>enter</strong> to begin.</p></div>","7790","13","7790","1000","test_intro","poldrack-text","13","72114","0.0-4.0","go-nogo","false","0","","","","","","","","","","","","","",""
"","-1","-1","1435","0","test_block","poldrack-single-stim","14","74556","0.0-5.0-0.0","go-nogo","false","0","","true","<div class = centerbox><div  id = stim1></div></div>","-1","32","750","","test","nogo","0","random","","",""
"","-1","-1","1052","0","test_block","poldrack-single-stim","15","75802","0.0-5.0-1.0","go-nogo","false","0","","true","<div class = centerbox><div  id = stim1></div></div>","-1","32","750","","test","nogo","1","random","","",""
"","414","32","1126","0","test_block","poldrack-single-stim","16","77034","0.0-5.0-2.0","go-nogo","false","0","","true","<div class = centerbox><div  id = stim2></div></div>","32","32","750","","test","go","2","random","","",""
"","373","32","1078","0","test_block","poldrack-single-stim","17","78203","0.0-5.0-3.0","go-nogo","false","0","","true","<div class = centerbox><div  id = stim2></div></div>","32","32","750","","test","go","3","random","","",""
"","366","32","1292","0","test_block","poldrack-single-stim","18","79600","0.0-5.0-4.0","go-nogo","false","0","","true","<div class = centerbox><div  id = stim2></div></div>","32","32","750","","test","go","4","random","","",""
"","350","32","1178","0","test_block","poldrack-single-stim","19","80898","0.0-5.0-5.0","go-nogo","false","0","","true","<div class = centerbox><div  id = stim2></div></div>","32","32","750","","test","go","5","random","","",""
"","325","32","1057","0","test_block","poldrack-single-stim","20","82053","0.0-5.0-6.0","go-nogo","false","0","","true","<div class = centerbox><div  id = stim2></div></div>","32","32","750","","test","go","6","random","","",""
"","340","32","1219","0","test_block","poldrack-single-stim","21","83399","0.0-5.0-7.0","go-nogo","false","0","","true","<div class = centerbox><div  id = stim2></div></div>","32","32","750","","test","go","7","random","","",""
"","353","32","1006","0","test_block","poldrack-single-stim","22","84488","0.0-5.0-8.0","go-nogo","false","0","","true","<div class = centerbox><div  id = stim2></div></div>","32","32","750","","test","go","8","random","","",""
"","427","32","1054","0","test_block","poldrack-single-stim","23","85630","0.0-5.0-9.0","go-nogo","false","0","","true","<div class = centerbox><div  id = stim2></div></div>","32","32","750","","test","go","9","random","","",""
"","406","32","1149","0","test_block","poldrack-single-stim","24","86905","0.0-5.0-10.0","go-nogo","false","0","","true","<div class = centerbox><div  id = stim2></div></div>","32","32","750","","test","go","10","random","","",""
"","401","32","1427","0","test_block","poldrack-single-stim","25","88427","0.0-5.0-11.0","go-nogo","false","0","","true","<div class = centerbox><div  id = stim2></div></div>","32","32","750","","test","go","11","random","","",""
"","429","32","1459","0","test_block","poldrack-single-stim","26","90000","0.0-5.0-12.0","go-nogo","false","0","","true","<div class = centerbox><div  id = stim2></div></div>","32","32","750","","test","go","12","random","","",""
"","385","32","1097","0","test_block","poldrack-single-stim","27","91220","0.0-5.0-13.0","go-nogo","false","0","","true","<div class = centerbox><div  id = stim2></div></div>","32","32","750","","test","go","13","random","","",""
"","-1","-1","1051","0","test_block","poldrack-single-stim","28","92392","0.0-5.0-14.0","go-nogo","false","0","","true","<div class = centerbox><div  id = stim1></div></div>","-1","32","750","","test","nogo","14","random","","",""
"","359","32","1030","0","test_block","poldrack-single-stim","29","93540","0.0-5.0-15.0","go-nogo","false","0","","true","<div class = centerbox><div  id = stim2></div></div>","32","32","750","","test","go","15","random","","",""
"","455","32","1394","0","test_block","poldrack-single-stim","30","95053","0.0-5.0-16.0","go-nogo","false","0","","true","<div class = centerbox><div  id = stim2></div></div>","32","32","750","","test","go","16","random","","",""
"","384","32","1016","0","test_block","poldrack-single-stim","31","96161","0.0-5.0-17.0","go-nogo","false","0","","true","<div class = centerbox><div  id = stim2></div></div>","32","32","750","","test","go","17","random","","",""
"","455","32","1077","0","test_block","poldrack-single-stim","32","97324","0.0-5.0-18.0","go-nogo","false","0","","true","<div class = centerbox><div  id = stim2></div></div>","32","32","750","","test","go","18","random","","",""
"","444","32","1350","0","test_block","poldrack-single-stim","33","98774","0.0-5.0-19.0","go-nogo","false","0","","true","<div class = centerbox><div  id = stim2></div></div>","32","32","750","","test","go","19","random","","",""
"","454","32","1492","0","test_block","poldrack-single-stim","34","100418","0.0-5.0-20.0","go-nogo","false","0","","true","<div class = centerbox><div  id = stim2></div></div>","32","32","750","","test","go","20","random","","",""
"","463","32","1251","0","test_block","poldrack-single-stim","35","101792","0.0-5.0-21.0","go-nogo","false","0","","true","<div class = centerbox><div  id = stim2></div></div>","32","32","750","","test","go","21","random","","",""
"","496","32","1474","0","test_block","poldrack-single-stim","36","103356","0.0-5.0-22.0","go-nogo","false","0","","true","<div class = centerbox><div  id = stim2></div></div>","32","32","750","","test","go","22","random","","",""
"","538","32","1333","0","test_block","poldrack-single-stim","37","104834","0.0-5.0-23.0","go-nogo","false","0","","true","<div class = centerbox><div  id = stim2></div></div>","32","32","750","","test","go","23","random","","",""
"","481","32","1494","0","test_block","poldrack-single-stim","38","106455","0.0-5.0-24.0","go-nogo","false","0","","true","<div class = centerbox><div  id = stim2></div></div>","32","32","750","","test","go","24","random","","",""
"","502","32","1148","0","test_block","poldrack-single-stim","39","107707","0.0-5.0-25.0","go-nogo","false","0","","true","<div class = centerbox><div  id = stim2></div></div>","32","32","750","","test","go","25","random","","",""
"","490","32","1440","0","test_block","poldrack-single-stim","40","109272","0.0-5.0-26.0","go-nogo","false","0","","true","<div class = centerbox><div  id = stim2></div></div>","32","32","750","","test","go","26","random","","",""
"","466","32","1167","0","test_block","poldrack-single-stim","41","110568","0.0-5.0-27.0","go-nogo","false","0","","true","<div class = centerbox><div  id = stim2></div></div>","32","32","750","","test","go","27","random","","",""
"","445","32","1221","0","test_block","poldrack-single-stim","42","111875","0.0-5.0-28.0","go-nogo","false","0","","true","<div class = centerbox><div  id = stim2></div></div>","32","32","750","","test","go","28","random","","",""
"","504","32","1230","0","test_block","poldrack-single-stim","43","113206","0.0-5.0-29.0","go-nogo","false","0","","true","<div class = centerbox><div  id = stim2></div></div>","32","32","750","","test","go","29","random","","",""
"","-1","-1","1274","0","test_block","poldrack-single-stim","44","114602","0.0-5.0-30.0","go-nogo","false","0","","true","<div class = centerbox><div  id = stim1></div></div>","-1","32","750","","test","nogo","30","random","","",""
"","359","32","1491","0","test_block","poldrack-single-stim","45","116191","0.0-5.0-31.0","go-nogo","false","0","","true","<div class = centerbox><div  id = stim2></div></div>","32","32","750","","test","go","31","random","","",""
"","378","32","1061","0","test_block","poldrack-single-stim","46","117326","0.0-5.0-32.0","go-nogo","false","0","","true","<div class = centerbox><div  id = stim2></div></div>","32","32","750","","test","go","32","random","","",""
"","486","32","1129","0","test_block","poldrack-single-stim","47","118573","0.0-5.0-33.0","go-nogo","false","0","","true","<div class = centerbox><div  id = stim2></div></div>","32","32","750","","test","go","33","random","","",""
"","547","32","1313","0","test_block","poldrack-single-stim","48","119977","0.0-5.0-34.0","go-nogo","false","0","","true","<div class = centerbox><div  id = stim2></div></div>","32","32","750","","test","go","34","random","","",""
"","512","32","1035","0","test_block","poldrack-single-stim","49","121125","0.0-5.0-35.0","go-nogo","false","0","","true","<div class = centerbox><div  id = stim2></div></div>","32","32","750","","test","go","35","random","","",""
"","-1","-1","1015","0","test_block","poldrack-single-stim","50","122259","0.0-5.0-36.0","go-nogo","false","0","","true","<div class = centerbox><div  id = stim1></div></div>","-1","32","750","","test","nogo","36","random","","",""
"","463","32","1229","0","test_block","poldrack-single-stim","51","123577","0.0-5.0-37.0","go-nogo","false","0","","true","<div class = centerbox><div  id = stim2></div></div>","32","32","750","","test","go","37","random","","",""
"","381","32","1483","0","test_block","poldrack-single-stim","52","125176","0.0-5.0-38.0","go-nogo","false","0","","true","<div class = centerbox><div  id = stim2></div></div>","32","32","750","","test","go","38","random","","",""
"","497","32","1110","0","test_block","poldrack-single-stim","53","126370","0.0-5.0-39.0","go-nogo","false","0","","true","<div class = centerbox><div  id = stim2></div></div>","32","32","750","","test","go","39","random","","",""
"","510","32","1200","0","test_block","poldrack-single-stim","54","127725","0.0-5.0-40.0","go-nogo","false","0","","true","<div class = centerbox><div  id = stim2></div></div>","32","32","750","","test","go","40","random","","",""
"","541","32","1433","0","test_block","poldrack-single-stim","55","129240","0.0-5.0-41.0","go-nogo","false","0","","true","<div class = centerbox><div  id = stim2></div></div>","32","32","750","","test","go","41","random","","",""
"","471","32","1465","0","test_block","poldrack-single-stim","56","130772","0.0-5.0-42.0","go-nogo","false","0","","true","<div class = centerbox><div  id = stim2></div></div>","32","32","750","","test","go","42","random","","",""
"","464","32","1332","0","test_block","poldrack-single-stim","57","132184","0.0-5.0-43.0","go-nogo","false","0","","true","<div class = centerbox><div  id = stim2></div></div>","32","32","750","","test","go","43","random","","",""
"","421","32","1057","0","test_block","poldrack-single-stim","58","133328","0.0-5.0-44.0","go-nogo","false","0","","true","<div class = centerbox><div  id = stim2></div></div>","32","32","750","","test","go","44","random","","",""
"","-1","-1","1007","0","test_block","poldrack-single-stim","59","134415","0.0-5.0-45.0","go-nogo","false","0","","true","<div class = centerbox><div  id = stim1></div></div>","-1","32","750","","test","nogo","45","random","","",""
"","470","32","1082","0","test_block","poldrack-single-stim","60","135590","0.0-5.0-46.0","go-nogo","false","0","","true","<div class = centerbox><div  id = stim2></div></div>","32","32","750","","test","go","46","random","","",""
"","470","32","1108","0","test_block","poldrack-single-stim","61","136816","0.0-5.0-47.0","go-nogo","false","0","","true","<div class = centerbox><div  id = stim2></div></div>","32","32","750","","test","go","47","random","","",""
"","-1","-1","1120","0","test_block","poldrack-single-stim","62","138104","0.0-5.0-48.0","go-nogo","false","0","","true","<div class = centerbox><div  id = stim1></div></div>","-1","32","750","","test","nogo","48","random","","",""
"","396","32","1471","0","test_block","poldrack-single-stim","63","139734","0.0-5.0-49.0","go-nogo","false","0","","true","<div class = centerbox><div  id = stim2></div></div>","32","32","750","","test","go","49","random","","",""
"","314","32","1142","0","test_block","poldrack-single-stim","64","141023","0.0-5.0-50.0","go-nogo","false","0","","true","<div class = centerbox><div  id = stim2></div></div>","32","32","750","","test","go","50","random","","",""
"","468","32","1271","0","test_block","poldrack-single-stim","65","142381","0.0-5.0-51.0","go-nogo","false","0","","true","<div class = centerbox><div  id = stim2></div></div>","32","32","750","","test","go","51","random","","",""
"","541","32","1266","0","test_block","poldrack-single-stim","66","143738","0.0-5.0-52.0","go-nogo","false","0","","true","<div class = centerbox><div  id = stim2></div></div>","32","32","750","","test","go","52","random","","",""
"","565","32","1205","0","test_block","poldrack-single-stim","67","145044","0.0-5.0-53.0","go-nogo","false","0","","true","<div class = centerbox><div  id = stim2></div></div>","32","32","750","","test","go","53","random","","",""
"","-1","-1","1282","0","test_block","poldrack-single-stim","68","146414","0.0-5.0-54.0","go-nogo","false","0","","true","<div class = centerbox><div  id = stim1></div></div>","-1","32","750","","test","nogo","54","random","","",""
"","456","32","1494","0","test_block","poldrack-single-stim","69","148025","0.0-5.0-55.0","go-nogo","false","0","","true","<div class = centerbox><div  id = stim2></div></div>","32","32","750","","test","go","55","random","","",""
"","479","32","1364","0","test_block","poldrack-single-stim","70","149465","0.0-5.0-56.0","go-nogo","false","0","","true","<div class = centerbox><div  id = stim2></div></div>","32","32","750","","test","go","56","random","","",""
"","499","32","1086","0","test_block","poldrack-single-stim","71","150623","0.0-5.0-57.0","go-nogo","false","0","","true","<div class = centerbox><div  id = stim2></div></div>","32","32","750","","test","go","57","random","","",""
"","588","32","1109","0","test_block","poldrack-single-stim","72","151845","0.0-5.0-58.0","go-nogo","false","0","","true","<div class = centerbox><div  id = stim2></div></div>","32","32","750","","test","go","58","random","","",""
"","740","32","1039","0","test_block","poldrack-single-stim","73","152992","0.0-5.0-59.0","go-nogo","false","0","","true","<div class = centerbox><div  id = stim2></div></div>","32","32","750","","test","go","59","random","","",""
"","855","32","1317","0","test_block","poldrack-single-stim","74","154401","0.0-5.0-60.0","go-nogo","false","0","","true","<div class = centerbox><div  id = stim2></div></div>","32","32","750","","test","go","60","random","","",""
"","466","32","1009","0","test_block","poldrack-single-stim","75","155540","0.0-5.0-61.0","go-nogo","false","0","","true","<div class = centerbox><div  id = stim2></div></div>","32","32","750","","test","go","61","random","","",""
"","305","32","1163","0","test_block","poldrack-single-stim","76","156804","0.0-5.0-62.0","go-nogo","false","0","","true","<div class = centerbox><div  id = stim2></div></div>","32","32","750","","test","go","62","random","","",""
"","357","32","1070","0","test_block","poldrack-single-stim","77","157941","0.0-5.0-63.0","go-nogo","false","0","","true","<div class = centerbox><div  id = stim2></div></div>","32","32","750","","test","go","63","random","","",""
"","367","32","1490","0","test_block","poldrack-single-stim","78","159494","0.0-5.0-64.0","go-nogo","false","0","","true","<div class = centerbox><div  id = stim2></div></div>","32","32","750","","test","go","64","random","","",""
"","391","32","1492","0","test_block","poldrack-single-stim","79","161080","0.0-5.0-65.0","go-nogo","false","0","","true","<div class = centerbox><div  id = stim2></div></div>","32","32","750","","test","go","65","random","","",""
"","405","32","1051","0","test_block","poldrack-single-stim","80","162201","0.0-5.0-66.0","go-nogo","false","0","","true","<div class = centerbox><div  id = stim2></div></div>","32","32","750","","test","go","66","random","","",""
"","445","32","1031","0","test_block","poldrack-single-stim","81","163319","0.0-5.0-67.0","go-nogo","false","0","","true","<div class = centerbox><div  id = stim2></div></div>","32","32","750","","test","go","67","random","","",""
"","395","32","1137","0","test_block","poldrack-single-stim","82","164520","0.0-5.0-68.0","go-nogo","false","0","","true","<div class = centerbox><div  id = stim2></div></div>","32","32","750","","test","go","68","random","","",""
"","329","32","1185","0","test_block","poldrack-single-stim","83","165796","0.0-5.0-69.0","go-nogo","false","0","","true","<div class = centerbox><div  id = stim2></div></div>","32","32","750","","test","go","69","random","","",""
"","-1","-1","1412","0","test_block","poldrack-single-stim","84","167302","0.0-5.0-70.0","go-nogo","false","0","","true","<div class = centerbox><div  id = stim1></div></div>","-1","32","750","","test","nogo","70","random","","",""
"","498","32","1461","0","test_block","poldrack-single-stim","85","168825","0.0-5.0-71.0","go-nogo","false","0","","true","<div class = centerbox><div  id = stim2></div></div>","32","32","750","","test","go","71","random","","",""
"","338","32","1406","0","test_block","poldrack-single-stim","86","170297","0.0-5.0-72.0","go-nogo","false","0","","true","<div class = centerbox><div  id = stim2></div></div>","32","32","750","","test","go","72","random","","",""
"","-1","-1","1453","0","test_block","poldrack-single-stim","87","171838","0.0-5.0-73.0","go-nogo","false","0","","false","<div class = centerbox><div  id = stim2></div></div>","32","32","750","","test","go","73","random","","",""
"","158","32","1243","0","test_block","poldrack-single-stim","88","173147","0.0-5.0-74.0","go-nogo","false","0","","true","<div class = centerbox><div  id = stim2></div></div>","32","32","750","","test","go","74","random","","",""
"","414","32","1310","0","test_block","poldrack-single-stim","89","174514","0.0-5.0-75.0","go-nogo","false","0","","true","<div class = centerbox><div  id = stim2></div></div>","32","32","750","","test","go","75","random","","",""
"","458","32","1022","0","test_block","poldrack-single-stim","90","175642","0.0-5.0-76.0","go-nogo","false","0","","true","<div class = centerbox><div  id = stim2></div></div>","32","32","750","","test","go","76","random","","",""
"","607","32","1268","0","test_block","poldrack-single-stim","91","176969","0.0-5.0-77.0","go-nogo","false","0","","true","<div class = centerbox><div  id = stim2></div></div>","32","32","750","","test","go","77","random","","",""
"","-1","-1","1116","0","test_block","poldrack-single-stim","92","178166","0.0-5.0-78.0","go-nogo","false","0","","true","<div class = centerbox><div  id = stim1></div></div>","-1","32","750","","test","nogo","78","random","","",""
"","402","32","1246","0","test_block","poldrack-single-stim","93","179634","0.0-5.0-79.0","go-nogo","false","0","","true","<div class = centerbox><div  id = stim2></div></div>","32","32","750","","test","go","79","random","","",""
"","1221","32","1421","0","test_block","poldrack-single-stim","94","181136","0.0-5.0-80.0","go-nogo","false","0","","true","<div class = centerbox><div  id = stim2></div></div>","32","32","750","","test","go","80","random","","",""
"","391","32","1470","0","test_block","poldrack-single-stim","95","182737","0.0-5.0-81.0","go-nogo","false","0","","true","<div class = centerbox><div  id = stim2></div></div>","32","32","750","","test","go","81","random","","",""
"","361","32","1277","0","test_block","poldrack-single-stim","96","184153","0.0-5.0-82.0","go-nogo","false","0","","true","<div class = centerbox><div  id = stim2></div></div>","32","32","750","","test","go","82","random","","",""
"","424","32","1496","0","test_block","poldrack-single-stim","97","185763","0.0-5.0-83.0","go-nogo","false","0","","true","<div class = centerbox><div  id = stim2></div></div>","32","32","750","","test","go","83","random","","",""
"","679","32","1148","0","test_block","poldrack-single-stim","98","187609","0.0-5.0-84.0","go-nogo","false","0","","true","<div class = centerbox><div  id = stim2></div></div>","32","32","750","","test","go","84","random","","",""
"","424","32","1394","0","test_block","poldrack-single-stim","99","189405","0.0-5.0-85.0","go-nogo","false","0","","true","<div class = centerbox><div  id = stim2></div></div>","32","32","750","","test","go","85","random","","",""
"","328","32","1412","0","test_block","poldrack-single-stim","100","191196","0.0-5.0-86.0","go-nogo","false","0","","true","<div class = centerbox><div  id = stim2></div></div>","32","32","750","","test","go","86","random","","",""
"","-1","-1","1317","0","test_block","poldrack-single-stim","101","193766","0.0-5.0-87.0","go-nogo","false","0","","false","<div class = centerbox><div  id = stim2></div></div>","32","32","750","","test","go","87","random","","",""
"","-1","-1","1049","0","test_block","poldrack-single-stim","102","194903","0.0-5.0-88.0","go-nogo","false","0","","false","<div class = centerbox><div  id = stim2></div></div>","32","32","750","","test","go","88","random","","",""
"","-1","-1","1396","0","test_block","poldrack-single-stim","103","196465","0.0-5.0-89.0","go-nogo","false","0","","true","<div class = centerbox><div  id = stim1></div></div>","-1","32","750","","test","nogo","89","random","","",""
"","265","32","1359","0","test_block","poldrack-single-stim","104","198435","0.0-5.0-90.0","go-nogo","false","0","","true","<div class = centerbox><div  id = stim2></div></div>","32","32","750","","test","go","90","random","","",""
"","1","32","1292","0","test_block","poldrack-single-stim","105","199869","0.0-5.0-91.0","go-nogo","false","0","","true","<div class = centerbox><div  id = stim2></div></div>","32","32","750","","test","go","91","random","","",""
"","355","32","1457","0","test_block","poldrack-single-stim","106","201551","0.0-5.0-92.0","go-nogo","false","0","","true","<div class = centerbox><div  id = stim2></div></div>","32","32","750","","test","go","92","random","","",""
"","386","32","1275","0","test_block","poldrack-single-stim","107","203196","0.0-5.0-93.0","go-nogo","false","0","","true","<div class = centerbox><div  id = stim2></div></div>","32","32","750","","test","go","93","random","","",""
"","631","32","1354","0","test_block","poldrack-single-stim","108","204818","0.0-5.0-94.0","go-nogo","false","0","","true","<div class = centerbox><div  id = stim2></div></div>","32","32","750","","test","go","94","random","","",""
"","798","32","1478","0","test_block","poldrack-single-stim","109","206950","0.0-5.0-95.0","go-nogo","false","0","","true","<div class = centerbox><div  id = stim2></div></div>","32","32","750","","test","go","95","random","","",""
"","834","32","1150","0","test_block","poldrack-single-stim","110","208950","0.0-5.0-96.0","go-nogo","false","0","","true","<div class = centerbox><div  id = stim2></div></div>","32","32","750","","test","go","96","random","","",""
"","458","32","1309","0","test_block","poldrack-single-stim","111","210398","0.0-5.0-97.0","go-nogo","false","0","","true","<div class = centerbox><div  id = stim2></div></div>","32","32","750","","test","go","97","random","","",""
"","345","32","1361","0","test_block","poldrack-single-stim","112","211965","0.0-5.0-98.0","go-nogo","false","0","","true","<div class = centerbox><div  id = stim2></div></div>","32","32","750","","test","go","98","random","","",""
"","347","32","1367","0","test_block","poldrack-single-stim","113","213485","0.0-5.0-99.0","go-nogo","false","0","","true","<div class = centerbox><div  id = stim2></div></div>","32","32","750","","test","go","99","random","","",""
"","394","32","1097","0","test_block","poldrack-single-stim","114","214657","0.0-5.0-100.0","go-nogo","false","0","","true","<div class = centerbox><div  id = stim2></div></div>","32","32","750","","test","go","100","random","","",""
"","453","32","1281","0","test_block","poldrack-single-stim","115","216016","0.0-5.0-101.0","go-nogo","false","0","","true","<div class = centerbox><div  id = stim2></div></div>","32","32","750","","test","go","101","random","","",""
"","420","32","1064","0","test_block","poldrack-single-stim","116","217343","0.0-5.0-102.0","go-nogo","false","0","","true","<div class = centerbox><div  id = stim2></div></div>","32","32","750","","test","go","102","random","","",""
"","501","32","1291","0","test_block","poldrack-single-stim","117","218784","0.0-5.0-103.0","go-nogo","false","0","","true","<div class = centerbox><div  id = stim2></div></div>","32","32","750","","test","go","103","random","","",""
"","431","32","1035","0","test_block","poldrack-single-stim","118","219926","0.0-5.0-104.0","go-nogo","false","0","","true","<div class = centerbox><div  id = stim2></div></div>","32","32","750","","test","go","104","random","","",""
"","444","32","1318","0","test_block","poldrack-single-stim","119","221324","0.0-5.0-105.0","go-nogo","false","0","","true","<div class = centerbox><div  id = stim2></div></div>","32","32","750","","test","go","105","random","","",""
"","451","32","1370","0","test_block","poldrack-single-stim","120","222775","0.0-5.0-106.0","go-nogo","false","0","","true","<div class = centerbox><div  id = stim2></div></div>","32","32","750","","test","go","106","random","","",""
"","398","32","1257","0","test_block","poldrack-single-stim","121","224110","0.0-5.0-107.0","go-nogo","false","0","","true","<div class = centerbox><div  id = stim2></div></div>","32","32","750","","test","go","107","random","","",""
"","-1","-1","1078","0","test_block","poldrack-single-stim","122","225416","0.0-5.0-108.0","go-nogo","false","0","","true","<div class = centerbox><div  id = stim1></div></div>","-1","32","750","","test","nogo","108","random","","",""
"","360","32","1056","0","test_block","poldrack-single-stim","123","226538","0.0-5.0-109.0","go-nogo","false","0","","true","<div class = centerbox><div  id = stim2></div></div>","32","32","750","","test","go","109","random","","",""
"","332","32","1171","0","test_block","poldrack-single-stim","124","227772","0.0-5.0-110.0","go-nogo","false","0","","true","<div class = centerbox><div  id = stim2></div></div>","32","32","750","","test","go","110","random","","",""
"","283","32","1442","0","test_block","poldrack-single-stim","125","229291","0.0-5.0-111.0","go-nogo","false","0","","true","<div class = centerbox><div  id = stim2></div></div>","32","32","750","","test","go","111","random","","",""
"","360","32","1098","0","test_block","poldrack-single-stim","126","230444","0.0-5.0-112.0","go-nogo","false","0","","true","<div class = centerbox><div  id = stim2></div></div>","32","32","750","","test","go","112","random","","",""
"","514","32","1361","0","test_block","poldrack-single-stim","127","231873","0.0-5.0-113.0","go-nogo","false","0","","true","<div class = centerbox><div  id = stim2></div></div>","32","32","750","","test","go","113","random","","",""
"","306","32","1203","0","test_block","poldrack-single-stim","128","233142","0.0-5.0-114.0","go-nogo","false","0","","true","<div class = centerbox><div  id = stim2></div></div>","32","32","750","","test","go","114","random","","",""
"","377","32","1457","0","test_block","poldrack-single-stim","129","234659","0.0-5.0-115.0","go-nogo","false","0","","true","<div class = centerbox><div  id = stim2></div></div>","32","32","750","","test","go","115","random","","",""
"","471","32","1458","0","test_block","poldrack-single-stim","130","236207","0.0-5.0-116.0","go-nogo","false","0","","true","<div class = centerbox><div  id = stim2></div></div>","32","32","750","","test","go","116","random","","",""
"","369","32","1406","0","test_block","poldrack-single-stim","131","237690","0.0-5.0-117.0","go-nogo","false","0","","true","<div class = centerbox><div  id = stim2></div></div>","32","32","750","","test","go","117","random","","",""
"","288","32","1420","0","test_block","poldrack-single-stim","132","239208","0.0-5.0-118.0","go-nogo","false","0","","true","<div class = centerbox><div  id = stim2></div></div>","32","32","750","","test","go","118","random","","",""
"","306","32","1330","0","test_block","poldrack-single-stim","133","240734","0.0-5.0-119.0","go-nogo","false","0","","true","<div class = centerbox><div  id = stim2></div></div>","32","32","750","","test","go","119","random","","",""
"","302","32","1371","0","test_block","poldrack-single-stim","134","242175","0.0-5.0-120.0","go-nogo","false","0","","true","<div class = centerbox><div  id = stim2></div></div>","32","32","750","","test","go","120","random","","",""
"","280","32","1079","0","test_block","poldrack-single-stim","135","243354","0.0-5.0-121.0","go-nogo","false","0","","true","<div class = centerbox><div  id = stim2></div></div>","32","32","750","","test","go","121","random","","",""
"","292","32","1451","0","test_block","poldrack-single-stim","136","244905","0.0-5.0-122.0","go-nogo","false","0","","true","<div class = centerbox><div  id = stim2></div></div>","32","32","750","","test","go","122","random","","",""
"","251","32","1167","0","test_block","poldrack-single-stim","137","246143","0.0-5.0-123.0","go-nogo","false","0","","true","<div class = centerbox><div  id = stim2></div></div>","32","32","750","","test","go","123","random","","",""
"","334","32","1135","0","test_block","poldrack-single-stim","138","247362","0.0-5.0-124.0","go-nogo","false","0","","true","<div class = centerbox><div  id = stim2></div></div>","32","32","750","","test","go","124","random","","",""
"","354","32","1027","0","test_block","poldrack-single-stim","139","248478","0.0-5.0-125.0","go-nogo","false","0","","true","<div class = centerbox><div  id = stim2></div></div>","32","32","750","","test","go","125","random","","",""
"","359","32","1348","0","test_block","poldrack-single-stim","140","249937","0.0-5.0-126.0","go-nogo","false","0","","true","<div class = centerbox><div  id = stim2></div></div>","32","32","750","","test","go","126","random","","",""
"","348","32","1394","0","test_block","poldrack-single-stim","141","251409","0.0-5.0-127.0","go-nogo","false","0","","true","<div class = centerbox><div  id = stim2></div></div>","32","32","750","","test","go","127","random","","",""
"","349","32","1339","0","test_block","poldrack-single-stim","142","252843","0.0-5.0-128.0","go-nogo","false","0","","true","<div class = centerbox><div  id = stim2></div></div>","32","32","750","","test","go","128","random","","",""
"","384","32","1468","0","test_block","poldrack-single-stim","143","254407","0.0-5.0-129.0","go-nogo","false","0","","true","<div class = centerbox><div  id = stim2></div></div>","32","32","750","","test","go","129","random","","",""
"","407","32","1479","0","test_block","poldrack-single-stim","144","255995","0.0-5.0-130.0","go-nogo","false","0","","true","<div class = centerbox><div  id = stim2></div></div>","32","32","750","","test","go","130","random","","",""
"","371","32","1160","0","test_block","poldrack-single-stim","145","257219","0.0-5.0-131.0","go-nogo","false","0","","true","<div class = centerbox><div  id = stim2></div></div>","32","32","750","","test","go","131","random","","",""
"","385","32","1428","0","test_block","poldrack-single-stim","146","258719","0.0-5.0-132.0","go-nogo","false","0","","true","<div class = centerbox><div  id = stim2></div></div>","32","32","750","","test","go","132","random","","",""
"","391","32","1493","0","test_block","poldrack-single-stim","147","260297","0.0-5.0-133.0","go-nogo","false","0","","true","<div class = centerbox><div  id = stim2></div></div>","32","32","750","","test","go","133","random","","",""
"","381","32","1289","0","test_block","poldrack-single-stim","148","261654","0.0-5.0-134.0","go-nogo","false","0","","true","<div class = centerbox><div  id = stim2></div></div>","32","32","750","","test","go","134","random","","",""
"","339","32","1166","0","test_block","poldrack-single-stim","149","262886","0.0-5.0-135.0","go-nogo","false","0","","true","<div class = centerbox><div  id = stim2></div></div>","32","32","750","","test","go","135","random","","",""
"","332","32","1266","0","test_block","poldrack-single-stim","150","264220","0.0-5.0-136.0","go-nogo","false","0","","true","<div class = centerbox><div  id = stim2></div></div>","32","32","750","","test","go","136","random","","",""
"","381","32","1497","0","test_block","poldrack-single-stim","151","265775","0.0-5.0-137.0","go-nogo","false","0","","true","<div class = centerbox><div  id = stim2></div></div>","32","32","750","","test","go","137","random","","",""
"","386","32","1215","0","test_block","poldrack-single-stim","152","267089","0.0-5.0-138.0","go-nogo","false","0","","true","<div class = centerbox><div  id = stim2></div></div>","32","32","750","","test","go","138","random","","",""
"","355","32","1432","0","test_block","poldrack-single-stim","153","268585","0.0-5.0-139.0","go-nogo","false","0","","true","<div class = centerbox><div  id = stim2></div></div>","32","32","750","","test","go","139","random","","",""
"","403","32","1121","0","test_block","poldrack-single-stim","154","269773","0.0-5.0-140.0","go-nogo","false","0","","true","<div class = centerbox><div  id = stim2></div></div>","32","32","750","","test","go","140","random","","",""
"","-1","-1","1347","0","test_block","poldrack-single-stim","155","271187","0.0-5.0-141.0","go-nogo","false","0","","true","<div class = centerbox><div  id = stim1></div></div>","-1","32","750","","test","nogo","141","random","","",""
"","373","32","1435","0","test_block","poldrack-single-stim","156","272715","0.0-5.0-142.0","go-nogo","false","0","","true","<div class = centerbox><div  id = stim2></div></div>","32","32","750","","test","go","142","random","","",""
"","287","32","1269","0","test_block","poldrack-single-stim","157","274059","0.0-5.0-143.0","go-nogo","false","0","","true","<div class = centerbox><div  id = stim2></div></div>","32","32","750","","test","go","143","random","","",""
"","351","32","1208","0","test_block","poldrack-single-stim","158","275356","0.0-5.0-144.0","go-nogo","false","0","","true","<div class = centerbox><div  id = stim2></div></div>","32","32","750","","test","go","144","random","","",""
"","332","32","1219","0","test_block","poldrack-single-stim","159","276682","0.0-5.0-145.0","go-nogo","false","0","","true","<div class = centerbox><div  id = stim2></div></div>","32","32","750","","test","go","145","random","","",""
"","356","32","1112","0","test_block","poldrack-single-stim","160","277856","0.0-5.0-146.0","go-nogo","false","0","","true","<div class = centerbox><div  id = stim2></div></div>","32","32","750","","test","go","146","random","","",""
"","453","32","1304","0","test_block","poldrack-single-stim","161","279223","0.0-5.0-147.0","go-nogo","false","0","","true","<div class = centerbox><div  id = stim2></div></div>","32","32","750","","test","go","147","random","","",""
"","352","32","1135","0","test_block","poldrack-single-stim","162","280425","0.0-5.0-148.0","go-nogo","false","0","","true","<div class = centerbox><div  id = stim2></div></div>","32","32","750","","test","go","148","random","","",""
"","397","32","1472","0","test_block","poldrack-single-stim","163","281974","0.0-5.0-149.0","go-nogo","false","0","","true","<div class = centerbox><div  id = stim2></div></div>","32","32","750","","test","go","149","random","","",""
"","290","32","1222","0","test_block","poldrack-single-stim","164","283257","0.0-5.0-150.0","go-nogo","false","0","","true","<div class = centerbox><div  id = stim2></div></div>","32","32","750","","test","go","150","random","","",""
"","324","32","1224","0","test_block","poldrack-single-stim","165","284542","0.0-5.0-151.0","go-nogo","false","0","","true","<div class = centerbox><div  id = stim2></div></div>","32","32","750","","test","go","151","random","","",""
"","411","32","1439","0","test_block","poldrack-single-stim","166","286048","0.0-5.0-152.0","go-nogo","false","0","","true","<div class = centerbox><div  id = stim2></div></div>","32","32","750","","test","go","152","random","","",""
"","320","32","1232","0","test_block","poldrack-single-stim","167","287351","0.0-5.0-153.0","go-nogo","false","0","","true","<div class = centerbox><div  id = stim2></div></div>","32","32","750","","test","go","153","random","","",""
"","382","32","1183","0","test_block","poldrack-single-stim","168","288605","0.0-5.0-154.0","go-nogo","false","0","","true","<div class = centerbox><div  id = stim2></div></div>","32","32","750","","test","go","154","random","","",""
"","453","32","1408","0","test_block","poldrack-single-stim","169","290078","0.0-5.0-155.0","go-nogo","false","0","","true","<div class = centerbox><div  id = stim2></div></div>","32","32","750","","test","go","155","random","","",""
"","472","32","1274","0","test_block","poldrack-single-stim","170","291405","0.0-5.0-156.0","go-nogo","false","0","","true","<div class = centerbox><div  id = stim2></div></div>","32","32","750","","test","go","156","random","","",""
"","480","32","1345","0","test_block","poldrack-single-stim","171","292805","0.0-5.0-157.0","go-nogo","false","0","","true","<div class = centerbox><div  id = stim2></div></div>","32","32","750","","test","go","157","random","","",""
"","470","32","1470","0","test_block","poldrack-single-stim","172","294347","0.0-5.0-158.0","go-nogo","false","0","","true","<div class = centerbox><div  id = stim2></div></div>","32","32","750","","test","go","158","random","","",""
"","383","32","1146","0","test_block","poldrack-single-stim","173","295556","0.0-5.0-159.0","go-nogo","false","0","","true","<div class = centerbox><div  id = stim2></div></div>","32","32","750","","test","go","159","random","","",""
"","393","32","1464","0","test_block","poldrack-single-stim","174","297099","0.0-5.0-160.0","go-nogo","false","0","","true","<div class = centerbox><div  id = stim2></div></div>","32","32","750","","test","go","160","random","","",""
"","406","32","1102","0","test_block","poldrack-single-stim","175","298309","0.0-5.0-161.0","go-nogo","false","0","","true","<div class = centerbox><div  id = stim2></div></div>","32","32","750","","test","go","161","random","","",""
"","383","32","1285","0","test_block","poldrack-single-stim","176","299665","0.0-5.0-162.0","go-nogo","false","0","","true","<div class = centerbox><div  id = stim2></div></div>","32","32","750","","test","go","162","random","","",""
"","291","32","1387","0","test_block","poldrack-single-stim","177","301141","0.0-5.0-163.0","go-nogo","false","0","","true","<div class = centerbox><div  id = stim2></div></div>","32","32","750","","test","go","163","random","","",""
"","368","32","1229","0","test_block","poldrack-single-stim","178","302424","0.0-5.0-164.0","go-nogo","false","0","","true","<div class = centerbox><div  id = stim2></div></div>","32","32","750","","test","go","164","random","","",""
"","411","32","1089","0","test_block","poldrack-single-stim","179","303601","0.0-5.0-165.0","go-nogo","false","0","","true","<div class = centerbox><div  id = stim2></div></div>","32","32","750","","test","go","165","random","","",""
"","400","32","1049","0","test_block","poldrack-single-stim","180","304747","0.0-5.0-166.0","go-nogo","false","0","","true","<div class = centerbox><div  id = stim2></div></div>","32","32","750","","test","go","166","random","","",""
"","434","32","1013","0","test_block","poldrack-single-stim","181","305830","0.0-5.0-167.0","go-nogo","false","0","","true","<div class = centerbox><div  id = stim2></div></div>","32","32","750","","test","go","167","random","","",""
"","-1","-1","1157","0","test_block","poldrack-single-stim","182","307057","0.0-5.0-168.0","go-nogo","false","0","","true","<div class = centerbox><div  id = stim1></div></div>","-1","32","750","","test","nogo","168","random","","",""
"","357","32","1104","0","test_block","poldrack-single-stim","183","308230","0.0-5.0-169.0","go-nogo","false","0","","true","<div class = centerbox><div  id = stim2></div></div>","32","32","750","","test","go","169","random","","",""
"","347","32","1043","0","test_block","poldrack-single-stim","184","309342","0.0-5.0-170.0","go-nogo","false","0","","true","<div class = centerbox><div  id = stim2></div></div>","32","32","750","","test","go","170","random","","",""
"","387","32","1448","0","test_block","poldrack-single-stim","185","310858","0.0-5.0-171.0","go-nogo","false","0","","true","<div class = centerbox><div  id = stim2></div></div>","32","32","750","","test","go","171","random","","",""
"","340","32","1205","0","test_block","poldrack-single-stim","186","312141","0.0-5.0-172.0","go-nogo","false","0","","true","<div class = centerbox><div  id = stim2></div></div>","32","32","750","","test","go","172","random","","",""
"","359","32","1033","0","test_block","poldrack-single-stim","187","313254","0.0-5.0-173.0","go-nogo","false","0","","true","<div class = centerbox><div  id = stim2></div></div>","32","32","750","","test","go","173","random","","",""
"","450","32","1281","0","test_block","poldrack-single-stim","188","314601","0.0-5.0-174.0","go-nogo","false","0","","true","<div class = centerbox><div  id = stim2></div></div>","32","32","750","","test","go","174","random","","",""
"","441","32","1024","0","test_block","poldrack-single-stim","189","315698","0.0-5.0-175.0","go-nogo","false","0","","true","<div class = centerbox><div  id = stim2></div></div>","32","32","750","","test","go","175","random","","",""
"","473","32","1159","0","test_block","poldrack-single-stim","190","316921","0.0-5.0-176.0","go-nogo","false","0","","true","<div class = centerbox><div  id = stim2></div></div>","32","32","750","","test","go","176","random","","",""
"","-1","-1","1477","0","test_block","poldrack-single-stim","191","318470","0.0-5.0-177.0","go-nogo","false","0","","true","<div class = centerbox><div  id = stim1></div></div>","-1","32","750","","test","nogo","177","random","","",""
"","361","32","1272","0","test_block","poldrack-single-stim","192","319808","0.0-5.0-178.0","go-nogo","false","0","","true","<div class = centerbox><div  id = stim2></div></div>","32","32","750","","test","go","178","random","","",""
"","288","32","1442","0","test_block","poldrack-single-stim","193","321309","0.0-5.0-179.0","go-nogo","false","0","","true","<div class = centerbox><div  id = stim2></div></div>","32","32","750","","test","go","179","random","","",""
"","262","32","1460","0","test_block","poldrack-single-stim","194","322843","0.0-5.0-180.0","go-nogo","false","0","","true","<div class = centerbox><div  id = stim2></div></div>","32","32","750","","test","go","180","random","","",""
"","296","32","1444","0","test_block","poldrack-single-stim","195","324360","0.0-5.0-181.0","go-nogo","false","0","","true","<div class = centerbox><div  id = stim2></div></div>","32","32","750","","test","go","181","random","","",""
"","293","32","1103","0","test_block","poldrack-single-stim","196","325526","0.0-5.0-182.0","go-nogo","false","0","","true","<div class = centerbox><div  id = stim2></div></div>","32","32","750","","test","go","182","random","","",""
"","348","32","1335","0","test_block","poldrack-single-stim","197","326968","0.0-5.0-183.0","go-nogo","false","0","","true","<div class = centerbox><div  id = stim2></div></div>","32","32","750","","test","go","183","random","","",""
"","383","32","1035","0","test_block","poldrack-single-stim","198","328071","0.0-5.0-184.0","go-nogo","false","0","","true","<div class = centerbox><div  id = stim2></div></div>","32","32","750","","test","go","184","random","","",""
"","507","32","1358","0","test_block","poldrack-single-stim","199","329511","0.0-5.0-185.0","go-nogo","false","0","","true","<div class = centerbox><div  id = stim2></div></div>","32","32","750","","test","go","185","random","","",""
"","362","32","1318","0","test_block","poldrack-single-stim","200","330905","0.0-5.0-186.0","go-nogo","false","0","","true","<div class = centerbox><div  id = stim2></div></div>","32","32","750","","test","go","186","random","","",""
"","499","32","1224","0","test_block","poldrack-single-stim","201","332193","0.0-5.0-187.0","go-nogo","false","0","","true","<div class = centerbox><div  id = stim2></div></div>","32","32","750","","test","go","187","random","","",""
"","521","32","1124","0","test_block","poldrack-single-stim","202","333381","0.0-5.0-188.0","go-nogo","false","0","","true","<div class = centerbox><div  id = stim2></div></div>","32","32","750","","test","go","188","random","","",""
"","538","32","1134","0","test_block","poldrack-single-stim","203","334599","0.0-5.0-189.0","go-nogo","false","0","","true","<div class = centerbox><div  id = stim2></div></div>","32","32","750","","test","go","189","random","","",""
"","565","32","1012","0","test_block","poldrack-single-stim","204","335692","0.0-5.0-190.0","go-nogo","false","0","","true","<div class = centerbox><div  id = stim2></div></div>","32","32","750","","test","go","190","random","","",""
"","678","32","1081","0","test_block","poldrack-single-stim","205","336829","0.0-5.0-191.0","go-nogo","false","0","","true","<div class = centerbox><div  id = stim2></div></div>","32","32","750","","test","go","191","random","","",""
"","711","32","1046","0","test_block","poldrack-single-stim","206","337937","0.0-5.0-192.0","go-nogo","false","0","","true","<div class = centerbox><div  id = stim2></div></div>","32","32","750","","test","go","192","random","","",""
"","628","32","1137","0","test_block","poldrack-single-stim","207","339144","0.0-5.0-193.0","go-nogo","false","0","","true","<div class = centerbox><div  id = stim2></div></div>","32","32","750","","test","go","193","random","","",""
"","497","32","1108","0","test_block","poldrack-single-stim","208","340317","0.0-5.0-194.0","go-nogo","false","0","","true","<div class = centerbox><div  id = stim2></div></div>","32","32","750","","test","go","194","random","","",""
"","416","32","1470","0","test_block","poldrack-single-stim","209","341852","0.0-5.0-195.0","go-nogo","false","0","","true","<div class = centerbox><div  id = stim2></div></div>","32","32","750","","test","go","195","random","","",""
"","370","32","1005","0","test_block","poldrack-single-stim","210","342944","0.0-5.0-196.0","go-nogo","false","0","","true","<div class = centerbox><div  id = stim2></div></div>","32","32","750","","test","go","196","random","","",""
"","410","32","1109","0","test_block","poldrack-single-stim","211","344118","0.0-5.0-197.0","go-nogo","false","0","","true","<div class = centerbox><div  id = stim2></div></div>","32","32","750","","test","go","197","random","","",""
"","415","32","1338","0","test_block","poldrack-single-stim","212","345528","0.0-5.0-198.0","go-nogo","false","0","","true","<div class = centerbox><div  id = stim2></div></div>","32","32","750","","test","go","198","random","","",""
"","-1","-1","1151","0","test_block","poldrack-single-stim","213","346746","0.0-5.0-199.0","go-nogo","false","0","","true","<div class = centerbox><div  id = stim1></div></div>","-1","32","750","","test","nogo","199","random","","",""
"","350","32","1495","0","test_block","poldrack-single-stim","214","348299","0.0-5.0-200.0","go-nogo","false","0","","true","<div class = centerbox><div  id = stim2></div></div>","32","32","750","","test","go","200","random","","",""
"","269","32","1441","0","test_block","poldrack-single-stim","215","349799","0.0-5.0-201.0","go-nogo","false","0","","true","<div class = centerbox><div  id = stim2></div></div>","32","32","750","","test","go","201","random","","",""
"","263","32","1121","0","test_block","poldrack-single-stim","216","350980","0.0-5.0-202.0","go-nogo","false","0","","true","<div class = centerbox><div  id = stim2></div></div>","32","32","750","","test","go","202","random","","",""
"","380","32","1282","0","test_block","poldrack-single-stim","217","352329","0.0-5.0-203.0","go-nogo","false","0","","true","<div class = centerbox><div  id = stim2></div></div>","32","32","750","","test","go","203","random","","",""
"","313","32","1378","0","test_block","poldrack-single-stim","218","353771","0.0-5.0-204.0","go-nogo","false","0","","true","<div class = centerbox><div  id = stim2></div></div>","32","32","750","","test","go","204","random","","",""
"","310","32","1466","0","test_block","poldrack-single-stim","219","355304","0.0-5.0-205.0","go-nogo","false","0","","true","<div class = centerbox><div  id = stim2></div></div>","32","32","750","","test","go","205","random","","",""
"","298","32","1040","0","test_block","poldrack-single-stim","220","356408","0.0-5.0-206.0","go-nogo","false","0","","true","<div class = centerbox><div  id = stim2></div></div>","32","32","750","","test","go","206","random","","",""
"","541","32","1330","0","test_block","poldrack-single-stim","221","357800","0.0-5.0-207.0","go-nogo","false","0","","true","<div class = centerbox><div  id = stim2></div></div>","32","32","750","","test","go","207","random","","",""
"","454","32","1466","0","test_block","poldrack-single-stim","222","359334","0.0-5.0-208.0","go-nogo","false","0","","true","<div class = centerbox><div  id = stim2></div></div>","32","32","750","","test","go","208","random","","",""
"","302","32","1414","0","test_block","poldrack-single-stim","223","360797","0.0-5.0-209.0","go-nogo","false","0","","true","<div class = centerbox><div  id = stim2></div></div>","32","32","750","","test","go","209","random","","",""
"","279","32","1414","0","test_block","poldrack-single-stim","224","362275","0.0-5.0-210.0","go-nogo","false","0","","true","<div class = centerbox><div  id = stim2></div></div>","32","32","750","","test","go","210","random","","",""
"","-1","-1","1436","0","test_block","poldrack-single-stim","225","363773","0.0-5.0-211.0","go-nogo","false","0","","true","<div class = centerbox><div  id = stim1></div></div>","-1","32","750","","test","nogo","211","random","","",""
"","290","32","1214","0","test_block","poldrack-single-stim","226","365059","0.0-5.0-212.0","go-nogo","false","0","","true","<div class = centerbox><div  id = stim2></div></div>","32","32","750","","test","go","212","random","","",""
"","287","32","1261","0","test_block","poldrack-single-stim","227","366388","0.0-5.0-213.0","go-nogo","false","0","","true","<div class = centerbox><div  id = stim2></div></div>","32","32","750","","test","go","213","random","","",""
"","349","32","1058","0","test_block","poldrack-single-stim","228","367512","0.0-5.0-214.0","go-nogo","false","0","","true","<div class = centerbox><div  id = stim2></div></div>","32","32","750","","test","go","214","random","","",""
"","395","32","1431","0","test_block","poldrack-single-stim","229","369024","0.0-5.0-215.0","go-nogo","false","0","","true","<div class = centerbox><div  id = stim2></div></div>","32","32","750","","test","go","215","random","","",""
"","265","32","1495","0","test_block","poldrack-single-stim","230","370577","0.0-5.0-216.0","go-nogo","false","0","","true","<div class = centerbox><div  id = stim2></div></div>","32","32","750","","test","go","216","random","","",""
"","247","32","1391","0","test_block","poldrack-single-stim","231","372066","0.0-5.0-217.0","go-nogo","false","0","","true","<div class = centerbox><div  id = stim2></div></div>","32","32","750","","test","go","217","random","","",""
"","258","32","1071","0","test_block","poldrack-single-stim","232","373208","0.0-5.0-218.0","go-nogo","false","0","","true","<div class = centerbox><div  id = stim2></div></div>","32","32","750","","test","go","218","random","","",""
"","359","32","1155","0","test_block","poldrack-single-stim","233","374431","0.0-5.0-219.0","go-nogo","false","0","","true","<div class = centerbox><div  id = stim2></div></div>","32","32","750","","test","go","219","random","","",""
"","331","32","1476","0","test_block","poldrack-single-stim","234","375972","0.0-5.0-220.0","go-nogo","false","0","","true","<div class = centerbox><div  id = stim2></div></div>","32","32","750","","test","go","220","random","","",""
"","327","32","1335","0","test_block","poldrack-single-stim","235","377381","0.0-5.0-221.0","go-nogo","false","0","","true","<div class = centerbox><div  id = stim2></div></div>","32","32","750","","test","go","221","random","","",""
"","-1","-1","1294","0","test_block","poldrack-single-stim","236","378748","0.0-5.0-222.0","go-nogo","false","0","","true","<div class = centerbox><div  id = stim1></div></div>","-1","32","750","","test","nogo","222","random","","",""
"","314","32","1499","0","test_block","poldrack-single-stim","237","380308","0.0-5.0-223.0","go-nogo","false","0","","false","<div class = centerbox><div  id = stim1></div></div>","-1","32","750","","test","nogo","223","random","","",""
"","216","32","1240","0","test_block","poldrack-single-stim","238","381609","0.0-5.0-224.0","go-nogo","false","0","","true","<div class = centerbox><div  id = stim2></div></div>","32","32","750","","test","go","224","random","","",""
"","358","32","1319","0","test_block","poldrack-single-stim","239","382999","0.0-5.0-225.0","go-nogo","false","0","","true","<div class = centerbox><div  id = stim2></div></div>","32","32","750","","test","go","225","random","","",""
"","336","32","1044","0","test_block","poldrack-single-stim","240","384128","0.0-5.0-226.0","go-nogo","false","0","","true","<div class = centerbox><div  id = stim2></div></div>","32","32","750","","test","go","226","random","","",""
"","453","32","1395","0","test_block","poldrack-single-stim","241","385594","0.0-5.0-227.0","go-nogo","false","0","","true","<div class = centerbox><div  id = stim2></div></div>","32","32","750","","test","go","227","random","","",""
"","439","32","1386","0","test_block","poldrack-single-stim","242","387054","0.0-5.0-228.0","go-nogo","false","0","","true","<div class = centerbox><div  id = stim2></div></div>","32","32","750","","test","go","228","random","","",""
"","388","32","1181","0","test_block","poldrack-single-stim","243","388307","0.0-5.0-229.0","go-nogo","false","0","","true","<div class = centerbox><div  id = stim2></div></div>","32","32","750","","test","go","229","random","","",""
"","373","32","1360","0","test_block","poldrack-single-stim","244","389735","0.0-5.0-230.0","go-nogo","false","0","","true","<div class = centerbox><div  id = stim2></div></div>","32","32","750","","test","go","230","random","","",""
"","382","32","1278","0","test_block","poldrack-single-stim","245","391076","0.0-5.0-231.0","go-nogo","false","0","","true","<div class = centerbox><div  id = stim2></div></div>","32","32","750","","test","go","231","random","","",""
"","339","32","1025","0","test_block","poldrack-single-stim","246","392177","0.0-5.0-232.0","go-nogo","false","0","","true","<div class = centerbox><div  id = stim2></div></div>","32","32","750","","test","go","232","random","","",""
"","422","32","1272","0","test_block","poldrack-single-stim","247","393502","0.0-5.0-233.0","go-nogo","false","0","","true","<div class = centerbox><div  id = stim2></div></div>","32","32","750","","test","go","233","random","","",""
"","403","32","1329","0","test_block","poldrack-single-stim","248","394897","0.0-5.0-234.0","go-nogo","false","0","","true","<div class = centerbox><div  id = stim2></div></div>","32","32","750","","test","go","234","random","","",""
"","-1","-1","1465","0","test_block","poldrack-single-stim","249","396430","0.0-5.0-235.0","go-nogo","false","0","","true","<div class = centerbox><div  id = stim1></div></div>","-1","32","750","","test","nogo","235","random","","",""
"","247","32","1102","0","test_block","poldrack-single-stim","250","397602","0.0-5.0-236.0","go-nogo","false","0","","true","<div class = centerbox><div  id = stim2></div></div>","32","32","750","","test","go","236","random","","",""
"","286","32","1140","0","test_block","poldrack-single-stim","251","398808","0.0-5.0-237.0","go-nogo","false","0","","false","<div class = centerbox><div  id = stim1></div></div>","-1","32","750","","test","nogo","237","random","","",""
"","283","32","1338","0","test_block","poldrack-single-stim","252","400219","0.0-5.0-238.0","go-nogo","false","0","","true","<div class = centerbox><div  id = stim2></div></div>","32","32","750","","test","go","238","random","","",""
"","350","32","1078","0","test_block","poldrack-single-stim","253","401364","0.0-5.0-239.0","go-nogo","false","0","","true","<div class = centerbox><div  id = stim2></div></div>","32","32","750","","test","go","239","random","","",""
"","446","32","1166","0","test_block","poldrack-single-stim","254","402596","0.0-5.0-240.0","go-nogo","false","0","","true","<div class = centerbox><div  id = stim2></div></div>","32","32","750","","test","go","240","random","","",""
"","353","32","1158","0","test_block","poldrack-single-stim","255","403818","0.0-5.0-241.0","go-nogo","false","0","","true","<div class = centerbox><div  id = stim2></div></div>","32","32","750","","test","go","241","random","","",""
"","481","32","1306","0","test_block","poldrack-single-stim","256","405188","0.0-5.0-242.0","go-nogo","false","0","","true","<div class = centerbox><div  id = stim2></div></div>","32","32","750","","test","go","242","random","","",""
"","418","32","1377","0","test_block","poldrack-single-stim","257","406618","0.0-5.0-243.0","go-nogo","false","0","","true","<div class = centerbox><div  id = stim2></div></div>","32","32","750","","test","go","243","random","","",""
"","424","32","1198","0","test_block","poldrack-single-stim","258","407904","0.0-5.0-244.0","go-nogo","false","0","","true","<div class = centerbox><div  id = stim2></div></div>","32","32","750","","test","go","244","random","","",""
"","494","32","1002","0","test_block","poldrack-single-stim","259","408966","0.0-5.0-245.0","go-nogo","false","0","","true","<div class = centerbox><div  id = stim2></div></div>","32","32","750","","test","go","245","random","","",""
"","638","32","1253","0","test_block","poldrack-single-stim","260","410295","0.0-5.0-246.0","go-nogo","false","0","","true","<div class = centerbox><div  id = stim2></div></div>","32","32","750","","test","go","246","random","","",""
"","412","32","1287","0","test_block","poldrack-single-stim","261","411637","0.0-5.0-247.0","go-nogo","false","0","","true","<div class = centerbox><div  id = stim2></div></div>","32","32","750","","test","go","247","random","","",""
"","358","32","1487","0","test_block","poldrack-single-stim","262","413188","0.0-5.0-248.0","go-nogo","false","0","","true","<div class = centerbox><div  id = stim2></div></div>","32","32","750","","test","go","248","random","","",""
"","367","32","1046","0","test_block","poldrack-single-stim","263","414309","0.0-5.0-249.0","go-nogo","false","0","","true","<div class = centerbox><div  id = stim2></div></div>","32","32","750","","test","go","249","random","","",""
"","302","32","1220","0","test_block","poldrack-single-stim","264","415602","0.0-5.0-250.0","go-nogo","false","0","","true","<div class = centerbox><div  id = stim2></div></div>","32","32","750","","test","go","250","random","","",""
"","328","32","1477","0","test_block","poldrack-single-stim","265","417145","0.0-5.0-251.0","go-nogo","false","0","","true","<div class = centerbox><div  id = stim2></div></div>","32","32","750","","test","go","251","random","","",""
"","358","32","1261","0","test_block","poldrack-single-stim","266","418510","0.0-5.0-252.0","go-nogo","false","0","","true","<div class = centerbox><div  id = stim2></div></div>","32","32","750","","test","go","252","random","","",""
"","344","32","1355","0","test_block","poldrack-single-stim","267","419936","0.0-5.0-253.0","go-nogo","false","0","","true","<div class = centerbox><div  id = stim2></div></div>","32","32","750","","test","go","253","random","","",""
"","347","32","1382","0","test_block","poldrack-single-stim","268","421381","0.0-5.0-254.0","go-nogo","false","0","","true","<div class = centerbox><div  id = stim2></div></div>","32","32","750","","test","go","254","random","","",""
"","328","32","1137","0","test_block","poldrack-single-stim","269","422600","0.0-5.0-255.0","go-nogo","false","0","","true","<div class = centerbox><div  id = stim2></div></div>","32","32","750","","test","go","255","random","","",""
"","349","32","1141","0","test_block","poldrack-single-stim","270","423795","0.0-5.0-256.0","go-nogo","false","0","","true","<div class = centerbox><div  id = stim2></div></div>","32","32","750","","test","go","256","random","","",""
"","279","32","1463","0","test_block","poldrack-single-stim","271","425316","0.0-5.0-257.0","go-nogo","false","0","","true","<div class = centerbox><div  id = stim2></div></div>","32","32","750","","test","go","257","random","","",""
"","333","32","1035","0","test_block","poldrack-single-stim","272","426420","0.0-5.0-258.0","go-nogo","false","0","","true","<div class = centerbox><div  id = stim2></div></div>","32","32","750","","test","go","258","random","","",""
"","400","32","1139","0","test_block","poldrack-single-stim","273","427622","0.0-5.0-259.0","go-nogo","false","0","","true","<div class = centerbox><div  id = stim2></div></div>","32","32","750","","test","go","259","random","","",""
"","404","32","1255","0","test_block","poldrack-single-stim","274","428927","0.0-5.0-260.0","go-nogo","false","0","","true","<div class = centerbox><div  id = stim2></div></div>","32","32","750","","test","go","260","random","","",""
"","316","32","1067","0","test_block","poldrack-single-stim","275","430059","0.0-5.0-261.0","go-nogo","false","0","","true","<div class = centerbox><div  id = stim2></div></div>","32","32","750","","test","go","261","random","","",""
"","389","32","1419","0","test_block","poldrack-single-stim","276","431538","0.0-5.0-262.0","go-nogo","false","0","","true","<div class = centerbox><div  id = stim2></div></div>","32","32","750","","test","go","262","random","","",""
"","376","32","1325","0","test_block","poldrack-single-stim","277","432923","0.0-5.0-263.0","go-nogo","false","0","","true","<div class = centerbox><div  id = stim2></div></div>","32","32","750","","test","go","263","random","","",""
"","382","32","1431","0","test_block","poldrack-single-stim","278","434438","0.0-5.0-264.0","go-nogo","false","0","","true","<div class = centerbox><div  id = stim2></div></div>","32","32","750","","test","go","264","random","","",""
"","341","32","1302","0","test_block","poldrack-single-stim","279","435805","0.0-5.0-265.0","go-nogo","false","0","","true","<div class = centerbox><div  id = stim2></div></div>","32","32","750","","test","go","265","random","","",""
"","352","32","1413","0","test_block","poldrack-single-stim","280","437281","0.0-5.0-266.0","go-nogo","false","0","","true","<div class = centerbox><div  id = stim2></div></div>","32","32","750","","test","go","266","random","","",""
"","318","32","1379","0","test_block","poldrack-single-stim","281","438727","0.0-5.0-267.0","go-nogo","false","0","","true","<div class = centerbox><div  id = stim2></div></div>","32","32","750","","test","go","267","random","","",""
"","381","32","1002","0","test_block","poldrack-single-stim","282","439794","0.0-5.0-268.0","go-nogo","false","0","","true","<div class = centerbox><div  id = stim2></div></div>","32","32","750","","test","go","268","random","","",""
"","417","32","1023","0","test_block","poldrack-single-stim","283","440889","0.0-5.0-269.0","go-nogo","false","0","","true","<div class = centerbox><div  id = stim2></div></div>","32","32","750","","test","go","269","random","","",""
"","-1","-1","1153","0","test_block","poldrack-single-stim","284","442115","0.0-5.0-270.0","go-nogo","false","0","","true","<div class = centerbox><div  id = stim1></div></div>","-1","32","750","","test","nogo","270","random","","",""
"","-1","-1","1414","0","test_block","poldrack-single-stim","285","443619","0.0-5.0-271.0","go-nogo","false","0","","true","<div class = centerbox><div  id = stim1></div></div>","-1","32","750","","test","nogo","271","random","","",""
"","336","32","1261","0","test_block","poldrack-single-stim","286","444951","0.0-5.0-272.0","go-nogo","false","0","","true","<div class = centerbox><div  id = stim2></div></div>","32","32","750","","test","go","272","random","","",""
"","402","32","1219","0","test_block","poldrack-single-stim","287","446238","0.0-5.0-273.0","go-nogo","false","0","","true","<div class = centerbox><div  id = stim2></div></div>","32","32","750","","test","go","273","random","","",""
"","331","32","1275","0","test_block","poldrack-single-stim","288","447577","0.0-5.0-274.0","go-nogo","false","0","","true","<div class = centerbox><div  id = stim2></div></div>","32","32","750","","test","go","274","random","","",""
"","260","32","1026","0","test_block","poldrack-single-stim","289","448676","0.0-5.0-275.0","go-nogo","false","0","","true","<div class = centerbox><div  id = stim2></div></div>","32","32","750","","test","go","275","random","","",""
"","338","32","1194","0","test_block","poldrack-single-stim","290","449930","0.0-5.0-276.0","go-nogo","false","0","","true","<div class = centerbox><div  id = stim2></div></div>","32","32","750","","test","go","276","random","","",""
"","342","32","1170","0","test_block","poldrack-single-stim","291","451167","0.0-5.0-277.0","go-nogo","false","0","","true","<div class = centerbox><div  id = stim2></div></div>","32","32","750","","test","go","277","random","","",""
"","302","32","1398","0","test_block","poldrack-single-stim","292","452627","0.0-5.0-278.0","go-nogo","false","0","","true","<div class = centerbox><div  id = stim2></div></div>","32","32","750","","test","go","278","random","","",""
"","368","32","1234","0","test_block","poldrack-single-stim","293","453943","0.0-5.0-279.0","go-nogo","false","0","","true","<div class = centerbox><div  id = stim2></div></div>","32","32","750","","test","go","279","random","","",""
"","362","32","1206","0","test_block","poldrack-single-stim","294","455230","0.0-5.0-280.0","go-nogo","false","0","","true","<div class = centerbox><div  id = stim2></div></div>","32","32","750","","test","go","280","random","","",""
"","305","32","1440","0","test_block","poldrack-single-stim","295","456756","0.0-5.0-281.0","go-nogo","false","0","","true","<div class = centerbox><div  id = stim2></div></div>","32","32","750","","test","go","281","random","","",""
"","-1","-1","1494","0","test_block","poldrack-single-stim","296","458311","0.0-5.0-282.0","go-nogo","false","0","","true","<div class = centerbox><div  id = stim1></div></div>","-1","32","750","","test","nogo","282","random","","",""
"","222","32","1140","0","test_block","poldrack-single-stim","297","459510","0.0-5.0-283.0","go-nogo","false","0","","true","<div class = centerbox><div  id = stim2></div></div>","32","32","750","","test","go","283","random","","",""
"","328","32","1012","0","test_block","poldrack-single-stim","298","460604","0.0-5.0-284.0","go-nogo","false","0","","true","<div class = centerbox><div  id = stim2></div></div>","32","32","750","","test","go","284","random","","",""
"","332","32","1417","0","test_block","poldrack-single-stim","299","462097","0.0-5.0-285.0","go-nogo","false","0","","true","<div class = centerbox><div  id = stim2></div></div>","32","32","750","","test","go","285","random","","",""
"","316","32","1431","0","test_block","poldrack-single-stim","300","463597","0.0-5.0-286.0","go-nogo","false","0","","true","<div class = centerbox><div  id = stim2></div></div>","32","32","750","","test","go","286","random","","",""
"","326","32","1335","0","test_block","poldrack-single-stim","301","465004","0.0-5.0-287.0","go-nogo","false","0","","true","<div class = centerbox><div  id = stim2></div></div>","32","32","750","","test","go","287","random","","",""
"","306","32","1430","0","test_block","poldrack-single-stim","302","466508","0.0-5.0-288.0","go-nogo","false","0","","true","<div class = centerbox><div  id = stim2></div></div>","32","32","750","","test","go","288","random","","",""
"","277","32","1256","0","test_block","poldrack-single-stim","303","467856","0.0-5.0-289.0","go-nogo","false","0","","true","<div class = centerbox><div  id = stim2></div></div>","32","32","750","","test","go","289","random","","",""
"","286","32","1314","0","test_block","poldrack-single-stim","304","469242","0.0-5.0-290.0","go-nogo","false","0","","true","<div class = centerbox><div  id = stim2></div></div>","32","32","750","","test","go","290","random","","",""
"","291","32","1415","0","test_block","poldrack-single-stim","305","470726","0.0-5.0-291.0","go-nogo","false","0","","true","<div class = centerbox><div  id = stim2></div></div>","32","32","750","","test","go","291","random","","",""
"","308","32","1436","0","test_block","poldrack-single-stim","306","472247","0.0-5.0-292.0","go-nogo","false","0","","true","<div class = centerbox><div  id = stim2></div></div>","32","32","750","","test","go","292","random","","",""
"","323","32","1285","0","test_block","poldrack-single-stim","307","473596","0.0-5.0-293.0","go-nogo","false","0","","true","<div class = centerbox><div  id = stim2></div></div>","32","32","750","","test","go","293","random","","",""
"","-1","-1","1148","0","test_block","poldrack-single-stim","308","474802","0.0-5.0-294.0","go-nogo","false","0","","true","<div class = centerbox><div  id = stim1></div></div>","-1","32","750","","test","nogo","294","random","","",""
"","317","32","1007","0","test_block","poldrack-single-stim","309","475877","0.0-5.0-295.0","go-nogo","false","0","","true","<div class = centerbox><div  id = stim2></div></div>","32","32","750","","test","go","295","random","","",""
"","350","32","1134","0","test_block","poldrack-single-stim","310","477076","0.0-5.0-296.0","go-nogo","false","0","","true","<div class = centerbox><div  id = stim2></div></div>","32","32","750","","test","go","296","random","","",""
"","290","32","1033","0","test_block","poldrack-single-stim","311","478188","0.0-5.0-297.0","go-nogo","false","0","","true","<div class = centerbox><div  id = stim2></div></div>","32","32","750","","test","go","297","random","","",""
"","-1","-1","1238","0","test_block","poldrack-single-stim","312","479496","0.0-5.0-298.0","go-nogo","false","0","","true","<div class = centerbox><div  id = stim1></div></div>","-1","32","750","","test","nogo","298","random","","",""
"","300","32","1402","0","test_block","poldrack-single-stim","313","480961","0.0-5.0-299.0","go-nogo","false","0","","true","<div class = centerbox><div  id = stim2></div></div>","32","32","750","","test","go","299","random","","",""
"","227","32","1034","0","test_block","poldrack-single-stim","314","482059","0.0-5.0-300.0","go-nogo","false","0","","true","<div class = centerbox><div  id = stim2></div></div>","32","32","750","","test","go","300","random","","",""
"","290","32","1004","0","test_block","poldrack-single-stim","315","483144","0.0-5.0-301.0","go-nogo","false","0","","true","<div class = centerbox><div  id = stim2></div></div>","32","32","750","","test","go","301","random","","",""
"","317","32","1201","0","test_block","poldrack-single-stim","316","484408","0.0-5.0-302.0","go-nogo","false","0","","true","<div class = centerbox><div  id = stim2></div></div>","32","32","750","","test","go","302","random","","",""
"","-1","-1","1246","0","test_block","poldrack-single-stim","317","485716","0.0-5.0-303.0","go-nogo","false","0","","true","<div class = centerbox><div  id = stim1></div></div>","-1","32","750","","test","nogo","303","random","","",""
"","260","32","1202","0","test_block","poldrack-single-stim","318","486994","0.0-5.0-304.0","go-nogo","false","0","","true","<div class = centerbox><div  id = stim2></div></div>","32","32","750","","test","go","304","random","","",""
"","238","32","1051","0","test_block","poldrack-single-stim","319","488104","0.0-5.0-305.0","go-nogo","false","0","","true","<div class = centerbox><div  id = stim2></div></div>","32","32","750","","test","go","305","random","","",""
"","309","32","1027","0","test_block","poldrack-single-stim","320","489199","0.0-5.0-306.0","go-nogo","false","0","","true","<div class = centerbox><div  id = stim2></div></div>","32","32","750","","test","go","306","random","","",""
"","380","32","1178","0","test_block","poldrack-single-stim","321","490444","0.0-5.0-307.0","go-nogo","false","0","","true","<div class = centerbox><div  id = stim2></div></div>","32","32","750","","test","go","307","random","","",""
"","379","32","1360","0","test_block","poldrack-single-stim","322","491863","0.0-5.0-308.0","go-nogo","false","0","","true","<div class = centerbox><div  id = stim2></div></div>","32","32","750","","test","go","308","random","","",""
"","333","32","1326","0","test_block","poldrack-single-stim","323","493256","0.0-5.0-309.0","go-nogo","false","0","","true","<div class = centerbox><div  id = stim2></div></div>","32","32","750","","test","go","309","random","","",""
"","327","32","1195","0","test_block","poldrack-single-stim","324","494520","0.0-5.0-310.0","go-nogo","false","0","","true","<div class = centerbox><div  id = stim2></div></div>","32","32","750","","test","go","310","random","","",""
"","-1","-1","1332","0","test_block","poldrack-single-stim","325","495917","0.0-5.0-311.0","go-nogo","false","0","","true","<div class = centerbox><div  id = stim1></div></div>","-1","32","750","","test","nogo","311","random","","",""
"","246","32","1320","0","test_block","poldrack-single-stim","326","497303","0.0-5.0-312.0","go-nogo","false","0","","true","<div class = centerbox><div  id = stim2></div></div>","32","32","750","","test","go","312","random","","",""
"","275","32","1498","0","test_block","poldrack-single-stim","327","498864","0.0-5.0-313.0","go-nogo","false","0","","true","<div class = centerbox><div  id = stim2></div></div>","32","32","750","","test","go","313","random","","",""
"","326","32","1186","0","test_block","poldrack-single-stim","328","500112","0.0-5.0-314.0","go-nogo","false","0","","true","<div class = centerbox><div  id = stim2></div></div>","32","32","750","","test","go","314","random","","",""
"","283","32","1346","0","test_block","poldrack-single-stim","329","501553","0.0-5.0-315.0","go-nogo","false","0","","true","<div class = centerbox><div  id = stim2></div></div>","32","32","750","","test","go","315","random","","",""
"","295","32","1346","0","test_block","poldrack-single-stim","330","502967","0.0-5.0-316.0","go-nogo","false","0","","true","<div class = centerbox><div  id = stim2></div></div>","32","32","750","","test","go","316","random","","",""
"","276","32","1227","0","test_block","poldrack-single-stim","331","504283","0.0-5.0-317.0","go-nogo","false","0","","false","<div class = centerbox><div  id = stim1></div></div>","-1","32","750","","test","nogo","317","random","","",""
"","-1","-1","1333","0","test_block","poldrack-single-stim","332","505682","0.0-5.0-318.0","go-nogo","false","0","","true","<div class = centerbox><div  id = stim1></div></div>","-1","32","750","","test","nogo","318","random","","",""
"","238","32","1090","0","test_block","poldrack-single-stim","333","506831","0.0-5.0-319.0","go-nogo","false","0","","true","<div class = centerbox><div  id = stim2></div></div>","32","32","750","","test","go","319","random","","",""
"","330","32","1129","0","test_block","poldrack-single-stim","334","508029","0.0-5.0-320.0","go-nogo","false","0","","true","<div class = centerbox><div  id = stim2></div></div>","32","32","750","","test","go","320","random","","",""
"","312","32","1154","0","test_block","poldrack-single-stim","335","509252","0.0-5.0-321.0","go-nogo","false","0","","true","<div class = centerbox><div  id = stim2></div></div>","32","32","750","","test","go","321","random","","",""
"","347","32","1319","0","test_block","poldrack-single-stim","336","510630","0.0-5.0-322.0","go-nogo","false","0","","true","<div class = centerbox><div  id = stim2></div></div>","32","32","750","","test","go","322","random","","",""
"","-1","-1","1079","0","test_block","poldrack-single-stim","337","511771","0.0-5.0-323.0","go-nogo","false","0","","true","<div class = centerbox><div  id = stim1></div></div>","-1","32","750","","test","nogo","323","random","","",""
"","335","32","1077","0","test_block","poldrack-single-stim","338","512922","0.0-5.0-324.0","go-nogo","false","0","","true","<div class = centerbox><div  id = stim2></div></div>","32","32","750","","test","go","324","random","","",""
"","333","32","1019","0","test_block","poldrack-single-stim","339","514008","0.0-5.0-325.0","go-nogo","false","0","","true","<div class = centerbox><div  id = stim2></div></div>","32","32","750","","test","go","325","random","","",""
"","336","32","1452","0","test_block","poldrack-single-stim","340","515529","0.0-5.0-326.0","go-nogo","false","0","","true","<div class = centerbox><div  id = stim2></div></div>","32","32","750","","test","go","326","random","","",""
"","311","32","1217","0","test_block","poldrack-single-stim","341","516815","0.0-5.0-327.0","go-nogo","false","0","","false","<div class = centerbox><div  id = stim1></div></div>","-1","32","750","","test","nogo","327","random","","",""
"","-1","-1","1145","0","test_block","poldrack-single-stim","342","518032","0.0-5.0-328.0","go-nogo","false","0","","true","<div class = centerbox><div  id = stim1></div></div>","-1","32","750","","test","nogo","328","random","","",""
"","277","32","1425","0","test_block","poldrack-single-stim","343","519537","0.0-5.0-329.0","go-nogo","false","0","","true","<div class = centerbox><div  id = stim2></div></div>","32","32","750","","test","go","329","random","","",""
"","375","32","1164","0","test_block","poldrack-single-stim","344","520791","0.0-5.0-330.0","go-nogo","false","0","","true","<div class = centerbox><div  id = stim2></div></div>","32","32","750","","test","go","330","random","","",""
"","358","32","1241","0","test_block","poldrack-single-stim","345","522095","0.0-5.0-331.0","go-nogo","false","0","","true","<div class = centerbox><div  id = stim2></div></div>","32","32","750","","test","go","331","random","","",""
"","302","32","1090","0","test_block","poldrack-single-stim","346","523259","0.0-5.0-332.0","go-nogo","false","0","","true","<div class = centerbox><div  id = stim2></div></div>","32","32","750","","test","go","332","random","","",""
"","378","32","1314","0","test_block","poldrack-single-stim","347","524663","0.0-5.0-333.0","go-nogo","false","0","","true","<div class = centerbox><div  id = stim2></div></div>","32","32","750","","test","go","333","random","","",""
"","314","32","1401","0","test_block","poldrack-single-stim","348","526358","0.0-5.0-334.0","go-nogo","false","0","","true","<div class = centerbox><div  id = stim2></div></div>","32","32","750","","test","go","334","random","","",""
"","336","32","1140","0","test_block","poldrack-single-stim","349","527627","0.0-5.0-335.0","go-nogo","false","0","","true","<div class = centerbox><div  id = stim2></div></div>","32","32","750","","test","go","335","random","","",""
"","358","32","1490","0","test_block","poldrack-single-stim","350","529216","0.0-5.0-336.0","go-nogo","false","0","","true","<div class = centerbox><div  id = stim2></div></div>","32","32","750","","test","go","336","random","","",""
"","-1","-1","1128","0","test_block","poldrack-single-stim","351","530403","0.0-5.0-337.0","go-nogo","false","0","","true","<div class = centerbox><div  id = stim1></div></div>","-1","32","750","","test","nogo","337","random","","",""
"","356","32","1150","0","test_block","poldrack-single-stim","352","531788","0.0-5.0-338.0","go-nogo","false","0","","true","<div class = centerbox><div  id = stim2></div></div>","32","32","750","","test","go","338","random","","",""
"","283","32","1004","0","test_block","poldrack-single-stim","353","532906","0.0-5.0-339.0","go-nogo","false","0","","true","<div class = centerbox><div  id = stim2></div></div>","32","32","750","","test","go","339","random","","",""
"","408","32","1102","0","test_block","poldrack-single-stim","354","534315","0.0-5.0-340.0","go-nogo","false","0","","true","<div class = centerbox><div  id = stim2></div></div>","32","32","750","","test","go","340","random","","",""
"","381","32","1298","0","test_block","poldrack-single-stim","355","535688","0.0-5.0-341.0","go-nogo","false","0","","true","<div class = centerbox><div  id = stim2></div></div>","32","32","750","","test","go","341","random","","",""
"","351","32","1281","0","test_block","poldrack-single-stim","356","537068","0.0-5.0-342.0","go-nogo","false","0","","true","<div class = centerbox><div  id = stim2></div></div>","32","32","750","","test","go","342","random","","",""
"","349","32","1416","0","test_block","poldrack-single-stim","357","538552","0.0-5.0-343.0","go-nogo","false","0","","true","<div class = centerbox><div  id = stim2></div></div>","32","32","750","","test","go","343","random","","",""
"","389","32","1310","0","test_block","poldrack-single-stim","358","539923","0.0-5.0-344.0","go-nogo","false","0","","true","<div class = centerbox><div  id = stim2></div></div>","32","32","750","","test","go","344","random","","",""
"","383","32","1214","0","test_block","poldrack-single-stim","359","541211","0.0-5.0-345.0","go-nogo","false","0","","true","<div class = centerbox><div  id = stim2></div></div>","32","32","750","","test","go","345","random","","",""
"","-1","-1","1248","0","test_block","poldrack-single-stim","360","542539","0.0-5.0-346.0","go-nogo","false","0","","true","<div class = centerbox><div  id = stim1></div></div>","-1","32","750","","test","nogo","346","random","","",""
"","302","32","1177","0","test_block","poldrack-single-stim","361","543783","0.0-5.0-347.0","go-nogo","false","0","","true","<div class = centerbox><div  id = stim2></div></div>","32","32","750","","test","go","347","random","","",""
"","345","32","1414","0","test_block","poldrack-single-stim","362","545256","0.0-5.0-348.0","go-nogo","false","0","","true","<div class = centerbox><div  id = stim2></div></div>","32","32","750","","test","go","348","random","","",""
"","394","32","1138","0","test_block","poldrack-single-stim","363","546476","0.0-5.0-349.0","go-nogo","false","0","","true","<div class = centerbox><div  id = stim2></div></div>","32","32","750","","test","go","349","random","","",""
"","23756","","","","post task questions","survey-text","364","570301","0.0-7.0","go-nogo","false","0","","","","","","","","","","","","{""Q0"":""press on space bar when i saw a blue square and ignore any orange squares."",""Q1"":""""}","",""
"<div class = centerbox><p class = center-block-text>Thanks for completing this task!</p><p class = center-block-text>Insert the following code to collect your payment at Amazon Mechanical Turk:</p><p class = center-block-text>124985317</p><p class = center-block-text>Press <strong>enter</strong> to continue.</p></div>","-1","-1","180000","0","end","poldrack-text","365","751645","0.0-8.0","go-nogo","true","1","","","","","","","","","","","","","124985317","true"
