"text","rt","key_press","block_duration","timing_post_trial","trial_id","trial_type","trial_index","time_elapsed","internal_node_id","exp_id","full_screen","focus_shifts","view_history","correct","stimulus","correct_response","possible_responses","stim_duration","feedback_duration","exp_stage","condition","trial_num","mode","responses","payment_id","credit_var"
"<div class = centerbox><p class = center-block-text>Welcome to the experiment. This task will take around 10 minutes. Press <strong>enter</strong> to begin.</p></div>","5008","13","5008","0","instruction","poldrack-text","0","5010","0.0-0.0-0.0","go-nogo","true","0","","","","","","","","","","","","","",""
"","13142","","","","instruction","poldrack-instructions","1","18152","0.0-0.0-1.0","go-nogo","true","0","[{""page_index"":0,""viewing_time"":13141}]","","","","","","","","","","","","",""
"","-1","-1","1131","250","practice","poldrack-categorize","2","21476","0.0-1.0-0.0","go-nogo","true","0","","true","<div class = centerbox><div id = stim2></div></div>","-1","32","750","1000","practice","nogo","0","random","","",""
"","-1","-1","1136","250","practice","poldrack-categorize","3","24075","0.0-1.0-1.0","go-nogo","true","0","","true","<div class = centerbox><div id = stim2></div></div>","-1","32","750","1000","practice","nogo","1","random","","",""
"","625","32","1187","250","practice","poldrack-categorize","4","26962","0.0-1.0-2.0","go-nogo","true","0","","true","<div class = centerbox><div  id = stim1></div></div>","32","32","750","1000","practice","go","2","random","","",""
"","903","32","1057","250","practice","poldrack-categorize","5","29906","0.0-1.0-3.0","go-nogo","true","0","","true","<div class = centerbox><div  id = stim1></div></div>","32","32","750","1000","practice","go","3","random","","",""
"","806","32","1498","250","practice","poldrack-categorize","6","33034","0.0-1.0-4.0","go-nogo","true","0","","true","<div class = centerbox><div  id = stim1></div></div>","32","32","750","1000","practice","go","4","random","","",""
"","-1","-1","1408","250","practice","poldrack-categorize","7","35858","0.0-1.0-5.0","go-nogo","true","0","","true","<div class = centerbox><div id = stim2></div></div>","-1","32","750","1000","practice","nogo","5","random","","",""
"","-1","-1","1496","250","practice","poldrack-categorize","8","38761","0.0-1.0-6.0","go-nogo","true","0","","true","<div class = centerbox><div id = stim2></div></div>","-1","32","750","1000","practice","nogo","6","random","","",""
"","-1","-1","1232","250","practice","poldrack-categorize","9","41419","0.0-1.0-7.0","go-nogo","true","0","","true","<div class = centerbox><div id = stim2></div></div>","-1","32","750","1000","practice","nogo","7","random","","",""
"","815","32","1243","250","practice","poldrack-categorize","10","43925","0.0-1.0-8.0","go-nogo","true","0","","true","<div class = centerbox><div  id = stim1></div></div>","32","32","750","1000","practice","go","8","random","","",""
"","923","32","1439","250","practice","poldrack-categorize","11","46861","0.0-1.0-9.0","go-nogo","true","0","","true","<div class = centerbox><div  id = stim1></div></div>","32","32","750","1000","practice","go","9","random","","",""
"","","","","","reset_trial","call-function","12","47160","0.0-3.0","go-nogo","true","0","","","","","","","","","","","","","",""
"<div class = centerbox><p class = block-text>Practice is over, we will now begin the experiment. You will no longer get feedback about your responses.</p><p class = block-text>Remember, if you see the <font color=""orange"">orange</font> square you should <strong> respond by pressing the spacebar as quickly as possible</strong>. If you see the <font color=""blue"">blue</font> square you should <strong> not respond</strong>. Press <strong>enter</strong> to begin.</p></div>","67097","13","67097","1000","test_intro","poldrack-text","13","114259","0.0-4.0","go-nogo","true","0","","","","","","","","","","","","","",""
"","-1","-1","1111","0","test_block","poldrack-single-stim","14","116655","0.0-5.0-0.0","go-nogo","true","0","","false","<div class = centerbox><div  id = stim1></div></div>","32","32","750","","test","go","0","random","","",""
"","234","32","1488","0","test_block","poldrack-single-stim","15","118299","0.0-5.0-1.0","go-nogo","true","0","","true","<div class = centerbox><div  id = stim1></div></div>","32","32","750","","test","go","1","random","","",""
"","5","32","1384","0","test_block","poldrack-single-stim","16","119706","0.0-5.0-2.0","go-nogo","true","0","","true","<div class = centerbox><div  id = stim1></div></div>","32","32","750","","test","go","2","random","","",""
"","644","32","1086","0","test_block","poldrack-single-stim","17","120950","0.0-5.0-3.0","go-nogo","true","0","","true","<div class = centerbox><div  id = stim1></div></div>","32","32","750","","test","go","3","random","","",""
"","837","32","1298","0","test_block","poldrack-single-stim","18","122361","0.0-5.0-4.0","go-nogo","true","0","","true","<div class = centerbox><div  id = stim1></div></div>","32","32","750","","test","go","4","random","","",""
"","-1","-1","1359","0","test_block","poldrack-single-stim","19","123883","0.0-5.0-5.0","go-nogo","true","0","","false","<div class = centerbox><div  id = stim1></div></div>","32","32","750","","test","go","5","random","","",""
"","475","32","1376","0","test_block","poldrack-single-stim","20","125309","0.0-5.0-6.0","go-nogo","true","0","","true","<div class = centerbox><div  id = stim1></div></div>","32","32","750","","test","go","6","random","","",""
"","1171","32","1151","0","test_block","poldrack-single-stim","21","126538","0.0-5.0-7.0","go-nogo","true","0","","true","<div class = centerbox><div  id = stim1></div></div>","32","32","750","","test","go","7","random","","",""
"","821","32","1167","0","test_block","poldrack-single-stim","22","127771","0.0-5.0-8.0","go-nogo","true","0","","true","<div class = centerbox><div  id = stim1></div></div>","32","32","750","","test","go","8","random","","",""
"","1027","32","1183","0","test_block","poldrack-single-stim","23","129122","0.0-5.0-9.0","go-nogo","true","0","","true","<div class = centerbox><div  id = stim1></div></div>","32","32","750","","test","go","9","random","","",""
"","-1","-1","1103","0","test_block","poldrack-single-stim","24","130392","0.0-5.0-10.0","go-nogo","true","0","","false","<div class = centerbox><div  id = stim1></div></div>","32","32","750","","test","go","10","random","","",""
"","459","32","1086","0","test_block","poldrack-single-stim","25","131641","0.0-5.0-11.0","go-nogo","true","0","","true","<div class = centerbox><div  id = stim1></div></div>","32","32","750","","test","go","11","random","","",""
"","1030","32","1181","0","test_block","poldrack-single-stim","26","132964","0.0-5.0-12.0","go-nogo","true","0","","true","<div class = centerbox><div  id = stim1></div></div>","32","32","750","","test","go","12","random","","",""
"","1240","32","1242","0","test_block","poldrack-single-stim","27","134218","0.0-5.0-13.0","go-nogo","true","0","","true","<div class = centerbox><div  id = stim1></div></div>","32","32","750","","test","go","13","random","","",""
"","1446","32","1448","0","test_block","poldrack-single-stim","28","135681","0.0-5.0-14.0","go-nogo","true","0","","true","<div class = centerbox><div  id = stim1></div></div>","32","32","750","","test","go","14","random","","",""
"","-1","-1","1397","0","test_block","poldrack-single-stim","29","137290","0.0-5.0-15.0","go-nogo","true","0","","false","<div class = centerbox><div  id = stim1></div></div>","32","32","750","","test","go","15","random","","",""
"","208","32","1235","0","test_block","poldrack-single-stim","30","138592","0.0-5.0-16.0","go-nogo","true","0","","true","<div class = centerbox><div  id = stim1></div></div>","32","32","750","","test","go","16","random","","",""
"","159","32","1186","0","test_block","poldrack-single-stim","31","139962","0.0-5.0-17.0","go-nogo","true","0","","true","<div class = centerbox><div  id = stim1></div></div>","32","32","750","","test","go","17","random","","",""
"","340","32","1033","0","test_block","poldrack-single-stim","32","141221","0.0-5.0-18.0","go-nogo","true","0","","true","<div class = centerbox><div  id = stim1></div></div>","32","32","750","","test","go","18","random","","",""
"","451","32","1204","0","test_block","poldrack-single-stim","33","142632","0.0-5.0-19.0","go-nogo","true","0","","false","<div class = centerbox><div  id = stim2></div></div>","-1","32","750","","test","nogo","19","random","","",""
"","440","32","1167","0","test_block","poldrack-single-stim","34","143862","0.0-5.0-20.0","go-nogo","true","0","","true","<div class = centerbox><div  id = stim1></div></div>","32","32","750","","test","go","20","random","","",""
"","740","32","1080","0","test_block","poldrack-single-stim","35","145156","0.0-5.0-21.0","go-nogo","true","0","","true","<div class = centerbox><div  id = stim1></div></div>","32","32","750","","test","go","21","random","","",""
"","-1","-1","1105","0","test_block","poldrack-single-stim","36","146325","0.0-5.0-22.0","go-nogo","true","0","","false","<div class = centerbox><div  id = stim1></div></div>","32","32","750","","test","go","22","random","","",""
"","780","32","1065","0","test_block","poldrack-single-stim","37","147404","0.0-5.0-23.0","go-nogo","true","0","","true","<div class = centerbox><div  id = stim1></div></div>","32","32","750","","test","go","23","random","","",""
"","1147","32","1176","0","test_block","poldrack-single-stim","38","148863","0.0-5.0-24.0","go-nogo","true","0","","true","<div class = centerbox><div  id = stim1></div></div>","32","32","750","","test","go","24","random","","",""
"","860","32","1452","0","test_block","poldrack-single-stim","39","150363","0.0-5.0-25.0","go-nogo","true","0","","true","<div class = centerbox><div  id = stim1></div></div>","32","32","750","","test","go","25","random","","",""
"","1039","32","1143","0","test_block","poldrack-single-stim","40","151647","0.0-5.0-26.0","go-nogo","true","0","","true","<div class = centerbox><div  id = stim1></div></div>","32","32","750","","test","go","26","random","","",""
"","916","32","1368","0","test_block","poldrack-single-stim","41","153079","0.0-5.0-27.0","go-nogo","true","0","","true","<div class = centerbox><div  id = stim1></div></div>","32","32","750","","test","go","27","random","","",""
"","212","32","1440","0","test_block","poldrack-single-stim","42","154644","0.0-5.0-28.0","go-nogo","true","0","","true","<div class = centerbox><div  id = stim1></div></div>","32","32","750","","test","go","28","random","","",""
"","-1","-1","1346","0","test_block","poldrack-single-stim","43","156164","0.0-5.0-29.0","go-nogo","true","0","","true","<div class = centerbox><div  id = stim2></div></div>","-1","32","750","","test","nogo","29","random","","",""
"","581","32","1354","0","test_block","poldrack-single-stim","44","157707","0.0-5.0-30.0","go-nogo","true","0","","true","<div class = centerbox><div  id = stim1></div></div>","32","32","750","","test","go","30","random","","",""
"","-1","-1","1203","0","test_block","poldrack-single-stim","45","159077","0.0-5.0-31.0","go-nogo","true","0","","false","<div class = centerbox><div  id = stim1></div></div>","32","32","750","","test","go","31","random","","",""
"","495","32","1274","0","test_block","poldrack-single-stim","46","160457","0.0-5.0-32.0","go-nogo","true","0","","true","<div class = centerbox><div  id = stim1></div></div>","32","32","750","","test","go","32","random","","",""
"","750","32","1098","0","test_block","poldrack-single-stim","47","161806","0.0-5.0-33.0","go-nogo","true","0","","true","<div class = centerbox><div  id = stim1></div></div>","32","32","750","","test","go","33","random","","",""
"","833","32","1137","0","test_block","poldrack-single-stim","48","163005","0.0-5.0-34.0","go-nogo","true","0","","true","<div class = centerbox><div  id = stim1></div></div>","32","32","750","","test","go","34","random","","",""
"","1163","32","1281","0","test_block","poldrack-single-stim","49","164406","0.0-5.0-35.0","go-nogo","true","0","","true","<div class = centerbox><div  id = stim1></div></div>","32","32","750","","test","go","35","random","","",""
"","-1","-1","1277","0","test_block","poldrack-single-stim","50","165866","0.0-5.0-36.0","go-nogo","true","0","","false","<div class = centerbox><div  id = stim1></div></div>","32","32","750","","test","go","36","random","","",""
"","1224","32","1210","0","test_block","poldrack-single-stim","51","167107","0.0-5.0-37.0","go-nogo","true","0","","true","<div class = centerbox><div  id = stim1></div></div>","32","32","750","","test","go","37","random","","",""
"","-1","-1","1459","0","test_block","poldrack-single-stim","52","168695","0.0-5.0-38.0","go-nogo","true","0","","false","<div class = centerbox><div  id = stim1></div></div>","32","32","750","","test","go","38","random","","",""
"","681","32","1128","0","test_block","poldrack-single-stim","53","170188","0.0-5.0-39.0","go-nogo","true","0","","true","<div class = centerbox><div  id = stim1></div></div>","32","32","750","","test","go","39","random","","",""
"","-1","-1","1126","0","test_block","poldrack-single-stim","54","171388","0.0-5.0-40.0","go-nogo","true","0","","false","<div class = centerbox><div  id = stim1></div></div>","32","32","750","","test","go","40","random","","",""
"","1529","32","1499","0","test_block","poldrack-single-stim","55","172940","0.0-5.0-41.0","go-nogo","true","0","","false","<div class = centerbox><div  id = stim2></div></div>","-1","32","750","","test","nogo","41","random","","",""
"","-1","-1","1223","0","test_block","poldrack-single-stim","56","174203","0.0-5.0-42.0","go-nogo","true","0","","false","<div class = centerbox><div  id = stim1></div></div>","32","32","750","","test","go","42","random","","",""
"","1531","32","1368","0","test_block","poldrack-single-stim","57","175770","0.0-5.0-43.0","go-nogo","true","0","","false","<div class = centerbox><div  id = stim2></div></div>","-1","32","750","","test","nogo","43","random","","",""
"","1083","32","1396","0","test_block","poldrack-single-stim","58","177448","0.0-5.0-44.0","go-nogo","true","0","","true","<div class = centerbox><div  id = stim1></div></div>","32","32","750","","test","go","44","random","","",""
"","-1","-1","1033","0","test_block","poldrack-single-stim","59","178679","0.0-5.0-45.0","go-nogo","true","0","","false","<div class = centerbox><div  id = stim1></div></div>","32","32","750","","test","go","45","random","","",""
"","607","32","1016","0","test_block","poldrack-single-stim","60","179787","0.0-5.0-46.0","go-nogo","true","0","","true","<div class = centerbox><div  id = stim1></div></div>","32","32","750","","test","go","46","random","","",""
"","-1","-1","1154","0","test_block","poldrack-single-stim","61","181098","0.0-5.0-47.0","go-nogo","true","0","","false","<div class = centerbox><div  id = stim1></div></div>","32","32","750","","test","go","47","random","","",""
"","211","32","1218","0","test_block","poldrack-single-stim","62","182370","0.0-5.0-48.0","go-nogo","true","0","","true","<div class = centerbox><div  id = stim1></div></div>","32","32","750","","test","go","48","random","","",""
"","-1","-1","1271","0","test_block","poldrack-single-stim","63","183848","0.0-5.0-49.0","go-nogo","true","0","","true","<div class = centerbox><div  id = stim2></div></div>","-1","32","750","","test","nogo","49","random","","",""
"","707","32","1200","0","test_block","poldrack-single-stim","64","185288","0.0-5.0-50.0","go-nogo","true","0","","true","<div class = centerbox><div  id = stim1></div></div>","32","32","750","","test","go","50","random","","",""
"","-1","-1","1426","0","test_block","poldrack-single-stim","65","186783","0.0-5.0-51.0","go-nogo","true","0","","true","<div class = centerbox><div  id = stim2></div></div>","-1","32","750","","test","nogo","51","random","","",""
"","527","32","1255","0","test_block","poldrack-single-stim","66","188169","0.0-5.0-52.0","go-nogo","true","0","","true","<div class = centerbox><div  id = stim1></div></div>","32","32","750","","test","go","52","random","","",""
"","368","32","1295","0","test_block","poldrack-single-stim","67","189562","0.0-5.0-53.0","go-nogo","true","0","","true","<div class = centerbox><div  id = stim1></div></div>","32","32","750","","test","go","53","random","","",""
"","-1","-1","1122","0","test_block","poldrack-single-stim","68","190718","0.0-5.0-54.0","go-nogo","true","0","","false","<div class = centerbox><div  id = stim1></div></div>","32","32","750","","test","go","54","random","","",""
"","1002","32","1225","0","test_block","poldrack-single-stim","69","191953","0.0-5.0-55.0","go-nogo","true","0","","true","<div class = centerbox><div  id = stim1></div></div>","32","32","750","","test","go","55","random","","",""
"","715","32","1473","0","test_block","poldrack-single-stim","70","193627","0.0-5.0-56.0","go-nogo","true","0","","true","<div class = centerbox><div  id = stim1></div></div>","32","32","750","","test","go","56","random","","",""
"","1063","32","1293","0","test_block","poldrack-single-stim","71","194943","0.0-5.0-57.0","go-nogo","true","0","","true","<div class = centerbox><div  id = stim1></div></div>","32","32","750","","test","go","57","random","","",""
"","514","32","1080","0","test_block","poldrack-single-stim","72","196284","0.0-5.0-58.0","go-nogo","true","0","","true","<div class = centerbox><div  id = stim1></div></div>","32","32","750","","test","go","58","random","","",""
"","698","32","1267","0","test_block","poldrack-single-stim","73","197613","0.0-5.0-59.0","go-nogo","true","0","","false","<div class = centerbox><div  id = stim2></div></div>","-1","32","750","","test","nogo","59","random","","",""
"","-1","-1","1340","0","test_block","poldrack-single-stim","74","198993","0.0-5.0-60.0","go-nogo","true","0","","false","<div class = centerbox><div  id = stim1></div></div>","32","32","750","","test","go","60","random","","",""
"","816","32","1050","0","test_block","poldrack-single-stim","75","200258","0.0-5.0-61.0","go-nogo","true","0","","true","<div class = centerbox><div  id = stim1></div></div>","32","32","750","","test","go","61","random","","",""
"","-1","-1","1336","0","test_block","poldrack-single-stim","76","201830","0.0-5.0-62.0","go-nogo","true","0","","false","<div class = centerbox><div  id = stim1></div></div>","32","32","750","","test","go","62","random","","",""
"","1333","32","1238","0","test_block","poldrack-single-stim","77","203176","0.0-5.0-63.0","go-nogo","true","0","","true","<div class = centerbox><div  id = stim1></div></div>","32","32","750","","test","go","63","random","","",""
"","-1","-1","1273","0","test_block","poldrack-single-stim","78","204647","0.0-5.0-64.0","go-nogo","true","0","","false","<div class = centerbox><div  id = stim1></div></div>","32","32","750","","test","go","64","random","","",""
"","412","32","1220","0","test_block","poldrack-single-stim","79","205960","0.0-5.0-65.0","go-nogo","true","0","","true","<div class = centerbox><div  id = stim1></div></div>","32","32","750","","test","go","65","random","","",""
"","-1","-1","1456","0","test_block","poldrack-single-stim","80","207452","0.0-5.0-66.0","go-nogo","true","0","","false","<div class = centerbox><div  id = stim1></div></div>","32","32","750","","test","go","66","random","","",""
"","187","32","1050","0","test_block","poldrack-single-stim","81","208582","0.0-5.0-67.0","go-nogo","true","0","","true","<div class = centerbox><div  id = stim1></div></div>","32","32","750","","test","go","67","random","","",""
"","770","32","1392","0","test_block","poldrack-single-stim","82","210066","0.0-5.0-68.0","go-nogo","true","0","","true","<div class = centerbox><div  id = stim1></div></div>","32","32","750","","test","go","68","random","","",""
"","988","32","1454","0","test_block","poldrack-single-stim","83","211612","0.0-5.0-69.0","go-nogo","true","0","","true","<div class = centerbox><div  id = stim1></div></div>","32","32","750","","test","go","69","random","","",""
"","-1","-1","1236","0","test_block","poldrack-single-stim","84","212949","0.0-5.0-70.0","go-nogo","true","0","","false","<div class = centerbox><div  id = stim1></div></div>","32","32","750","","test","go","70","random","","",""
"","80","32","1443","0","test_block","poldrack-single-stim","85","214484","0.0-5.0-71.0","go-nogo","true","0","","true","<div class = centerbox><div  id = stim1></div></div>","32","32","750","","test","go","71","random","","",""
"","626","32","1424","0","test_block","poldrack-single-stim","86","215947","0.0-5.0-72.0","go-nogo","true","0","","true","<div class = centerbox><div  id = stim1></div></div>","32","32","750","","test","go","72","random","","",""
"","590","32","1294","0","test_block","poldrack-single-stim","87","217318","0.0-5.0-73.0","go-nogo","true","0","","true","<div class = centerbox><div  id = stim1></div></div>","32","32","750","","test","go","73","random","","",""
"","796","32","1001","0","test_block","poldrack-single-stim","88","218337","0.0-5.0-74.0","go-nogo","true","0","","true","<div class = centerbox><div  id = stim1></div></div>","32","32","750","","test","go","74","random","","",""
"","1106","32","1073","0","test_block","poldrack-single-stim","89","219454","0.0-5.0-75.0","go-nogo","true","0","","true","<div class = centerbox><div  id = stim1></div></div>","32","32","750","","test","go","75","random","","",""
"","-1","-1","1027","0","test_block","poldrack-single-stim","90","220679","0.0-5.0-76.0","go-nogo","true","0","","false","<div class = centerbox><div  id = stim1></div></div>","32","32","750","","test","go","76","random","","",""
"","7","32","1281","0","test_block","poldrack-single-stim","91","222007","0.0-5.0-77.0","go-nogo","true","0","","true","<div class = centerbox><div  id = stim1></div></div>","32","32","750","","test","go","77","random","","",""
"","-1","-1","1280","0","test_block","poldrack-single-stim","92","223295","0.0-5.0-78.0","go-nogo","true","0","","false","<div class = centerbox><div  id = stim1></div></div>","32","32","750","","test","go","78","random","","",""
"","404","32","1297","0","test_block","poldrack-single-stim","93","224699","0.0-5.0-79.0","go-nogo","true","0","","true","<div class = centerbox><div  id = stim1></div></div>","32","32","750","","test","go","79","random","","",""
"","545","32","1164","0","test_block","poldrack-single-stim","94","225872","0.0-5.0-80.0","go-nogo","true","0","","false","<div class = centerbox><div  id = stim2></div></div>","-1","32","750","","test","nogo","80","random","","",""
"","1015","32","1118","0","test_block","poldrack-single-stim","95","227003","0.0-5.0-81.0","go-nogo","true","0","","true","<div class = centerbox><div  id = stim1></div></div>","32","32","750","","test","go","81","random","","",""
"","722","32","1288","0","test_block","poldrack-single-stim","96","228394","0.0-5.0-82.0","go-nogo","true","0","","true","<div class = centerbox><div  id = stim1></div></div>","32","32","750","","test","go","82","random","","",""
"","617","32","1051","0","test_block","poldrack-single-stim","97","229574","0.0-5.0-83.0","go-nogo","true","0","","true","<div class = centerbox><div  id = stim1></div></div>","32","32","750","","test","go","83","random","","",""
"","695","32","1259","0","test_block","poldrack-single-stim","98","230975","0.0-5.0-84.0","go-nogo","true","0","","true","<div class = centerbox><div  id = stim1></div></div>","32","32","750","","test","go","84","random","","",""
"","795","32","1328","0","test_block","poldrack-single-stim","99","232367","0.0-5.0-85.0","go-nogo","true","0","","true","<div class = centerbox><div  id = stim1></div></div>","32","32","750","","test","go","85","random","","",""
"","825","32","1182","0","test_block","poldrack-single-stim","100","233811","0.0-5.0-86.0","go-nogo","true","0","","true","<div class = centerbox><div  id = stim1></div></div>","32","32","750","","test","go","86","random","","",""
"","1153","32","1154","0","test_block","poldrack-single-stim","101","235162","0.0-5.0-87.0","go-nogo","true","0","","false","<div class = centerbox><div  id = stim2></div></div>","-1","32","750","","test","nogo","87","random","","",""
"","1315","32","1440","0","test_block","poldrack-single-stim","102","236699","0.0-5.0-88.0","go-nogo","true","0","","false","<div class = centerbox><div  id = stim2></div></div>","-1","32","750","","test","nogo","88","random","","",""
"","697","32","1451","0","test_block","poldrack-single-stim","103","238163","0.0-5.0-89.0","go-nogo","true","0","","true","<div class = centerbox><div  id = stim1></div></div>","32","32","750","","test","go","89","random","","",""
"","691","32","1337","0","test_block","poldrack-single-stim","104","239529","0.0-5.0-90.0","go-nogo","true","0","","true","<div class = centerbox><div  id = stim1></div></div>","32","32","750","","test","go","90","random","","",""
"","749","32","1289","0","test_block","poldrack-single-stim","105","240904","0.0-5.0-91.0","go-nogo","true","0","","true","<div class = centerbox><div  id = stim1></div></div>","32","32","750","","test","go","91","random","","",""
"","-1","-1","1338","0","test_block","poldrack-single-stim","106","242252","0.0-5.0-92.0","go-nogo","true","0","","true","<div class = centerbox><div  id = stim2></div></div>","-1","32","750","","test","nogo","92","random","","",""
"","1013","32","1424","0","test_block","poldrack-single-stim","107","243687","0.0-5.0-93.0","go-nogo","true","0","","true","<div class = centerbox><div  id = stim1></div></div>","32","32","750","","test","go","93","random","","",""
"","1023","32","1392","0","test_block","poldrack-single-stim","108","245229","0.0-5.0-94.0","go-nogo","true","0","","true","<div class = centerbox><div  id = stim1></div></div>","32","32","750","","test","go","94","random","","",""
"","-1","-1","1255","0","test_block","poldrack-single-stim","109","246518","0.0-5.0-95.0","go-nogo","true","0","","true","<div class = centerbox><div  id = stim2></div></div>","-1","32","750","","test","nogo","95","random","","",""
"","153","32","1473","0","test_block","poldrack-single-stim","110","248010","0.0-5.0-96.0","go-nogo","true","0","","true","<div class = centerbox><div  id = stim1></div></div>","32","32","750","","test","go","96","random","","",""
"","261","32","1068","0","test_block","poldrack-single-stim","111","249253","0.0-5.0-97.0","go-nogo","true","0","","true","<div class = centerbox><div  id = stim1></div></div>","32","32","750","","test","go","97","random","","",""
"","5","32","1077","0","test_block","poldrack-single-stim","112","250343","0.0-5.0-98.0","go-nogo","true","0","","true","<div class = centerbox><div  id = stim1></div></div>","32","32","750","","test","go","98","random","","",""
"","1004","32","1351","0","test_block","poldrack-single-stim","113","251871","0.0-5.0-99.0","go-nogo","true","0","","true","<div class = centerbox><div  id = stim1></div></div>","32","32","750","","test","go","99","random","","",""
"","634","32","1440","0","test_block","poldrack-single-stim","114","253413","0.0-5.0-100.0","go-nogo","true","0","","true","<div class = centerbox><div  id = stim1></div></div>","32","32","750","","test","go","100","random","","",""
"","1287","32","1315","0","test_block","poldrack-single-stim","115","254951","0.0-5.0-101.0","go-nogo","true","0","","true","<div class = centerbox><div  id = stim1></div></div>","32","32","750","","test","go","101","random","","",""
"","-1","-1","1163","0","test_block","poldrack-single-stim","116","256163","0.0-5.0-102.0","go-nogo","true","0","","false","<div class = centerbox><div  id = stim1></div></div>","32","32","750","","test","go","102","random","","",""
"","-1","-1","1072","0","test_block","poldrack-single-stim","117","257387","0.0-5.0-103.0","go-nogo","true","0","","false","<div class = centerbox><div  id = stim1></div></div>","32","32","750","","test","go","103","random","","",""
"","315","32","1202","0","test_block","poldrack-single-stim","118","258613","0.0-5.0-104.0","go-nogo","true","0","","true","<div class = centerbox><div  id = stim1></div></div>","32","32","750","","test","go","104","random","","",""
"","554","32","1237","0","test_block","poldrack-single-stim","119","260050","0.0-5.0-105.0","go-nogo","true","0","","false","<div class = centerbox><div  id = stim2></div></div>","-1","32","750","","test","nogo","105","random","","",""
"","-1","-1","1035","0","test_block","poldrack-single-stim","120","261226","0.0-5.0-106.0","go-nogo","true","0","","true","<div class = centerbox><div  id = stim2></div></div>","-1","32","750","","test","nogo","106","random","","",""
"","-1","-1","1440","0","test_block","poldrack-single-stim","121","262714","0.0-5.0-107.0","go-nogo","true","0","","false","<div class = centerbox><div  id = stim1></div></div>","32","32","750","","test","go","107","random","","",""
"","-1","-1","1025","0","test_block","poldrack-single-stim","122","263748","0.0-5.0-108.0","go-nogo","true","0","","true","<div class = centerbox><div  id = stim2></div></div>","-1","32","750","","test","nogo","108","random","","",""
"","-1","-1","1323","0","test_block","poldrack-single-stim","123","265094","0.0-5.0-109.0","go-nogo","true","0","","false","<div class = centerbox><div  id = stim1></div></div>","32","32","750","","test","go","109","random","","",""
"","362","32","1175","0","test_block","poldrack-single-stim","124","266359","0.0-5.0-110.0","go-nogo","true","0","","true","<div class = centerbox><div  id = stim1></div></div>","32","32","750","","test","go","110","random","","",""
"","-1","-1","1273","0","test_block","poldrack-single-stim","125","267773","0.0-5.0-111.0","go-nogo","true","0","","false","<div class = centerbox><div  id = stim1></div></div>","32","32","750","","test","go","111","random","","",""
"","-1","-1","1215","0","test_block","poldrack-single-stim","126","268998","0.0-5.0-112.0","go-nogo","true","0","","false","<div class = centerbox><div  id = stim1></div></div>","32","32","750","","test","go","112","random","","",""
"","394","32","1434","0","test_block","poldrack-single-stim","127","270521","0.0-5.0-113.0","go-nogo","true","0","","false","<div class = centerbox><div  id = stim2></div></div>","-1","32","750","","test","nogo","113","random","","",""
"","527","32","1101","0","test_block","poldrack-single-stim","128","271682","0.0-5.0-114.0","go-nogo","true","0","","true","<div class = centerbox><div  id = stim1></div></div>","32","32","750","","test","go","114","random","","",""
"","240","32","1224","0","test_block","poldrack-single-stim","129","272915","0.0-5.0-115.0","go-nogo","true","0","","true","<div class = centerbox><div  id = stim1></div></div>","32","32","750","","test","go","115","random","","",""
"","620","32","1394","0","test_block","poldrack-single-stim","130","274373","0.0-5.0-116.0","go-nogo","true","0","","true","<div class = centerbox><div  id = stim1></div></div>","32","32","750","","test","go","116","random","","",""
"","925","32","1206","0","test_block","poldrack-single-stim","131","275724","0.0-5.0-117.0","go-nogo","true","0","","true","<div class = centerbox><div  id = stim1></div></div>","32","32","750","","test","go","117","random","","",""
"","667","32","1458","0","test_block","poldrack-single-stim","132","277329","0.0-5.0-118.0","go-nogo","true","0","","true","<div class = centerbox><div  id = stim1></div></div>","32","32","750","","test","go","118","random","","",""
"","324","32","1045","0","test_block","poldrack-single-stim","133","278440","0.0-5.0-119.0","go-nogo","true","0","","true","<div class = centerbox><div  id = stim1></div></div>","32","32","750","","test","go","119","random","","",""
"","815","32","1336","0","test_block","poldrack-single-stim","134","280023","0.0-5.0-120.0","go-nogo","true","0","","true","<div class = centerbox><div  id = stim1></div></div>","32","32","750","","test","go","120","random","","",""
"","-1","-1","1111","0","test_block","poldrack-single-stim","135","281188","0.0-5.0-121.0","go-nogo","true","0","","false","<div class = centerbox><div  id = stim1></div></div>","32","32","750","","test","go","121","random","","",""
"","287","32","1153","0","test_block","poldrack-single-stim","136","282452","0.0-5.0-122.0","go-nogo","true","0","","true","<div class = centerbox><div  id = stim1></div></div>","32","32","750","","test","go","122","random","","",""
"","321","32","1077","0","test_block","poldrack-single-stim","137","283559","0.0-5.0-123.0","go-nogo","true","0","","true","<div class = centerbox><div  id = stim1></div></div>","32","32","750","","test","go","123","random","","",""
"","-1","-1","1246","0","test_block","poldrack-single-stim","138","284931","0.0-5.0-124.0","go-nogo","true","0","","false","<div class = centerbox><div  id = stim1></div></div>","32","32","750","","test","go","124","random","","",""
"","-1","-1","1322","0","test_block","poldrack-single-stim","139","286347","0.0-5.0-125.0","go-nogo","true","0","","false","<div class = centerbox><div  id = stim1></div></div>","32","32","750","","test","go","125","random","","",""
"","-1","-1","1193","0","test_block","poldrack-single-stim","140","287720","0.0-5.0-126.0","go-nogo","true","0","","false","<div class = centerbox><div  id = stim1></div></div>","32","32","750","","test","go","126","random","","",""
"","-1","-1","1330","0","test_block","poldrack-single-stim","141","289160","0.0-5.0-127.0","go-nogo","true","0","","false","<div class = centerbox><div  id = stim1></div></div>","32","32","750","","test","go","127","random","","",""
"","-1","-1","1296","0","test_block","poldrack-single-stim","142","290493","0.0-5.0-128.0","go-nogo","true","0","","false","<div class = centerbox><div  id = stim1></div></div>","32","32","750","","test","go","128","random","","",""
"","-1","-1","1013","0","test_block","poldrack-single-stim","143","291772","0.0-5.0-129.0","go-nogo","true","0","","false","<div class = centerbox><div  id = stim1></div></div>","32","32","750","","test","go","129","random","","",""
"","1027","32","1264","0","test_block","poldrack-single-stim","144","293099","0.0-5.0-130.0","go-nogo","true","0","","true","<div class = centerbox><div  id = stim1></div></div>","32","32","750","","test","go","130","random","","",""
"","-1","-1","1136","0","test_block","poldrack-single-stim","145","294307","0.0-5.0-131.0","go-nogo","true","0","","false","<div class = centerbox><div  id = stim1></div></div>","32","32","750","","test","go","131","random","","",""
"","281","32","1109","0","test_block","poldrack-single-stim","146","295444","0.0-5.0-132.0","go-nogo","true","0","","true","<div class = centerbox><div  id = stim1></div></div>","32","32","750","","test","go","132","random","","",""
"","1423","32","1473","0","test_block","poldrack-single-stim","147","297014","0.0-5.0-133.0","go-nogo","true","0","","true","<div class = centerbox><div  id = stim1></div></div>","32","32","750","","test","go","133","random","","",""
"","-1","-1","1192","0","test_block","poldrack-single-stim","148","298250","0.0-5.0-134.0","go-nogo","true","0","","false","<div class = centerbox><div  id = stim1></div></div>","32","32","750","","test","go","134","random","","",""
"","-1","-1","1346","0","test_block","poldrack-single-stim","149","299642","0.0-5.0-135.0","go-nogo","true","0","","false","<div class = centerbox><div  id = stim1></div></div>","32","32","750","","test","go","135","random","","",""
"","-1","-1","1324","0","test_block","poldrack-single-stim","150","301262","0.0-5.0-136.0","go-nogo","true","0","","false","<div class = centerbox><div  id = stim1></div></div>","32","32","750","","test","go","136","random","","",""
"","-1","-1","1151","0","test_block","poldrack-single-stim","151","302542","0.0-5.0-137.0","go-nogo","true","0","","false","<div class = centerbox><div  id = stim1></div></div>","32","32","750","","test","go","137","random","","",""
"","-1","-1","1098","0","test_block","poldrack-single-stim","152","303690","0.0-5.0-138.0","go-nogo","true","0","","true","<div class = centerbox><div  id = stim2></div></div>","-1","32","750","","test","nogo","138","random","","",""
"","332","32","1379","0","test_block","poldrack-single-stim","153","305094","0.0-5.0-139.0","go-nogo","true","0","","true","<div class = centerbox><div  id = stim1></div></div>","32","32","750","","test","go","139","random","","",""
"","-1","-1","1486","0","test_block","poldrack-single-stim","154","306644","0.0-5.0-140.0","go-nogo","true","0","","false","<div class = centerbox><div  id = stim1></div></div>","32","32","750","","test","go","140","random","","",""
"","-1","-1","1125","0","test_block","poldrack-single-stim","155","307824","0.0-5.0-141.0","go-nogo","true","0","","false","<div class = centerbox><div  id = stim1></div></div>","32","32","750","","test","go","141","random","","",""
"","-1","-1","1223","0","test_block","poldrack-single-stim","156","309224","0.0-5.0-142.0","go-nogo","true","0","","false","<div class = centerbox><div  id = stim1></div></div>","32","32","750","","test","go","142","random","","",""
"","610","32","1144","0","test_block","poldrack-single-stim","157","310605","0.0-5.0-143.0","go-nogo","true","0","","true","<div class = centerbox><div  id = stim1></div></div>","32","32","750","","test","go","143","random","","",""
"","-1","-1","1202","0","test_block","poldrack-single-stim","158","311952","0.0-5.0-144.0","go-nogo","true","0","","false","<div class = centerbox><div  id = stim1></div></div>","32","32","750","","test","go","144","random","","",""
"","-1","-1","1373","0","test_block","poldrack-single-stim","159","313525","0.0-5.0-145.0","go-nogo","true","0","","false","<div class = centerbox><div  id = stim1></div></div>","32","32","750","","test","go","145","random","","",""
"","-1","-1","1334","0","test_block","poldrack-single-stim","160","315146","0.0-5.0-146.0","go-nogo","true","0","","false","<div class = centerbox><div  id = stim1></div></div>","32","32","750","","test","go","146","random","","",""
"","435","32","1097","0","test_block","poldrack-single-stim","161","316420","0.0-5.0-147.0","go-nogo","true","0","","true","<div class = centerbox><div  id = stim1></div></div>","32","32","750","","test","go","147","random","","",""
"","1151","32","1278","0","test_block","poldrack-single-stim","162","317755","0.0-5.0-148.0","go-nogo","true","0","","true","<div class = centerbox><div  id = stim1></div></div>","32","32","750","","test","go","148","random","","",""
"","-1","-1","1004","0","test_block","poldrack-single-stim","163","318811","0.0-5.0-149.0","go-nogo","true","0","","false","<div class = centerbox><div  id = stim1></div></div>","32","32","750","","test","go","149","random","","",""
"","5","32","1231","0","test_block","poldrack-single-stim","164","320223","0.0-5.0-150.0","go-nogo","true","0","","true","<div class = centerbox><div  id = stim1></div></div>","32","32","750","","test","go","150","random","","",""
"","-1","-1","1284","0","test_block","poldrack-single-stim","165","321700","0.0-5.0-151.0","go-nogo","true","0","","false","<div class = centerbox><div  id = stim1></div></div>","32","32","750","","test","go","151","random","","",""
"","-1","-1","1387","0","test_block","poldrack-single-stim","166","323135","0.0-5.0-152.0","go-nogo","true","0","","true","<div class = centerbox><div  id = stim2></div></div>","-1","32","750","","test","nogo","152","random","","",""
"","-1","-1","1085","0","test_block","poldrack-single-stim","167","324506","0.0-5.0-153.0","go-nogo","true","0","","false","<div class = centerbox><div  id = stim1></div></div>","32","32","750","","test","go","153","random","","",""
"","441","32","1092","0","test_block","poldrack-single-stim","168","325703","0.0-5.0-154.0","go-nogo","true","0","","true","<div class = centerbox><div  id = stim1></div></div>","32","32","750","","test","go","154","random","","",""
"","-1","-1","1032","0","test_block","poldrack-single-stim","169","326999","0.0-5.0-155.0","go-nogo","true","0","","false","<div class = centerbox><div  id = stim1></div></div>","32","32","750","","test","go","155","random","","",""
"","600","32","1217","0","test_block","poldrack-single-stim","170","328237","0.0-5.0-156.0","go-nogo","true","0","","true","<div class = centerbox><div  id = stim1></div></div>","32","32","750","","test","go","156","random","","",""
"","942","32","1011","0","test_block","poldrack-single-stim","171","329260","0.0-5.0-157.0","go-nogo","true","0","","true","<div class = centerbox><div  id = stim1></div></div>","32","32","750","","test","go","157","random","","",""
"","876","32","1399","0","test_block","poldrack-single-stim","172","330719","0.0-5.0-158.0","go-nogo","true","0","","true","<div class = centerbox><div  id = stim1></div></div>","32","32","750","","test","go","158","random","","",""
"","-1","-1","1026","0","test_block","poldrack-single-stim","173","332023","0.0-5.0-159.0","go-nogo","true","0","","false","<div class = centerbox><div  id = stim1></div></div>","32","32","750","","test","go","159","random","","",""
"","216","32","1136","0","test_block","poldrack-single-stim","174","333265","0.0-5.0-160.0","go-nogo","true","0","","true","<div class = centerbox><div  id = stim1></div></div>","32","32","750","","test","go","160","random","","",""
"","1058","32","1107","0","test_block","poldrack-single-stim","175","334551","0.0-5.0-161.0","go-nogo","true","0","","true","<div class = centerbox><div  id = stim1></div></div>","32","32","750","","test","go","161","random","","",""
"","-1","-1","1278","0","test_block","poldrack-single-stim","176","336099","0.0-5.0-162.0","go-nogo","true","0","","false","<div class = centerbox><div  id = stim1></div></div>","32","32","750","","test","go","162","random","","",""
"","5","32","1122","0","test_block","poldrack-single-stim","177","337336","0.0-5.0-163.0","go-nogo","true","0","","true","<div class = centerbox><div  id = stim1></div></div>","32","32","750","","test","go","163","random","","",""
"","192","32","1462","0","test_block","poldrack-single-stim","178","338849","0.0-5.0-164.0","go-nogo","true","0","","true","<div class = centerbox><div  id = stim1></div></div>","32","32","750","","test","go","164","random","","",""
"","-1","-1","1031","0","test_block","poldrack-single-stim","179","340173","0.0-5.0-165.0","go-nogo","true","0","","false","<div class = centerbox><div  id = stim1></div></div>","32","32","750","","test","go","165","random","","",""
"","516","32","1259","0","test_block","poldrack-single-stim","180","341531","0.0-5.0-166.0","go-nogo","true","0","","true","<div class = centerbox><div  id = stim1></div></div>","32","32","750","","test","go","166","random","","",""
"","1005","32","1423","0","test_block","poldrack-single-stim","181","342972","0.0-5.0-167.0","go-nogo","true","0","","true","<div class = centerbox><div  id = stim1></div></div>","32","32","750","","test","go","167","random","","",""
"","-1","-1","1237","0","test_block","poldrack-single-stim","182","344346","0.0-5.0-168.0","go-nogo","true","0","","false","<div class = centerbox><div  id = stim1></div></div>","32","32","750","","test","go","168","random","","",""
"","391","32","1181","0","test_block","poldrack-single-stim","183","345557","0.0-5.0-169.0","go-nogo","true","0","","true","<div class = centerbox><div  id = stim1></div></div>","32","32","750","","test","go","169","random","","",""
"","-1","-1","1354","0","test_block","poldrack-single-stim","184","346954","0.0-5.0-170.0","go-nogo","true","0","","false","<div class = centerbox><div  id = stim1></div></div>","32","32","750","","test","go","170","random","","",""
"","493","32","1322","0","test_block","poldrack-single-stim","185","348567","0.0-5.0-171.0","go-nogo","true","0","","true","<div class = centerbox><div  id = stim1></div></div>","32","32","750","","test","go","171","random","","",""
"","-1","-1","1109","0","test_block","poldrack-single-stim","186","349855","0.0-5.0-172.0","go-nogo","true","0","","true","<div class = centerbox><div  id = stim2></div></div>","-1","32","750","","test","nogo","172","random","","",""
"","574","32","1230","0","test_block","poldrack-single-stim","187","351257","0.0-5.0-173.0","go-nogo","true","0","","true","<div class = centerbox><div  id = stim1></div></div>","32","32","750","","test","go","173","random","","",""
"","788","32","1126","0","test_block","poldrack-single-stim","188","352651","0.0-5.0-174.0","go-nogo","true","0","","true","<div class = centerbox><div  id = stim1></div></div>","32","32","750","","test","go","174","random","","",""
"","862","32","1454","0","test_block","poldrack-single-stim","189","354192","0.0-5.0-175.0","go-nogo","true","0","","true","<div class = centerbox><div  id = stim1></div></div>","32","32","750","","test","go","175","random","","",""
"","545","32","1489","0","test_block","poldrack-single-stim","190","355828","0.0-5.0-176.0","go-nogo","true","0","","true","<div class = centerbox><div  id = stim1></div></div>","32","32","750","","test","go","176","random","","",""
"","314","32","1485","0","test_block","poldrack-single-stim","191","357601","0.0-5.0-177.0","go-nogo","true","0","","true","<div class = centerbox><div  id = stim1></div></div>","32","32","750","","test","go","177","random","","",""
"","6","32","1160","0","test_block","poldrack-single-stim","192","358999","0.0-5.0-178.0","go-nogo","true","0","","true","<div class = centerbox><div  id = stim1></div></div>","32","32","750","","test","go","178","random","","",""
"","283","32","1242","0","test_block","poldrack-single-stim","193","360260","0.0-5.0-179.0","go-nogo","true","0","","false","<div class = centerbox><div  id = stim2></div></div>","-1","32","750","","test","nogo","179","random","","",""
"","-1","-1","1395","0","test_block","poldrack-single-stim","194","361785","0.0-5.0-180.0","go-nogo","true","0","","false","<div class = centerbox><div  id = stim1></div></div>","32","32","750","","test","go","180","random","","",""
"","-1","-1","1232","0","test_block","poldrack-single-stim","195","363077","0.0-5.0-181.0","go-nogo","true","0","","false","<div class = centerbox><div  id = stim1></div></div>","32","32","750","","test","go","181","random","","",""
"","11","32","1026","0","test_block","poldrack-single-stim","196","364210","0.0-5.0-182.0","go-nogo","true","0","","true","<div class = centerbox><div  id = stim1></div></div>","32","32","750","","test","go","182","random","","",""
"","-1","-1","1295","0","test_block","poldrack-single-stim","197","365583","0.0-5.0-183.0","go-nogo","true","0","","false","<div class = centerbox><div  id = stim1></div></div>","32","32","750","","test","go","183","random","","",""
"","896","32","1157","0","test_block","poldrack-single-stim","198","366965","0.0-5.0-184.0","go-nogo","true","0","","true","<div class = centerbox><div  id = stim1></div></div>","32","32","750","","test","go","184","random","","",""
"","584","32","1256","0","test_block","poldrack-single-stim","199","368331","0.0-5.0-185.0","go-nogo","true","0","","true","<div class = centerbox><div  id = stim1></div></div>","32","32","750","","test","go","185","random","","",""
"","1348","32","1379","0","test_block","poldrack-single-stim","200","369720","0.0-5.0-186.0","go-nogo","true","0","","true","<div class = centerbox><div  id = stim1></div></div>","32","32","750","","test","go","186","random","","",""
"","1092","32","1157","0","test_block","poldrack-single-stim","201","371073","0.0-5.0-187.0","go-nogo","true","0","","true","<div class = centerbox><div  id = stim1></div></div>","32","32","750","","test","go","187","random","","",""
"","1004","32","1405","0","test_block","poldrack-single-stim","202","372491","0.0-5.0-188.0","go-nogo","true","0","","true","<div class = centerbox><div  id = stim1></div></div>","32","32","750","","test","go","188","random","","",""
"","337","32","1200","0","test_block","poldrack-single-stim","203","373912","0.0-5.0-189.0","go-nogo","true","0","","true","<div class = centerbox><div  id = stim1></div></div>","32","32","750","","test","go","189","random","","",""
"","9","32","1440","0","test_block","poldrack-single-stim","204","375405","0.0-5.0-190.0","go-nogo","true","0","","true","<div class = centerbox><div  id = stim1></div></div>","32","32","750","","test","go","190","random","","",""
"","790","32","1271","0","test_block","poldrack-single-stim","205","376748","0.0-5.0-191.0","go-nogo","true","0","","true","<div class = centerbox><div  id = stim1></div></div>","32","32","750","","test","go","191","random","","",""
"","421","32","1432","0","test_block","poldrack-single-stim","206","378198","0.0-5.0-192.0","go-nogo","true","0","","true","<div class = centerbox><div  id = stim1></div></div>","32","32","750","","test","go","192","random","","",""
"","-1","-1","1152","0","test_block","poldrack-single-stim","207","379591","0.0-5.0-193.0","go-nogo","true","0","","false","<div class = centerbox><div  id = stim1></div></div>","32","32","750","","test","go","193","random","","",""
"","771","32","1399","0","test_block","poldrack-single-stim","208","380998","0.0-5.0-194.0","go-nogo","true","0","","true","<div class = centerbox><div  id = stim1></div></div>","32","32","750","","test","go","194","random","","",""
"","154","32","1202","0","test_block","poldrack-single-stim","209","382256","0.0-5.0-195.0","go-nogo","true","0","","true","<div class = centerbox><div  id = stim1></div></div>","32","32","750","","test","go","195","random","","",""
"","217","32","1451","0","test_block","poldrack-single-stim","210","383953","0.0-5.0-196.0","go-nogo","true","0","","true","<div class = centerbox><div  id = stim1></div></div>","32","32","750","","test","go","196","random","","",""
"","-1","-1","1445","0","test_block","poldrack-single-stim","211","385472","0.0-5.0-197.0","go-nogo","true","0","","false","<div class = centerbox><div  id = stim1></div></div>","32","32","750","","test","go","197","random","","",""
"","847","32","1246","0","test_block","poldrack-single-stim","212","386896","0.0-5.0-198.0","go-nogo","true","0","","true","<div class = centerbox><div  id = stim1></div></div>","32","32","750","","test","go","198","random","","",""
"","1061","32","1320","0","test_block","poldrack-single-stim","213","388238","0.0-5.0-199.0","go-nogo","true","0","","true","<div class = centerbox><div  id = stim1></div></div>","32","32","750","","test","go","199","random","","",""
"","934","32","1464","0","test_block","poldrack-single-stim","214","389893","0.0-5.0-200.0","go-nogo","true","0","","true","<div class = centerbox><div  id = stim1></div></div>","32","32","750","","test","go","200","random","","",""
"","748","32","1032","0","test_block","poldrack-single-stim","215","390938","0.0-5.0-201.0","go-nogo","true","0","","true","<div class = centerbox><div  id = stim1></div></div>","32","32","750","","test","go","201","random","","",""
"","1092","32","1258","0","test_block","poldrack-single-stim","216","392346","0.0-5.0-202.0","go-nogo","true","0","","false","<div class = centerbox><div  id = stim2></div></div>","-1","32","750","","test","nogo","202","random","","",""
"","312","32","1209","0","test_block","poldrack-single-stim","217","393625","0.0-5.0-203.0","go-nogo","true","0","","true","<div class = centerbox><div  id = stim1></div></div>","32","32","750","","test","go","203","random","","",""
"","-1","-1","1130","0","test_block","poldrack-single-stim","218","394819","0.0-5.0-204.0","go-nogo","true","0","","false","<div class = centerbox><div  id = stim1></div></div>","32","32","750","","test","go","204","random","","",""
"","655","32","1454","0","test_block","poldrack-single-stim","219","396406","0.0-5.0-205.0","go-nogo","true","0","","true","<div class = centerbox><div  id = stim1></div></div>","32","32","750","","test","go","205","random","","",""
"","664","32","1385","0","test_block","poldrack-single-stim","220","397962","0.0-5.0-206.0","go-nogo","true","0","","true","<div class = centerbox><div  id = stim1></div></div>","32","32","750","","test","go","206","random","","",""
"","422","32","1317","0","test_block","poldrack-single-stim","221","399479","0.0-5.0-207.0","go-nogo","true","0","","true","<div class = centerbox><div  id = stim1></div></div>","32","32","750","","test","go","207","random","","",""
"","435","32","1476","0","test_block","poldrack-single-stim","222","401084","0.0-5.0-208.0","go-nogo","true","0","","true","<div class = centerbox><div  id = stim1></div></div>","32","32","750","","test","go","208","random","","",""
"","-1","-1","1140","0","test_block","poldrack-single-stim","223","402281","0.0-5.0-209.0","go-nogo","true","0","","true","<div class = centerbox><div  id = stim2></div></div>","-1","32","750","","test","nogo","209","random","","",""
"","516","32","1288","0","test_block","poldrack-single-stim","224","403729","0.0-5.0-210.0","go-nogo","true","0","","true","<div class = centerbox><div  id = stim1></div></div>","32","32","750","","test","go","210","random","","",""
"","-1","-1","1161","0","test_block","poldrack-single-stim","225","404965","0.0-5.0-211.0","go-nogo","true","0","","false","<div class = centerbox><div  id = stim1></div></div>","32","32","750","","test","go","211","random","","",""
"","-1","-1","1331","0","test_block","poldrack-single-stim","226","406557","0.0-5.0-212.0","go-nogo","true","0","","false","<div class = centerbox><div  id = stim1></div></div>","32","32","750","","test","go","212","random","","",""
"","1107","32","1322","0","test_block","poldrack-single-stim","227","407989","0.0-5.0-213.0","go-nogo","true","0","","true","<div class = centerbox><div  id = stim1></div></div>","32","32","750","","test","go","213","random","","",""
"","-1","-1","1420","0","test_block","poldrack-single-stim","228","409473","0.0-5.0-214.0","go-nogo","true","0","","false","<div class = centerbox><div  id = stim1></div></div>","32","32","750","","test","go","214","random","","",""
"","370","32","1150","0","test_block","poldrack-single-stim","229","410656","0.0-5.0-215.0","go-nogo","true","0","","false","<div class = centerbox><div  id = stim2></div></div>","-1","32","750","","test","nogo","215","random","","",""
"","717","32","1325","0","test_block","poldrack-single-stim","230","411992","0.0-5.0-216.0","go-nogo","true","0","","true","<div class = centerbox><div  id = stim1></div></div>","32","32","750","","test","go","216","random","","",""
"","887","32","1080","0","test_block","poldrack-single-stim","231","413150","0.0-5.0-217.0","go-nogo","true","0","","false","<div class = centerbox><div  id = stim2></div></div>","-1","32","750","","test","nogo","217","random","","",""
"","854","32","1229","0","test_block","poldrack-single-stim","232","414646","0.0-5.0-218.0","go-nogo","true","0","","true","<div class = centerbox><div  id = stim1></div></div>","32","32","750","","test","go","218","random","","",""
"","-1","-1","1220","0","test_block","poldrack-single-stim","233","415895","0.0-5.0-219.0","go-nogo","true","0","","false","<div class = centerbox><div  id = stim1></div></div>","32","32","750","","test","go","219","random","","",""
"","-1","-1","1264","0","test_block","poldrack-single-stim","234","417303","0.0-5.0-220.0","go-nogo","true","0","","false","<div class = centerbox><div  id = stim1></div></div>","32","32","750","","test","go","220","random","","",""
"","113","32","1201","0","test_block","poldrack-single-stim","235","418591","0.0-5.0-221.0","go-nogo","true","0","","true","<div class = centerbox><div  id = stim1></div></div>","32","32","750","","test","go","221","random","","",""
"","738","32","1110","0","test_block","poldrack-single-stim","236","419720","0.0-5.0-222.0","go-nogo","true","0","","true","<div class = centerbox><div  id = stim1></div></div>","32","32","750","","test","go","222","random","","",""
"","649","32","1324","0","test_block","poldrack-single-stim","237","421173","0.0-5.0-223.0","go-nogo","true","0","","true","<div class = centerbox><div  id = stim1></div></div>","32","32","750","","test","go","223","random","","",""
"","749","32","1471","0","test_block","poldrack-single-stim","238","422649","0.0-5.0-224.0","go-nogo","true","0","","true","<div class = centerbox><div  id = stim1></div></div>","32","32","750","","test","go","224","random","","",""
"","-1","-1","1377","0","test_block","poldrack-single-stim","239","424282","0.0-5.0-225.0","go-nogo","true","0","","false","<div class = centerbox><div  id = stim1></div></div>","32","32","750","","test","go","225","random","","",""
"","287","32","1490","0","test_block","poldrack-single-stim","240","425945","0.0-5.0-226.0","go-nogo","true","0","","true","<div class = centerbox><div  id = stim1></div></div>","32","32","750","","test","go","226","random","","",""
"","241","32","1143","0","test_block","poldrack-single-stim","241","427254","0.0-5.0-227.0","go-nogo","true","0","","false","<div class = centerbox><div  id = stim2></div></div>","-1","32","750","","test","nogo","227","random","","",""
"","245","32","1473","0","test_block","poldrack-single-stim","242","428988","0.0-5.0-228.0","go-nogo","true","0","","true","<div class = centerbox><div  id = stim1></div></div>","32","32","750","","test","go","228","random","","",""
"","7","32","1273","0","test_block","poldrack-single-stim","243","430526","0.0-5.0-229.0","go-nogo","true","0","","true","<div class = centerbox><div  id = stim1></div></div>","32","32","750","","test","go","229","random","","",""
"","33","32","1432","0","test_block","poldrack-single-stim","244","432013","0.0-5.0-230.0","go-nogo","true","0","","true","<div class = centerbox><div  id = stim1></div></div>","32","32","750","","test","go","230","random","","",""
"","6","32","1476","0","test_block","poldrack-single-stim","245","433500","0.0-5.0-231.0","go-nogo","true","0","","true","<div class = centerbox><div  id = stim1></div></div>","32","32","750","","test","go","231","random","","",""
"","94","32","1328","0","test_block","poldrack-single-stim","246","434839","0.0-5.0-232.0","go-nogo","true","0","","true","<div class = centerbox><div  id = stim1></div></div>","32","32","750","","test","go","232","random","","",""
"","490","32","1046","0","test_block","poldrack-single-stim","247","435964","0.0-5.0-233.0","go-nogo","true","0","","true","<div class = centerbox><div  id = stim1></div></div>","32","32","750","","test","go","233","random","","",""
"","273","32","1266","0","test_block","poldrack-single-stim","248","437260","0.0-5.0-234.0","go-nogo","true","0","","true","<div class = centerbox><div  id = stim1></div></div>","32","32","750","","test","go","234","random","","",""
"","-1","-1","1412","0","test_block","poldrack-single-stim","249","438708","0.0-5.0-235.0","go-nogo","true","0","","false","<div class = centerbox><div  id = stim1></div></div>","32","32","750","","test","go","235","random","","",""
"","-1","-1","1384","0","test_block","poldrack-single-stim","250","440322","0.0-5.0-236.0","go-nogo","true","0","","false","<div class = centerbox><div  id = stim1></div></div>","32","32","750","","test","go","236","random","","",""
"","-1","-1","1056","0","test_block","poldrack-single-stim","251","441470","0.0-5.0-237.0","go-nogo","true","0","","false","<div class = centerbox><div  id = stim1></div></div>","32","32","750","","test","go","237","random","","",""
"","-1","-1","1023","0","test_block","poldrack-single-stim","252","442518","0.0-5.0-238.0","go-nogo","true","0","","false","<div class = centerbox><div  id = stim1></div></div>","32","32","750","","test","go","238","random","","",""
"","-1","-1","1084","0","test_block","poldrack-single-stim","253","443712","0.0-5.0-239.0","go-nogo","true","0","","false","<div class = centerbox><div  id = stim1></div></div>","32","32","750","","test","go","239","random","","",""
"","1026","32","1063","0","test_block","poldrack-single-stim","254","445049","0.0-5.0-240.0","go-nogo","true","0","","true","<div class = centerbox><div  id = stim1></div></div>","32","32","750","","test","go","240","random","","",""
"","-1","-1","1377","0","test_block","poldrack-single-stim","255","446572","0.0-5.0-241.0","go-nogo","true","0","","false","<div class = centerbox><div  id = stim1></div></div>","32","32","750","","test","go","241","random","","",""
"","571","32","1150","0","test_block","poldrack-single-stim","256","447743","0.0-5.0-242.0","go-nogo","true","0","","true","<div class = centerbox><div  id = stim1></div></div>","32","32","750","","test","go","242","random","","",""
"","-1","-1","1222","0","test_block","poldrack-single-stim","257","449051","0.0-5.0-243.0","go-nogo","true","0","","false","<div class = centerbox><div  id = stim1></div></div>","32","32","750","","test","go","243","random","","",""
"","286","32","1406","0","test_block","poldrack-single-stim","258","450518","0.0-5.0-244.0","go-nogo","true","0","","true","<div class = centerbox><div  id = stim1></div></div>","32","32","750","","test","go","244","random","","",""
"","-1","-1","1351","0","test_block","poldrack-single-stim","259","451912","0.0-5.0-245.0","go-nogo","true","0","","false","<div class = centerbox><div  id = stim1></div></div>","32","32","750","","test","go","245","random","","",""
"","1071","32","1385","0","test_block","poldrack-single-stim","260","453434","0.0-5.0-246.0","go-nogo","true","0","","true","<div class = centerbox><div  id = stim1></div></div>","32","32","750","","test","go","246","random","","",""
"","-1","-1","1399","0","test_block","poldrack-single-stim","261","455029","0.0-5.0-247.0","go-nogo","true","0","","true","<div class = centerbox><div  id = stim2></div></div>","-1","32","750","","test","nogo","247","random","","",""
"","651","32","1372","0","test_block","poldrack-single-stim","262","456422","0.0-5.0-248.0","go-nogo","true","0","","true","<div class = centerbox><div  id = stim1></div></div>","32","32","750","","test","go","248","random","","",""
"","573","32","1035","0","test_block","poldrack-single-stim","263","457527","0.0-5.0-249.0","go-nogo","true","0","","true","<div class = centerbox><div  id = stim1></div></div>","32","32","750","","test","go","249","random","","",""
"","802","32","1436","0","test_block","poldrack-single-stim","264","459060","0.0-5.0-250.0","go-nogo","true","0","","true","<div class = centerbox><div  id = stim1></div></div>","32","32","750","","test","go","250","random","","",""
"","1438","32","1213","0","test_block","poldrack-single-stim","265","460511","0.0-5.0-251.0","go-nogo","true","0","","true","<div class = centerbox><div  id = stim1></div></div>","32","32","750","","test","go","251","random","","",""
"","-1","-1","1066","0","test_block","poldrack-single-stim","266","461754","0.0-5.0-252.0","go-nogo","true","0","","false","<div class = centerbox><div  id = stim1></div></div>","32","32","750","","test","go","252","random","","",""
"","1154","32","1155","0","test_block","poldrack-single-stim","267","462918","0.0-5.0-253.0","go-nogo","true","0","","true","<div class = centerbox><div  id = stim1></div></div>","32","32","750","","test","go","253","random","","",""
"","957","32","1354","0","test_block","poldrack-single-stim","268","464286","0.0-5.0-254.0","go-nogo","true","0","","true","<div class = centerbox><div  id = stim1></div></div>","32","32","750","","test","go","254","random","","",""
"","565","32","1028","0","test_block","poldrack-single-stim","269","465432","0.0-5.0-255.0","go-nogo","true","0","","true","<div class = centerbox><div  id = stim1></div></div>","32","32","750","","test","go","255","random","","",""
"","-1","-1","1144","0","test_block","poldrack-single-stim","270","466684","0.0-5.0-256.0","go-nogo","true","0","","false","<div class = centerbox><div  id = stim1></div></div>","32","32","750","","test","go","256","random","","",""
"","8","32","1016","0","test_block","poldrack-single-stim","271","467889","0.0-5.0-257.0","go-nogo","true","0","","true","<div class = centerbox><div  id = stim1></div></div>","32","32","750","","test","go","257","random","","",""
"","221","32","1366","0","test_block","poldrack-single-stim","272","469494","0.0-5.0-258.0","go-nogo","true","0","","true","<div class = centerbox><div  id = stim1></div></div>","32","32","750","","test","go","258","random","","",""
"","764","32","1085","0","test_block","poldrack-single-stim","273","470770","0.0-5.0-259.0","go-nogo","true","0","","true","<div class = centerbox><div  id = stim1></div></div>","32","32","750","","test","go","259","random","","",""
"","-1","-1","1009","0","test_block","poldrack-single-stim","274","472001","0.0-5.0-260.0","go-nogo","true","0","","false","<div class = centerbox><div  id = stim1></div></div>","32","32","750","","test","go","260","random","","",""
"","1095","32","1078","0","test_block","poldrack-single-stim","275","473112","0.0-5.0-261.0","go-nogo","true","0","","true","<div class = centerbox><div  id = stim1></div></div>","32","32","750","","test","go","261","random","","",""
"","523","32","1172","0","test_block","poldrack-single-stim","276","474293","0.0-5.0-262.0","go-nogo","true","0","","true","<div class = centerbox><div  id = stim1></div></div>","32","32","750","","test","go","262","random","","",""
"","553","32","1467","0","test_block","poldrack-single-stim","277","475924","0.0-5.0-263.0","go-nogo","true","0","","true","<div class = centerbox><div  id = stim1></div></div>","32","32","750","","test","go","263","random","","",""
"","1035","32","1195","0","test_block","poldrack-single-stim","278","477245","0.0-5.0-264.0","go-nogo","true","0","","true","<div class = centerbox><div  id = stim1></div></div>","32","32","750","","test","go","264","random","","",""
"","-1","-1","1114","0","test_block","poldrack-single-stim","279","478393","0.0-5.0-265.0","go-nogo","true","0","","false","<div class = centerbox><div  id = stim1></div></div>","32","32","750","","test","go","265","random","","",""
"","624","32","1406","0","test_block","poldrack-single-stim","280","479944","0.0-5.0-266.0","go-nogo","true","0","","true","<div class = centerbox><div  id = stim1></div></div>","32","32","750","","test","go","266","random","","",""
"","-1","-1","1039","0","test_block","poldrack-single-stim","281","481031","0.0-5.0-267.0","go-nogo","true","0","","false","<div class = centerbox><div  id = stim1></div></div>","32","32","750","","test","go","267","random","","",""
"","337","32","1271","0","test_block","poldrack-single-stim","282","482306","0.0-5.0-268.0","go-nogo","true","0","","true","<div class = centerbox><div  id = stim1></div></div>","32","32","750","","test","go","268","random","","",""
"","-1","-1","1110","0","test_block","poldrack-single-stim","283","483547","0.0-5.0-269.0","go-nogo","true","0","","false","<div class = centerbox><div  id = stim1></div></div>","32","32","750","","test","go","269","random","","",""
"","-1","-1","1414","0","test_block","poldrack-single-stim","284","484987","0.0-5.0-270.0","go-nogo","true","0","","false","<div class = centerbox><div  id = stim1></div></div>","32","32","750","","test","go","270","random","","",""
"","-1","-1","1357","0","test_block","poldrack-single-stim","285","486359","0.0-5.0-271.0","go-nogo","true","0","","false","<div class = centerbox><div  id = stim1></div></div>","32","32","750","","test","go","271","random","","",""
"","415","32","1207","0","test_block","poldrack-single-stim","286","487786","0.0-5.0-272.0","go-nogo","true","0","","true","<div class = centerbox><div  id = stim1></div></div>","32","32","750","","test","go","272","random","","",""
"","23","32","1009","0","test_block","poldrack-single-stim","287","488932","0.0-5.0-273.0","go-nogo","true","0","","true","<div class = centerbox><div  id = stim1></div></div>","32","32","750","","test","go","273","random","","",""
"","879","32","1285","0","test_block","poldrack-single-stim","288","490413","0.0-5.0-274.0","go-nogo","true","0","","true","<div class = centerbox><div  id = stim1></div></div>","32","32","750","","test","go","274","random","","",""
"","212","32","1019","0","test_block","poldrack-single-stim","289","491638","0.0-5.0-275.0","go-nogo","true","0","","false","<div class = centerbox><div  id = stim2></div></div>","-1","32","750","","test","nogo","275","random","","",""
"","108","32","1080","0","test_block","poldrack-single-stim","290","492930","0.0-5.0-276.0","go-nogo","true","0","","true","<div class = centerbox><div  id = stim1></div></div>","32","32","750","","test","go","276","random","","",""
"","2","32","1146","0","test_block","poldrack-single-stim","291","494330","0.0-5.0-277.0","go-nogo","true","0","","true","<div class = centerbox><div  id = stim1></div></div>","32","32","750","","test","go","277","random","","",""
"","7","32","1070","0","test_block","poldrack-single-stim","292","495419","0.0-5.0-278.0","go-nogo","true","0","","true","<div class = centerbox><div  id = stim1></div></div>","32","32","750","","test","go","278","random","","",""
"","274","32","1060","0","test_block","poldrack-single-stim","293","496608","0.0-5.0-279.0","go-nogo","true","0","","true","<div class = centerbox><div  id = stim1></div></div>","32","32","750","","test","go","279","random","","",""
"","1054","32","1300","0","test_block","poldrack-single-stim","294","498067","0.0-5.0-280.0","go-nogo","true","0","","true","<div class = centerbox><div  id = stim1></div></div>","32","32","750","","test","go","280","random","","",""
"","1372","32","1490","0","test_block","poldrack-single-stim","295","499689","0.0-5.0-281.0","go-nogo","true","0","","true","<div class = centerbox><div  id = stim1></div></div>","32","32","750","","test","go","281","random","","",""
"","-1","-1","1152","0","test_block","poldrack-single-stim","296","500855","0.0-5.0-282.0","go-nogo","true","0","","false","<div class = centerbox><div  id = stim1></div></div>","32","32","750","","test","go","282","random","","",""
"","552","32","1474","0","test_block","poldrack-single-stim","297","502509","0.0-5.0-283.0","go-nogo","true","0","","true","<div class = centerbox><div  id = stim1></div></div>","32","32","750","","test","go","283","random","","",""
"","-1","-1","1036","0","test_block","poldrack-single-stim","298","503648","0.0-5.0-284.0","go-nogo","true","0","","false","<div class = centerbox><div  id = stim1></div></div>","32","32","750","","test","go","284","random","","",""
"","-1","-1","1368","0","test_block","poldrack-single-stim","299","505260","0.0-5.0-285.0","go-nogo","true","0","","false","<div class = centerbox><div  id = stim1></div></div>","32","32","750","","test","go","285","random","","",""
"","276","32","1139","0","test_block","poldrack-single-stim","300","506692","0.0-5.0-286.0","go-nogo","true","0","","true","<div class = centerbox><div  id = stim1></div></div>","32","32","750","","test","go","286","random","","",""
"","7","32","1331","0","test_block","poldrack-single-stim","301","508082","0.0-5.0-287.0","go-nogo","true","0","","true","<div class = centerbox><div  id = stim1></div></div>","32","32","750","","test","go","287","random","","",""
"","555","32","1481","0","test_block","poldrack-single-stim","302","509724","0.0-5.0-288.0","go-nogo","true","0","","true","<div class = centerbox><div  id = stim1></div></div>","32","32","750","","test","go","288","random","","",""
"","6","32","1049","0","test_block","poldrack-single-stim","303","510853","0.0-5.0-289.0","go-nogo","true","0","","true","<div class = centerbox><div  id = stim1></div></div>","32","32","750","","test","go","289","random","","",""
"","142","32","1012","0","test_block","poldrack-single-stim","304","511878","0.0-5.0-290.0","go-nogo","true","0","","true","<div class = centerbox><div  id = stim1></div></div>","32","32","750","","test","go","290","random","","",""
"","159","32","1486","0","test_block","poldrack-single-stim","305","513517","0.0-5.0-291.0","go-nogo","true","0","","true","<div class = centerbox><div  id = stim1></div></div>","32","32","750","","test","go","291","random","","",""
"","344","32","1198","0","test_block","poldrack-single-stim","306","514834","0.0-5.0-292.0","go-nogo","true","0","","true","<div class = centerbox><div  id = stim1></div></div>","32","32","750","","test","go","292","random","","",""
"","286","32","1480","0","test_block","poldrack-single-stim","307","516325","0.0-5.0-293.0","go-nogo","true","0","","true","<div class = centerbox><div  id = stim1></div></div>","32","32","750","","test","go","293","random","","",""
"","168","32","1495","0","test_block","poldrack-single-stim","308","518064","0.0-5.0-294.0","go-nogo","true","0","","true","<div class = centerbox><div  id = stim1></div></div>","32","32","750","","test","go","294","random","","",""
"","282","32","1458","0","test_block","poldrack-single-stim","309","519618","0.0-5.0-295.0","go-nogo","true","0","","true","<div class = centerbox><div  id = stim1></div></div>","32","32","750","","test","go","295","random","","",""
"","-1","-1","1407","0","test_block","poldrack-single-stim","310","521276","0.0-5.0-296.0","go-nogo","true","0","","false","<div class = centerbox><div  id = stim1></div></div>","32","32","750","","test","go","296","random","","",""
"","-1","-1","1451","0","test_block","poldrack-single-stim","311","522745","0.0-5.0-297.0","go-nogo","true","0","","false","<div class = centerbox><div  id = stim1></div></div>","32","32","750","","test","go","297","random","","",""
"","-1","-1","1324","0","test_block","poldrack-single-stim","312","524161","0.0-5.0-298.0","go-nogo","true","0","","true","<div class = centerbox><div  id = stim2></div></div>","-1","32","750","","test","nogo","298","random","","",""
"","499","32","1144","0","test_block","poldrack-single-stim","313","525493","0.0-5.0-299.0","go-nogo","true","0","","false","<div class = centerbox><div  id = stim2></div></div>","-1","32","750","","test","nogo","299","random","","",""
"","1192","32","1432","0","test_block","poldrack-single-stim","314","527540","0.0-5.0-300.0","go-nogo","true","0","","true","<div class = centerbox><div  id = stim1></div></div>","32","32","750","","test","go","300","random","","",""
"","1274","32","1401","0","test_block","poldrack-single-stim","315","528953","0.0-5.0-301.0","go-nogo","true","0","","true","<div class = centerbox><div  id = stim1></div></div>","32","32","750","","test","go","301","random","","",""
"","1024","32","1365","0","test_block","poldrack-single-stim","316","530438","0.0-5.0-302.0","go-nogo","true","0","","false","<div class = centerbox><div  id = stim2></div></div>","-1","32","750","","test","nogo","302","random","","",""
"","1287","32","1173","0","test_block","poldrack-single-stim","317","531743","0.0-5.0-303.0","go-nogo","true","0","","false","<div class = centerbox><div  id = stim2></div></div>","-1","32","750","","test","nogo","303","random","","",""
"","803","32","1318","0","test_block","poldrack-single-stim","318","533073","0.0-5.0-304.0","go-nogo","true","0","","true","<div class = centerbox><div  id = stim1></div></div>","32","32","750","","test","go","304","random","","",""
"","7","32","1447","0","test_block","poldrack-single-stim","319","534720","0.0-5.0-305.0","go-nogo","true","0","","false","<div class = centerbox><div  id = stim2></div></div>","-1","32","750","","test","nogo","305","random","","",""
"","1110","32","1427","0","test_block","poldrack-single-stim","320","536368","0.0-5.0-306.0","go-nogo","true","0","","true","<div class = centerbox><div  id = stim1></div></div>","32","32","750","","test","go","306","random","","",""
"","941","32","1398","0","test_block","poldrack-single-stim","321","538009","0.0-5.0-307.0","go-nogo","true","0","","true","<div class = centerbox><div  id = stim1></div></div>","32","32","750","","test","go","307","random","","",""
"","957","32","1436","0","test_block","poldrack-single-stim","322","539466","0.0-5.0-308.0","go-nogo","true","0","","true","<div class = centerbox><div  id = stim1></div></div>","32","32","750","","test","go","308","random","","",""
"","503","32","1367","0","test_block","poldrack-single-stim","323","540866","0.0-5.0-309.0","go-nogo","true","0","","true","<div class = centerbox><div  id = stim1></div></div>","32","32","750","","test","go","309","random","","",""
"","40","32","1482","0","test_block","poldrack-single-stim","324","542488","0.0-5.0-310.0","go-nogo","true","0","","false","<div class = centerbox><div  id = stim2></div></div>","-1","32","750","","test","nogo","310","random","","",""
"","247","32","1406","0","test_block","poldrack-single-stim","325","543974","0.0-5.0-311.0","go-nogo","true","0","","true","<div class = centerbox><div  id = stim1></div></div>","32","32","750","","test","go","311","random","","",""
"","-1","-1","1298","0","test_block","poldrack-single-stim","326","545296","0.0-5.0-312.0","go-nogo","true","0","","false","<div class = centerbox><div  id = stim1></div></div>","32","32","750","","test","go","312","random","","",""
"","427","32","1210","0","test_block","poldrack-single-stim","327","546656","0.0-5.0-313.0","go-nogo","true","0","","true","<div class = centerbox><div  id = stim1></div></div>","32","32","750","","test","go","313","random","","",""
"","-1","-1","1201","0","test_block","poldrack-single-stim","328","548046","0.0-5.0-314.0","go-nogo","true","0","","false","<div class = centerbox><div  id = stim1></div></div>","32","32","750","","test","go","314","random","","",""
"","462","32","1443","0","test_block","poldrack-single-stim","329","549616","0.0-5.0-315.0","go-nogo","true","0","","true","<div class = centerbox><div  id = stim1></div></div>","32","32","750","","test","go","315","random","","",""
"","-1","-1","1092","0","test_block","poldrack-single-stim","330","550718","0.0-5.0-316.0","go-nogo","true","0","","false","<div class = centerbox><div  id = stim1></div></div>","32","32","750","","test","go","316","random","","",""
"","903","32","1074","0","test_block","poldrack-single-stim","331","551802","0.0-5.0-317.0","go-nogo","true","0","","true","<div class = centerbox><div  id = stim1></div></div>","32","32","750","","test","go","317","random","","",""
"","-1","-1","1183","0","test_block","poldrack-single-stim","332","553154","0.0-5.0-318.0","go-nogo","true","0","","false","<div class = centerbox><div  id = stim1></div></div>","32","32","750","","test","go","318","random","","",""
"","1028","32","1460","0","test_block","poldrack-single-stim","333","554670","0.0-5.0-319.0","go-nogo","true","0","","true","<div class = centerbox><div  id = stim1></div></div>","32","32","750","","test","go","319","random","","",""
"","-1","-1","1058","0","test_block","poldrack-single-stim","334","555925","0.0-5.0-320.0","go-nogo","true","0","","false","<div class = centerbox><div  id = stim1></div></div>","32","32","750","","test","go","320","random","","",""
"","282","32","1173","0","test_block","poldrack-single-stim","335","557134","0.0-5.0-321.0","go-nogo","true","0","","true","<div class = centerbox><div  id = stim1></div></div>","32","32","750","","test","go","321","random","","",""
"","894","32","1322","0","test_block","poldrack-single-stim","336","558605","0.0-5.0-322.0","go-nogo","true","0","","true","<div class = centerbox><div  id = stim1></div></div>","32","32","750","","test","go","322","random","","",""
"","1429","32","1298","0","test_block","poldrack-single-stim","337","560053","0.0-5.0-323.0","go-nogo","true","0","","true","<div class = centerbox><div  id = stim1></div></div>","32","32","750","","test","go","323","random","","",""
"","-1","-1","1317","0","test_block","poldrack-single-stim","338","561411","0.0-5.0-324.0","go-nogo","true","0","","false","<div class = centerbox><div  id = stim1></div></div>","32","32","750","","test","go","324","random","","",""
"","546","32","1237","0","test_block","poldrack-single-stim","339","562660","0.0-5.0-325.0","go-nogo","true","0","","true","<div class = centerbox><div  id = stim1></div></div>","32","32","750","","test","go","325","random","","",""
"","-1","-1","1081","0","test_block","poldrack-single-stim","340","563944","0.0-5.0-326.0","go-nogo","true","0","","false","<div class = centerbox><div  id = stim1></div></div>","32","32","750","","test","go","326","random","","",""
"","282","32","1436","0","test_block","poldrack-single-stim","341","565496","0.0-5.0-327.0","go-nogo","true","0","","true","<div class = centerbox><div  id = stim1></div></div>","32","32","750","","test","go","327","random","","",""
"","549","32","1410","0","test_block","poldrack-single-stim","342","566918","0.0-5.0-328.0","go-nogo","true","0","","true","<div class = centerbox><div  id = stim1></div></div>","32","32","750","","test","go","328","random","","",""
"","694","32","1496","0","test_block","poldrack-single-stim","343","568563","0.0-5.0-329.0","go-nogo","true","0","","false","<div class = centerbox><div  id = stim2></div></div>","-1","32","750","","test","nogo","329","random","","",""
"","379","32","1308","0","test_block","poldrack-single-stim","344","570101","0.0-5.0-330.0","go-nogo","true","0","","true","<div class = centerbox><div  id = stim1></div></div>","32","32","750","","test","go","330","random","","",""
"","-1","-1","1094","0","test_block","poldrack-single-stim","345","571292","0.0-5.0-331.0","go-nogo","true","0","","true","<div class = centerbox><div  id = stim2></div></div>","-1","32","750","","test","nogo","331","random","","",""
"","-1","-1","1380","0","test_block","poldrack-single-stim","346","572870","0.0-5.0-332.0","go-nogo","true","0","","false","<div class = centerbox><div  id = stim1></div></div>","32","32","750","","test","go","332","random","","",""
"","880","32","1100","0","test_block","poldrack-single-stim","347","573982","0.0-5.0-333.0","go-nogo","true","0","","true","<div class = centerbox><div  id = stim1></div></div>","32","32","750","","test","go","333","random","","",""
"","-1","-1","1172","0","test_block","poldrack-single-stim","348","575173","0.0-5.0-334.0","go-nogo","true","0","","false","<div class = centerbox><div  id = stim1></div></div>","32","32","750","","test","go","334","random","","",""
"","727","32","1423","0","test_block","poldrack-single-stim","349","576664","0.0-5.0-335.0","go-nogo","true","0","","true","<div class = centerbox><div  id = stim1></div></div>","32","32","750","","test","go","335","random","","",""
"","1470","32","1318","0","test_block","poldrack-single-stim","350","578148","0.0-5.0-336.0","go-nogo","true","0","","true","<div class = centerbox><div  id = stim1></div></div>","32","32","750","","test","go","336","random","","",""
"","-1","-1","1045","0","test_block","poldrack-single-stim","351","579271","0.0-5.0-337.0","go-nogo","true","0","","false","<div class = centerbox><div  id = stim1></div></div>","32","32","750","","test","go","337","random","","",""
"","54","32","1099","0","test_block","poldrack-single-stim","352","580424","0.0-5.0-338.0","go-nogo","true","0","","true","<div class = centerbox><div  id = stim1></div></div>","32","32","750","","test","go","338","random","","",""
"","747","32","1115","0","test_block","poldrack-single-stim","353","581780","0.0-5.0-339.0","go-nogo","true","0","","true","<div class = centerbox><div  id = stim1></div></div>","32","32","750","","test","go","339","random","","",""
"","260","32","1415","0","test_block","poldrack-single-stim","354","583255","0.0-5.0-340.0","go-nogo","true","0","","true","<div class = centerbox><div  id = stim1></div></div>","32","32","750","","test","go","340","random","","",""
"","425","32","1306","0","test_block","poldrack-single-stim","355","584686","0.0-5.0-341.0","go-nogo","true","0","","true","<div class = centerbox><div  id = stim1></div></div>","32","32","750","","test","go","341","random","","",""
"","143","32","1111","0","test_block","poldrack-single-stim","356","586021","0.0-5.0-342.0","go-nogo","true","0","","true","<div class = centerbox><div  id = stim1></div></div>","32","32","750","","test","go","342","random","","",""
"","498","32","1417","0","test_block","poldrack-single-stim","357","587712","0.0-5.0-343.0","go-nogo","true","0","","true","<div class = centerbox><div  id = stim1></div></div>","32","32","750","","test","go","343","random","","",""
"","37","32","1039","0","test_block","poldrack-single-stim","358","588786","0.0-5.0-344.0","go-nogo","true","0","","true","<div class = centerbox><div  id = stim1></div></div>","32","32","750","","test","go","344","random","","",""
"","458","32","1456","0","test_block","poldrack-single-stim","359","590393","0.0-5.0-345.0","go-nogo","true","0","","true","<div class = centerbox><div  id = stim1></div></div>","32","32","750","","test","go","345","random","","",""
"","7","32","1011","0","test_block","poldrack-single-stim","360","591620","0.0-5.0-346.0","go-nogo","true","0","","true","<div class = centerbox><div  id = stim1></div></div>","32","32","750","","test","go","346","random","","",""
"","260","32","1379","0","test_block","poldrack-single-stim","361","593056","0.0-5.0-347.0","go-nogo","true","0","","true","<div class = centerbox><div  id = stim1></div></div>","32","32","750","","test","go","347","random","","",""
"","185","32","1141","0","test_block","poldrack-single-stim","362","594402","0.0-5.0-348.0","go-nogo","true","0","","true","<div class = centerbox><div  id = stim1></div></div>","32","32","750","","test","go","348","random","","",""
"","248","32","1221","0","test_block","poldrack-single-stim","363","595832","0.0-5.0-349.0","go-nogo","true","0","","true","<div class = centerbox><div  id = stim1></div></div>","32","32","750","","test","go","349","random","","",""
"","51505","","","","post task questions","survey-text","364","647360","0.0-7.0","go-nogo","true","0","","","","","","","","","","","","{""Q0"":""nothing about the study."",""Q1"":""This is very nice game.""}","",""
"<div class = centerbox><p class = center-block-text>Thanks for completing this task!</p><p class = center-block-text>Insert the following code to collect your payment at Amazon Mechanical Turk:</p><p class = center-block-text>941844317</p><p class = center-block-text>Press <strong>enter</strong> to continue.</p></div>","11026","13","11026","0","end","poldrack-text","365","659395","0.0-8.0","go-nogo","true","0","","","","","","","","","","","","","941844317","true"
