"text","rt","key_press","block_duration","timing_post_trial","trial_id","trial_type","trial_index","time_elapsed","internal_node_id","exp_id","full_screen","focus_shifts","view_history","correct","stimulus","correct_response","possible_responses","stim_duration","feedback_duration","exp_stage","condition","trial_num","mode","responses","payment_id","credit_var"
"<div class = centerbox><p class = center-block-text>Welcome to the experiment. This task will take around 10 minutes. Press <strong>enter</strong> to begin.</p></div>","3031","13","3031","0","instruction","poldrack-text","0","3035","0.0-0.0-0.0","go-nogo","true","0","","","","","","","","","","","","","",""
"","6842","","","","instruction","poldrack-instructions","1","9878","0.0-0.0-1.0","go-nogo","true","0","[{""page_index"":0,""viewing_time"":6842}]","","","","","","","","","","","","",""
"","-1","-1","1142","250","practice","poldrack-categorize","2","13051","0.0-1.0-0.0","go-nogo","true","0","","false","<div class = centerbox><div  id = stim1></div></div>","32","32","750","1000","practice","go","0","random","","",""
"","-1","-1","1480","250","practice","poldrack-categorize","3","15813","0.0-1.0-1.0","go-nogo","true","0","","false","<div class = centerbox><div  id = stim1></div></div>","32","32","750","1000","practice","go","1","random","","",""
"","-1","-1","1232","250","practice","poldrack-categorize","4","18332","0.0-1.0-2.0","go-nogo","true","0","","false","<div class = centerbox><div  id = stim1></div></div>","32","32","750","1000","practice","go","2","random","","",""
"","-1","-1","1493","250","practice","poldrack-categorize","5","21115","0.0-1.0-3.0","go-nogo","true","0","","false","<div class = centerbox><div  id = stim1></div></div>","32","32","750","1000","practice","go","3","random","","",""
"","-1","-1","1445","250","practice","poldrack-categorize","6","23828","0.0-1.0-4.0","go-nogo","true","0","","true","<div class = centerbox><div id = stim2></div></div>","-1","32","750","1000","practice","nogo","4","random","","",""
"","-1","-1","1471","250","practice","poldrack-categorize","7","26568","0.0-1.0-5.0","go-nogo","true","0","","true","<div class = centerbox><div id = stim2></div></div>","-1","32","750","1000","practice","nogo","5","random","","",""
"","-1","-1","1265","250","practice","poldrack-categorize","8","29101","0.0-1.0-6.0","go-nogo","true","0","","true","<div class = centerbox><div id = stim2></div></div>","-1","32","750","1000","practice","nogo","6","random","","",""
"","-1","-1","1143","250","practice","poldrack-categorize","9","31502","0.0-1.0-7.0","go-nogo","true","0","","true","<div class = centerbox><div id = stim2></div></div>","-1","32","750","1000","practice","nogo","7","random","","",""
"","-1","-1","1080","250","practice","poldrack-categorize","10","33847","0.0-1.0-8.0","go-nogo","true","0","","false","<div class = centerbox><div  id = stim1></div></div>","32","32","750","1000","practice","go","8","random","","",""
"","-1","-1","1487","250","practice","poldrack-categorize","11","36599","0.0-1.0-9.0","go-nogo","true","0","","true","<div class = centerbox><div id = stim2></div></div>","-1","32","750","1000","practice","nogo","9","random","","",""
"","","","","","reset_trial","call-function","12","36855","0.0-3.0","go-nogo","true","0","","","","","","","","","","","","","",""
"<div class = centerbox><p class = block-text>Practice is over, we will now begin the experiment. You will no longer get feedback about your responses.</p><p class = block-text>Remember, if you see the <font color=""orange"">orange</font> square you should <strong> respond by pressing the spacebar as quickly as possible</strong>. If you see the <font color=""blue"">blue</font> square you should <strong> not respond</strong>. Press <strong>enter</strong> to begin.</p></div>","2655","13","2655","1000","test_intro","poldrack-text","13","39512","0.0-4.0","go-nogo","true","0","","","","","","","","","","","","","",""
"","-1","-1","1252","0","test_block","poldrack-single-stim","14","41770","0.0-5.0-0.0","go-nogo","true","0","","false","<div class = centerbox><div  id = stim1></div></div>","32","32","750","","test","go","0","random","","",""
"","-1","-1","1263","0","test_block","poldrack-single-stim","15","43177","0.0-5.0-1.0","go-nogo","true","0","","false","<div class = centerbox><div  id = stim1></div></div>","32","32","750","","test","go","1","random","","",""
"","-1","-1","1059","0","test_block","poldrack-single-stim","16","44348","0.0-5.0-2.0","go-nogo","true","0","","false","<div class = centerbox><div  id = stim1></div></div>","32","32","750","","test","go","2","random","","",""
"","-1","-1","1093","0","test_block","poldrack-single-stim","17","45552","0.0-5.0-3.0","go-nogo","true","0","","true","<div class = centerbox><div  id = stim2></div></div>","-1","32","750","","test","nogo","3","random","","",""
"","-1","-1","1292","0","test_block","poldrack-single-stim","18","46962","0.0-5.0-4.0","go-nogo","true","0","","false","<div class = centerbox><div  id = stim1></div></div>","32","32","750","","test","go","4","random","","",""
"","-1","-1","1356","0","test_block","poldrack-single-stim","19","48432","0.0-5.0-5.0","go-nogo","true","0","","false","<div class = centerbox><div  id = stim1></div></div>","32","32","750","","test","go","5","random","","",""
"","-1","-1","1102","0","test_block","poldrack-single-stim","20","49612","0.0-5.0-6.0","go-nogo","true","0","","false","<div class = centerbox><div  id = stim1></div></div>","32","32","750","","test","go","6","random","","",""
"","-1","-1","1065","0","test_block","poldrack-single-stim","21","50740","0.0-5.0-7.0","go-nogo","true","0","","false","<div class = centerbox><div  id = stim1></div></div>","32","32","750","","test","go","7","random","","",""
"","-1","-1","1107","0","test_block","poldrack-single-stim","22","51936","0.0-5.0-8.0","go-nogo","true","0","","false","<div class = centerbox><div  id = stim1></div></div>","32","32","750","","test","go","8","random","","",""
"","-1","-1","1093","0","test_block","poldrack-single-stim","23","53119","0.0-5.0-9.0","go-nogo","true","0","","false","<div class = centerbox><div  id = stim1></div></div>","32","32","750","","test","go","9","random","","",""
"","-1","-1","1475","0","test_block","poldrack-single-stim","24","54686","0.0-5.0-10.0","go-nogo","true","0","","false","<div class = centerbox><div  id = stim1></div></div>","32","32","750","","test","go","10","random","","",""
"","-1","-1","1411","0","test_block","poldrack-single-stim","25","56147","0.0-5.0-11.0","go-nogo","true","0","","false","<div class = centerbox><div  id = stim1></div></div>","32","32","750","","test","go","11","random","","",""
"","-1","-1","1174","0","test_block","poldrack-single-stim","26","57398","0.0-5.0-12.0","go-nogo","true","0","","true","<div class = centerbox><div  id = stim2></div></div>","-1","32","750","","test","nogo","12","random","","",""
"","-1","-1","1403","0","test_block","poldrack-single-stim","27","58885","0.0-5.0-13.0","go-nogo","true","0","","false","<div class = centerbox><div  id = stim1></div></div>","32","32","750","","test","go","13","random","","",""
"","-1","-1","1138","0","test_block","poldrack-single-stim","28","60116","0.0-5.0-14.0","go-nogo","true","0","","false","<div class = centerbox><div  id = stim1></div></div>","32","32","750","","test","go","14","random","","",""
"","-1","-1","1147","0","test_block","poldrack-single-stim","29","61318","0.0-5.0-15.0","go-nogo","true","0","","true","<div class = centerbox><div  id = stim2></div></div>","-1","32","750","","test","nogo","15","random","","",""
"","-1","-1","1215","0","test_block","poldrack-single-stim","30","62619","0.0-5.0-16.0","go-nogo","true","0","","false","<div class = centerbox><div  id = stim1></div></div>","32","32","750","","test","go","16","random","","",""
"","-1","-1","1170","0","test_block","poldrack-single-stim","31","63866","0.0-5.0-17.0","go-nogo","true","0","","false","<div class = centerbox><div  id = stim1></div></div>","32","32","750","","test","go","17","random","","",""
"","-1","-1","1219","0","test_block","poldrack-single-stim","32","65164","0.0-5.0-18.0","go-nogo","true","0","","false","<div class = centerbox><div  id = stim1></div></div>","32","32","750","","test","go","18","random","","",""
"","-1","-1","1346","0","test_block","poldrack-single-stim","33","66587","0.0-5.0-19.0","go-nogo","true","0","","false","<div class = centerbox><div  id = stim1></div></div>","32","32","750","","test","go","19","random","","",""
"","-1","-1","1043","0","test_block","poldrack-single-stim","34","67705","0.0-5.0-20.0","go-nogo","true","0","","false","<div class = centerbox><div  id = stim1></div></div>","32","32","750","","test","go","20","random","","",""
"","-1","-1","1441","0","test_block","poldrack-single-stim","35","69230","0.0-5.0-21.0","go-nogo","true","0","","false","<div class = centerbox><div  id = stim1></div></div>","32","32","750","","test","go","21","random","","",""
"","-1","-1","1468","0","test_block","poldrack-single-stim","36","70777","0.0-5.0-22.0","go-nogo","true","0","","false","<div class = centerbox><div  id = stim1></div></div>","32","32","750","","test","go","22","random","","",""
"","-1","-1","1298","0","test_block","poldrack-single-stim","37","72149","0.0-5.0-23.0","go-nogo","true","0","","false","<div class = centerbox><div  id = stim1></div></div>","32","32","750","","test","go","23","random","","",""
"","-1","-1","1035","0","test_block","poldrack-single-stim","38","73296","0.0-5.0-24.0","go-nogo","true","0","","false","<div class = centerbox><div  id = stim1></div></div>","32","32","750","","test","go","24","random","","",""
"","-1","-1","1235","0","test_block","poldrack-single-stim","39","74616","0.0-5.0-25.0","go-nogo","true","0","","false","<div class = centerbox><div  id = stim1></div></div>","32","32","750","","test","go","25","random","","",""
"","-1","-1","1107","0","test_block","poldrack-single-stim","40","75791","0.0-5.0-26.0","go-nogo","true","0","","false","<div class = centerbox><div  id = stim1></div></div>","32","32","750","","test","go","26","random","","",""
"","-1","-1","1243","0","test_block","poldrack-single-stim","41","77138","0.0-5.0-27.0","go-nogo","true","0","","false","<div class = centerbox><div  id = stim1></div></div>","32","32","750","","test","go","27","random","","",""
"","-1","-1","1456","0","test_block","poldrack-single-stim","42","78684","0.0-5.0-28.0","go-nogo","true","0","","false","<div class = centerbox><div  id = stim1></div></div>","32","32","750","","test","go","28","random","","",""
"","-1","-1","1062","0","test_block","poldrack-single-stim","43","79852","0.0-5.0-29.0","go-nogo","true","0","","false","<div class = centerbox><div  id = stim1></div></div>","32","32","750","","test","go","29","random","","",""
"","-1","-1","1463","0","test_block","poldrack-single-stim","44","81395","0.0-5.0-30.0","go-nogo","true","0","","false","<div class = centerbox><div  id = stim1></div></div>","32","32","750","","test","go","30","random","","",""
"","-1","-1","1253","0","test_block","poldrack-single-stim","45","82723","0.0-5.0-31.0","go-nogo","true","0","","false","<div class = centerbox><div  id = stim1></div></div>","32","32","750","","test","go","31","random","","",""
"","-1","-1","1128","0","test_block","poldrack-single-stim","46","83909","0.0-5.0-32.0","go-nogo","true","0","","false","<div class = centerbox><div  id = stim1></div></div>","32","32","750","","test","go","32","random","","",""
"","-1","-1","1220","0","test_block","poldrack-single-stim","47","85220","0.0-5.0-33.0","go-nogo","true","0","","false","<div class = centerbox><div  id = stim1></div></div>","32","32","750","","test","go","33","random","","",""
"","-1","-1","1430","0","test_block","poldrack-single-stim","48","86744","0.0-5.0-34.0","go-nogo","true","0","","false","<div class = centerbox><div  id = stim1></div></div>","32","32","750","","test","go","34","random","","",""
"","-1","-1","1122","0","test_block","poldrack-single-stim","49","87945","0.0-5.0-35.0","go-nogo","true","0","","false","<div class = centerbox><div  id = stim1></div></div>","32","32","750","","test","go","35","random","","",""
"","-1","-1","1083","0","test_block","poldrack-single-stim","50","89137","0.0-5.0-36.0","go-nogo","true","0","","false","<div class = centerbox><div  id = stim1></div></div>","32","32","750","","test","go","36","random","","",""
"","-1","-1","1400","0","test_block","poldrack-single-stim","51","90610","0.0-5.0-37.0","go-nogo","true","0","","false","<div class = centerbox><div  id = stim1></div></div>","32","32","750","","test","go","37","random","","",""
"","-1","-1","1236","0","test_block","poldrack-single-stim","52","91924","0.0-5.0-38.0","go-nogo","true","0","","false","<div class = centerbox><div  id = stim1></div></div>","32","32","750","","test","go","38","random","","",""
"","-1","-1","1391","0","test_block","poldrack-single-stim","53","93403","0.0-5.0-39.0","go-nogo","true","0","","false","<div class = centerbox><div  id = stim1></div></div>","32","32","750","","test","go","39","random","","",""
"","-1","-1","1474","0","test_block","poldrack-single-stim","54","94944","0.0-5.0-40.0","go-nogo","true","0","","false","<div class = centerbox><div  id = stim1></div></div>","32","32","750","","test","go","40","random","","",""
"","-1","-1","1050","0","test_block","poldrack-single-stim","55","96087","0.0-5.0-41.0","go-nogo","true","0","","false","<div class = centerbox><div  id = stim1></div></div>","32","32","750","","test","go","41","random","","",""
"","-1","-1","1499","0","test_block","poldrack-single-stim","56","97664","0.0-5.0-42.0","go-nogo","true","0","","false","<div class = centerbox><div  id = stim1></div></div>","32","32","750","","test","go","42","random","","",""
"","-1","-1","1296","0","test_block","poldrack-single-stim","57","99033","0.0-5.0-43.0","go-nogo","true","0","","false","<div class = centerbox><div  id = stim1></div></div>","32","32","750","","test","go","43","random","","",""
"","-1","-1","1165","0","test_block","poldrack-single-stim","58","100310","0.0-5.0-44.0","go-nogo","true","0","","false","<div class = centerbox><div  id = stim1></div></div>","32","32","750","","test","go","44","random","","",""
"","-1","-1","1251","0","test_block","poldrack-single-stim","59","101608","0.0-5.0-45.0","go-nogo","true","0","","false","<div class = centerbox><div  id = stim1></div></div>","32","32","750","","test","go","45","random","","",""
"","-1","-1","1030","0","test_block","poldrack-single-stim","60","102727","0.0-5.0-46.0","go-nogo","true","0","","false","<div class = centerbox><div  id = stim1></div></div>","32","32","750","","test","go","46","random","","",""
"","-1","-1","1252","0","test_block","poldrack-single-stim","61","104048","0.0-5.0-47.0","go-nogo","true","0","","false","<div class = centerbox><div  id = stim1></div></div>","32","32","750","","test","go","47","random","","",""
"","-1","-1","1373","0","test_block","poldrack-single-stim","62","105503","0.0-5.0-48.0","go-nogo","true","0","","false","<div class = centerbox><div  id = stim1></div></div>","32","32","750","","test","go","48","random","","",""
"","-1","-1","1464","0","test_block","poldrack-single-stim","63","107010","0.0-5.0-49.0","go-nogo","true","0","","false","<div class = centerbox><div  id = stim1></div></div>","32","32","750","","test","go","49","random","","",""
"","-1","-1","1309","0","test_block","poldrack-single-stim","64","108388","0.0-5.0-50.0","go-nogo","true","0","","true","<div class = centerbox><div  id = stim2></div></div>","-1","32","750","","test","nogo","50","random","","",""
"","-1","-1","1198","0","test_block","poldrack-single-stim","65","109654","0.0-5.0-51.0","go-nogo","true","0","","false","<div class = centerbox><div  id = stim1></div></div>","32","32","750","","test","go","51","random","","",""
"","-1","-1","1462","0","test_block","poldrack-single-stim","66","111186","0.0-5.0-52.0","go-nogo","true","0","","false","<div class = centerbox><div  id = stim1></div></div>","32","32","750","","test","go","52","random","","",""
"","-1","-1","1225","0","test_block","poldrack-single-stim","67","112455","0.0-5.0-53.0","go-nogo","true","0","","true","<div class = centerbox><div  id = stim2></div></div>","-1","32","750","","test","nogo","53","random","","",""
"","-1","-1","1294","0","test_block","poldrack-single-stim","68","113838","0.0-5.0-54.0","go-nogo","true","0","","false","<div class = centerbox><div  id = stim1></div></div>","32","32","750","","test","go","54","random","","",""
"","-1","-1","1107","0","test_block","poldrack-single-stim","69","115027","0.0-5.0-55.0","go-nogo","true","0","","false","<div class = centerbox><div  id = stim1></div></div>","32","32","750","","test","go","55","random","","",""
"","-1","-1","1065","0","test_block","poldrack-single-stim","70","116200","0.0-5.0-56.0","go-nogo","true","0","","false","<div class = centerbox><div  id = stim1></div></div>","32","32","750","","test","go","56","random","","",""
"","-1","-1","1038","0","test_block","poldrack-single-stim","71","117334","0.0-5.0-57.0","go-nogo","true","0","","false","<div class = centerbox><div  id = stim1></div></div>","32","32","750","","test","go","57","random","","",""
"","-1","-1","1486","0","test_block","poldrack-single-stim","72","118922","0.0-5.0-58.0","go-nogo","true","0","","false","<div class = centerbox><div  id = stim1></div></div>","32","32","750","","test","go","58","random","","",""
"","-1","-1","1170","0","test_block","poldrack-single-stim","73","120177","0.0-5.0-59.0","go-nogo","true","0","","false","<div class = centerbox><div  id = stim1></div></div>","32","32","750","","test","go","59","random","","",""
"","-1","-1","1406","0","test_block","poldrack-single-stim","74","121688","0.0-5.0-60.0","go-nogo","true","0","","false","<div class = centerbox><div  id = stim1></div></div>","32","32","750","","test","go","60","random","","",""
"","-1","-1","1370","0","test_block","poldrack-single-stim","75","123146","0.0-5.0-61.0","go-nogo","true","0","","false","<div class = centerbox><div  id = stim1></div></div>","32","32","750","","test","go","61","random","","",""
"","-1","-1","1089","0","test_block","poldrack-single-stim","76","124279","0.0-5.0-62.0","go-nogo","true","0","","false","<div class = centerbox><div  id = stim1></div></div>","32","32","750","","test","go","62","random","","",""
"","-1","-1","1107","0","test_block","poldrack-single-stim","77","125472","0.0-5.0-63.0","go-nogo","true","0","","false","<div class = centerbox><div  id = stim1></div></div>","32","32","750","","test","go","63","random","","",""
"","-1","-1","1321","0","test_block","poldrack-single-stim","78","126891","0.0-5.0-64.0","go-nogo","true","0","","false","<div class = centerbox><div  id = stim1></div></div>","32","32","750","","test","go","64","random","","",""
"","-1","-1","1034","0","test_block","poldrack-single-stim","79","128008","0.0-5.0-65.0","go-nogo","true","0","","false","<div class = centerbox><div  id = stim1></div></div>","32","32","750","","test","go","65","random","","",""
"","-1","-1","1070","0","test_block","poldrack-single-stim","80","129176","0.0-5.0-66.0","go-nogo","true","0","","false","<div class = centerbox><div  id = stim1></div></div>","32","32","750","","test","go","66","random","","",""
"","-1","-1","1390","0","test_block","poldrack-single-stim","81","130640","0.0-5.0-67.0","go-nogo","true","0","","false","<div class = centerbox><div  id = stim1></div></div>","32","32","750","","test","go","67","random","","",""
"","-1","-1","1403","0","test_block","poldrack-single-stim","82","132147","0.0-5.0-68.0","go-nogo","true","0","","false","<div class = centerbox><div  id = stim1></div></div>","32","32","750","","test","go","68","random","","",""
"","-1","-1","1332","0","test_block","poldrack-single-stim","83","133562","0.0-5.0-69.0","go-nogo","true","0","","false","<div class = centerbox><div  id = stim1></div></div>","32","32","750","","test","go","69","random","","",""
"","-1","-1","1023","0","test_block","poldrack-single-stim","84","134654","0.0-5.0-70.0","go-nogo","true","0","","false","<div class = centerbox><div  id = stim1></div></div>","32","32","750","","test","go","70","random","","",""
"","-1","-1","1086","0","test_block","poldrack-single-stim","85","135818","0.0-5.0-71.0","go-nogo","true","0","","false","<div class = centerbox><div  id = stim1></div></div>","32","32","750","","test","go","71","random","","",""
"","-1","-1","1263","0","test_block","poldrack-single-stim","86","137167","0.0-5.0-72.0","go-nogo","true","0","","true","<div class = centerbox><div  id = stim2></div></div>","-1","32","750","","test","nogo","72","random","","",""
"","-1","-1","1408","0","test_block","poldrack-single-stim","87","138665","0.0-5.0-73.0","go-nogo","true","0","","false","<div class = centerbox><div  id = stim1></div></div>","32","32","750","","test","go","73","random","","",""
"","-1","-1","1075","0","test_block","poldrack-single-stim","88","139802","0.0-5.0-74.0","go-nogo","true","0","","false","<div class = centerbox><div  id = stim1></div></div>","32","32","750","","test","go","74","random","","",""
"","-1","-1","1144","0","test_block","poldrack-single-stim","89","141022","0.0-5.0-75.0","go-nogo","true","0","","false","<div class = centerbox><div  id = stim1></div></div>","32","32","750","","test","go","75","random","","",""
"","-1","-1","1127","0","test_block","poldrack-single-stim","90","142202","0.0-5.0-76.0","go-nogo","true","0","","false","<div class = centerbox><div  id = stim1></div></div>","32","32","750","","test","go","76","random","","",""
"","-1","-1","1217","0","test_block","poldrack-single-stim","91","143491","0.0-5.0-77.0","go-nogo","true","0","","false","<div class = centerbox><div  id = stim1></div></div>","32","32","750","","test","go","77","random","","",""
"","-1","-1","1040","0","test_block","poldrack-single-stim","92","144605","0.0-5.0-78.0","go-nogo","true","0","","true","<div class = centerbox><div  id = stim2></div></div>","-1","32","750","","test","nogo","78","random","","",""
"","-1","-1","1475","0","test_block","poldrack-single-stim","93","146157","0.0-5.0-79.0","go-nogo","true","0","","false","<div class = centerbox><div  id = stim1></div></div>","32","32","750","","test","go","79","random","","",""
"","-1","-1","1259","0","test_block","poldrack-single-stim","94","147489","0.0-5.0-80.0","go-nogo","true","0","","false","<div class = centerbox><div  id = stim1></div></div>","32","32","750","","test","go","80","random","","",""
"","-1","-1","1209","0","test_block","poldrack-single-stim","95","148770","0.0-5.0-81.0","go-nogo","true","0","","false","<div class = centerbox><div  id = stim1></div></div>","32","32","750","","test","go","81","random","","",""
"","-1","-1","1184","0","test_block","poldrack-single-stim","96","150024","0.0-5.0-82.0","go-nogo","true","0","","false","<div class = centerbox><div  id = stim1></div></div>","32","32","750","","test","go","82","random","","",""
"","-1","-1","1224","0","test_block","poldrack-single-stim","97","151323","0.0-5.0-83.0","go-nogo","true","0","","false","<div class = centerbox><div  id = stim1></div></div>","32","32","750","","test","go","83","random","","",""
"","-1","-1","1003","0","test_block","poldrack-single-stim","98","152401","0.0-5.0-84.0","go-nogo","true","0","","false","<div class = centerbox><div  id = stim1></div></div>","32","32","750","","test","go","84","random","","",""
"","-1","-1","1219","0","test_block","poldrack-single-stim","99","153692","0.0-5.0-85.0","go-nogo","true","0","","false","<div class = centerbox><div  id = stim1></div></div>","32","32","750","","test","go","85","random","","",""
"","-1","-1","1152","0","test_block","poldrack-single-stim","100","154914","0.0-5.0-86.0","go-nogo","true","0","","false","<div class = centerbox><div  id = stim1></div></div>","32","32","750","","test","go","86","random","","",""
"","-1","-1","1191","0","test_block","poldrack-single-stim","101","156166","0.0-5.0-87.0","go-nogo","true","0","","false","<div class = centerbox><div  id = stim1></div></div>","32","32","750","","test","go","87","random","","",""
"","-1","-1","1292","0","test_block","poldrack-single-stim","102","157532","0.0-5.0-88.0","go-nogo","true","0","","false","<div class = centerbox><div  id = stim1></div></div>","32","32","750","","test","go","88","random","","",""
"","-1","-1","1386","0","test_block","poldrack-single-stim","103","158999","0.0-5.0-89.0","go-nogo","true","0","","false","<div class = centerbox><div  id = stim1></div></div>","32","32","750","","test","go","89","random","","",""
"","-1","-1","1177","0","test_block","poldrack-single-stim","104","160242","0.0-5.0-90.0","go-nogo","true","0","","false","<div class = centerbox><div  id = stim1></div></div>","32","32","750","","test","go","90","random","","",""
"","-1","-1","1000","0","test_block","poldrack-single-stim","105","161309","0.0-5.0-91.0","go-nogo","true","0","","false","<div class = centerbox><div  id = stim1></div></div>","32","32","750","","test","go","91","random","","",""
"","-1","-1","1469","0","test_block","poldrack-single-stim","106","162853","0.0-5.0-92.0","go-nogo","true","0","","false","<div class = centerbox><div  id = stim1></div></div>","32","32","750","","test","go","92","random","","",""
"","-1","-1","1406","0","test_block","poldrack-single-stim","107","164324","0.0-5.0-93.0","go-nogo","true","0","","true","<div class = centerbox><div  id = stim2></div></div>","-1","32","750","","test","nogo","93","random","","",""
"","-1","-1","1162","0","test_block","poldrack-single-stim","108","165564","0.0-5.0-94.0","go-nogo","true","0","","true","<div class = centerbox><div  id = stim2></div></div>","-1","32","750","","test","nogo","94","random","","",""
"","-1","-1","1291","0","test_block","poldrack-single-stim","109","166927","0.0-5.0-95.0","go-nogo","true","0","","false","<div class = centerbox><div  id = stim1></div></div>","32","32","750","","test","go","95","random","","",""
"","-1","-1","1220","0","test_block","poldrack-single-stim","110","168208","0.0-5.0-96.0","go-nogo","true","0","","false","<div class = centerbox><div  id = stim1></div></div>","32","32","750","","test","go","96","random","","",""
"","-1","-1","1195","0","test_block","poldrack-single-stim","111","169473","0.0-5.0-97.0","go-nogo","true","0","","false","<div class = centerbox><div  id = stim1></div></div>","32","32","750","","test","go","97","random","","",""
"","-1","-1","1284","0","test_block","poldrack-single-stim","112","170824","0.0-5.0-98.0","go-nogo","true","0","","false","<div class = centerbox><div  id = stim1></div></div>","32","32","750","","test","go","98","random","","",""
"","-1","-1","1234","0","test_block","poldrack-single-stim","113","172129","0.0-5.0-99.0","go-nogo","true","0","","false","<div class = centerbox><div  id = stim1></div></div>","32","32","750","","test","go","99","random","","",""
"","-1","-1","1153","0","test_block","poldrack-single-stim","114","173348","0.0-5.0-100.0","go-nogo","true","0","","false","<div class = centerbox><div  id = stim1></div></div>","32","32","750","","test","go","100","random","","",""
"","-1","-1","1347","0","test_block","poldrack-single-stim","115","174767","0.0-5.0-101.0","go-nogo","true","0","","false","<div class = centerbox><div  id = stim1></div></div>","32","32","750","","test","go","101","random","","",""
"","-1","-1","1422","0","test_block","poldrack-single-stim","116","176260","0.0-5.0-102.0","go-nogo","true","0","","false","<div class = centerbox><div  id = stim1></div></div>","32","32","750","","test","go","102","random","","",""
"","-1","-1","1381","0","test_block","poldrack-single-stim","117","177726","0.0-5.0-103.0","go-nogo","true","0","","false","<div class = centerbox><div  id = stim1></div></div>","32","32","750","","test","go","103","random","","",""
"","-1","-1","1207","0","test_block","poldrack-single-stim","118","179004","0.0-5.0-104.0","go-nogo","true","0","","false","<div class = centerbox><div  id = stim1></div></div>","32","32","750","","test","go","104","random","","",""
"","-1","-1","1160","0","test_block","poldrack-single-stim","119","180241","0.0-5.0-105.0","go-nogo","true","0","","true","<div class = centerbox><div  id = stim2></div></div>","-1","32","750","","test","nogo","105","random","","",""
"","-1","-1","1446","0","test_block","poldrack-single-stim","120","181756","0.0-5.0-106.0","go-nogo","true","0","","true","<div class = centerbox><div  id = stim2></div></div>","-1","32","750","","test","nogo","106","random","","",""
"","-1","-1","1348","0","test_block","poldrack-single-stim","121","183172","0.0-5.0-107.0","go-nogo","true","0","","false","<div class = centerbox><div  id = stim1></div></div>","32","32","750","","test","go","107","random","","",""
"","-1","-1","1393","0","test_block","poldrack-single-stim","122","184632","0.0-5.0-108.0","go-nogo","true","0","","false","<div class = centerbox><div  id = stim1></div></div>","32","32","750","","test","go","108","random","","",""
"","-1","-1","1407","0","test_block","poldrack-single-stim","123","186105","0.0-5.0-109.0","go-nogo","true","0","","false","<div class = centerbox><div  id = stim1></div></div>","32","32","750","","test","go","109","random","","",""
"","-1","-1","1392","0","test_block","poldrack-single-stim","124","187569","0.0-5.0-110.0","go-nogo","true","0","","false","<div class = centerbox><div  id = stim1></div></div>","32","32","750","","test","go","110","random","","",""
"","-1","-1","1210","0","test_block","poldrack-single-stim","125","188846","0.0-5.0-111.0","go-nogo","true","0","","false","<div class = centerbox><div  id = stim1></div></div>","32","32","750","","test","go","111","random","","",""
"","-1","-1","1400","0","test_block","poldrack-single-stim","126","190316","0.0-5.0-112.0","go-nogo","true","0","","false","<div class = centerbox><div  id = stim1></div></div>","32","32","750","","test","go","112","random","","",""
"","-1","-1","1413","0","test_block","poldrack-single-stim","127","191799","0.0-5.0-113.0","go-nogo","true","0","","false","<div class = centerbox><div  id = stim1></div></div>","32","32","750","","test","go","113","random","","",""
"","-1","-1","1061","0","test_block","poldrack-single-stim","128","192936","0.0-5.0-114.0","go-nogo","true","0","","false","<div class = centerbox><div  id = stim1></div></div>","32","32","750","","test","go","114","random","","",""
"","-1","-1","1109","0","test_block","poldrack-single-stim","129","194129","0.0-5.0-115.0","go-nogo","true","0","","false","<div class = centerbox><div  id = stim1></div></div>","32","32","750","","test","go","115","random","","",""
"","-1","-1","1430","0","test_block","poldrack-single-stim","130","195638","0.0-5.0-116.0","go-nogo","true","0","","false","<div class = centerbox><div  id = stim1></div></div>","32","32","750","","test","go","116","random","","",""
"","-1","-1","1300","0","test_block","poldrack-single-stim","131","196980","0.0-5.0-117.0","go-nogo","true","0","","false","<div class = centerbox><div  id = stim1></div></div>","32","32","750","","test","go","117","random","","",""
"","-1","-1","1073","0","test_block","poldrack-single-stim","132","198123","0.0-5.0-118.0","go-nogo","true","0","","false","<div class = centerbox><div  id = stim1></div></div>","32","32","750","","test","go","118","random","","",""
"","-1","-1","1083","0","test_block","poldrack-single-stim","133","199276","0.0-5.0-119.0","go-nogo","true","0","","false","<div class = centerbox><div  id = stim1></div></div>","32","32","750","","test","go","119","random","","",""
"","-1","-1","1339","0","test_block","poldrack-single-stim","134","200706","0.0-5.0-120.0","go-nogo","true","0","","false","<div class = centerbox><div  id = stim1></div></div>","32","32","750","","test","go","120","random","","",""
"","-1","-1","1492","0","test_block","poldrack-single-stim","135","202295","0.0-5.0-121.0","go-nogo","true","0","","false","<div class = centerbox><div  id = stim1></div></div>","32","32","750","","test","go","121","random","","",""
"","-1","-1","1358","0","test_block","poldrack-single-stim","136","203718","0.0-5.0-122.0","go-nogo","true","0","","false","<div class = centerbox><div  id = stim1></div></div>","32","32","750","","test","go","122","random","","",""
"","-1","-1","1315","0","test_block","poldrack-single-stim","137","205099","0.0-5.0-123.0","go-nogo","true","0","","false","<div class = centerbox><div  id = stim1></div></div>","32","32","750","","test","go","123","random","","",""
"","-1","-1","1160","0","test_block","poldrack-single-stim","138","206333","0.0-5.0-124.0","go-nogo","true","0","","false","<div class = centerbox><div  id = stim1></div></div>","32","32","750","","test","go","124","random","","",""
"","-1","-1","1321","0","test_block","poldrack-single-stim","139","207725","0.0-5.0-125.0","go-nogo","true","0","","false","<div class = centerbox><div  id = stim1></div></div>","32","32","750","","test","go","125","random","","",""
"","-1","-1","1470","0","test_block","poldrack-single-stim","140","209265","0.0-5.0-126.0","go-nogo","true","0","","false","<div class = centerbox><div  id = stim1></div></div>","32","32","750","","test","go","126","random","","",""
"","-1","-1","1227","0","test_block","poldrack-single-stim","141","210557","0.0-5.0-127.0","go-nogo","true","0","","false","<div class = centerbox><div  id = stim1></div></div>","32","32","750","","test","go","127","random","","",""
"","-1","-1","1318","0","test_block","poldrack-single-stim","142","211943","0.0-5.0-128.0","go-nogo","true","0","","false","<div class = centerbox><div  id = stim1></div></div>","32","32","750","","test","go","128","random","","",""
"","-1","-1","1356","0","test_block","poldrack-single-stim","143","213365","0.0-5.0-129.0","go-nogo","true","0","","false","<div class = centerbox><div  id = stim1></div></div>","32","32","750","","test","go","129","random","","",""
"","-1","-1","1051","0","test_block","poldrack-single-stim","144","214494","0.0-5.0-130.0","go-nogo","true","0","","true","<div class = centerbox><div  id = stim2></div></div>","-1","32","750","","test","nogo","130","random","","",""
"","-1","-1","1012","0","test_block","poldrack-single-stim","145","215580","0.0-5.0-131.0","go-nogo","true","0","","false","<div class = centerbox><div  id = stim1></div></div>","32","32","750","","test","go","131","random","","",""
"","-1","-1","1239","0","test_block","poldrack-single-stim","146","216859","0.0-5.0-132.0","go-nogo","true","0","","false","<div class = centerbox><div  id = stim1></div></div>","32","32","750","","test","go","132","random","","",""
"","-1","-1","1324","0","test_block","poldrack-single-stim","147","218252","0.0-5.0-133.0","go-nogo","true","0","","false","<div class = centerbox><div  id = stim1></div></div>","32","32","750","","test","go","133","random","","",""
"","-1","-1","1161","0","test_block","poldrack-single-stim","148","219477","0.0-5.0-134.0","go-nogo","true","0","","false","<div class = centerbox><div  id = stim1></div></div>","32","32","750","","test","go","134","random","","",""
"","-1","-1","1229","0","test_block","poldrack-single-stim","149","220782","0.0-5.0-135.0","go-nogo","true","0","","false","<div class = centerbox><div  id = stim1></div></div>","32","32","750","","test","go","135","random","","",""
"","-1","-1","1065","0","test_block","poldrack-single-stim","150","221917","0.0-5.0-136.0","go-nogo","true","0","","false","<div class = centerbox><div  id = stim1></div></div>","32","32","750","","test","go","136","random","","",""
"","-1","-1","1192","0","test_block","poldrack-single-stim","151","223175","0.0-5.0-137.0","go-nogo","true","0","","true","<div class = centerbox><div  id = stim2></div></div>","-1","32","750","","test","nogo","137","random","","",""
"","-1","-1","1213","0","test_block","poldrack-single-stim","152","224426","0.0-5.0-138.0","go-nogo","true","0","","false","<div class = centerbox><div  id = stim1></div></div>","32","32","750","","test","go","138","random","","",""
"","-1","-1","1390","0","test_block","poldrack-single-stim","153","225885","0.0-5.0-139.0","go-nogo","true","0","","true","<div class = centerbox><div  id = stim2></div></div>","-1","32","750","","test","nogo","139","random","","",""
"","-1","-1","1190","0","test_block","poldrack-single-stim","154","227133","0.0-5.0-140.0","go-nogo","true","0","","false","<div class = centerbox><div  id = stim1></div></div>","32","32","750","","test","go","140","random","","",""
"","-1","-1","1032","0","test_block","poldrack-single-stim","155","228198","0.0-5.0-141.0","go-nogo","true","0","","false","<div class = centerbox><div  id = stim1></div></div>","32","32","750","","test","go","141","random","","",""
"","-1","-1","1060","0","test_block","poldrack-single-stim","156","229321","0.0-5.0-142.0","go-nogo","true","0","","false","<div class = centerbox><div  id = stim1></div></div>","32","32","750","","test","go","142","random","","",""
"","-1","-1","1088","0","test_block","poldrack-single-stim","157","230477","0.0-5.0-143.0","go-nogo","true","0","","false","<div class = centerbox><div  id = stim1></div></div>","32","32","750","","test","go","143","random","","",""
"","-1","-1","1215","0","test_block","poldrack-single-stim","158","231757","0.0-5.0-144.0","go-nogo","true","0","","false","<div class = centerbox><div  id = stim1></div></div>","32","32","750","","test","go","144","random","","",""
"","-1","-1","1140","0","test_block","poldrack-single-stim","159","232961","0.0-5.0-145.0","go-nogo","true","0","","false","<div class = centerbox><div  id = stim1></div></div>","32","32","750","","test","go","145","random","","",""
"","-1","-1","1449","0","test_block","poldrack-single-stim","160","234484","0.0-5.0-146.0","go-nogo","true","0","","false","<div class = centerbox><div  id = stim1></div></div>","32","32","750","","test","go","146","random","","",""
"","-1","-1","1286","0","test_block","poldrack-single-stim","161","235797","0.0-5.0-147.0","go-nogo","true","0","","false","<div class = centerbox><div  id = stim1></div></div>","32","32","750","","test","go","147","random","","",""
"","-1","-1","1367","0","test_block","poldrack-single-stim","162","237234","0.0-5.0-148.0","go-nogo","true","0","","false","<div class = centerbox><div  id = stim1></div></div>","32","32","750","","test","go","148","random","","",""
"","-1","-1","1448","0","test_block","poldrack-single-stim","163","238745","0.0-5.0-149.0","go-nogo","true","0","","true","<div class = centerbox><div  id = stim2></div></div>","-1","32","750","","test","nogo","149","random","","",""
"","-1","-1","1238","0","test_block","poldrack-single-stim","164","240082","0.0-5.0-150.0","go-nogo","true","0","","false","<div class = centerbox><div  id = stim1></div></div>","32","32","750","","test","go","150","random","","",""
"","-1","-1","1077","0","test_block","poldrack-single-stim","165","241231","0.0-5.0-151.0","go-nogo","true","0","","false","<div class = centerbox><div  id = stim1></div></div>","32","32","750","","test","go","151","random","","",""
"","-1","-1","1257","0","test_block","poldrack-single-stim","166","242534","0.0-5.0-152.0","go-nogo","true","0","","false","<div class = centerbox><div  id = stim1></div></div>","32","32","750","","test","go","152","random","","",""
"","-1","-1","1471","0","test_block","poldrack-single-stim","167","244069","0.0-5.0-153.0","go-nogo","true","0","","false","<div class = centerbox><div  id = stim1></div></div>","32","32","750","","test","go","153","random","","",""
"","-1","-1","1475","0","test_block","poldrack-single-stim","168","245603","0.0-5.0-154.0","go-nogo","true","0","","false","<div class = centerbox><div  id = stim1></div></div>","32","32","750","","test","go","154","random","","",""
"","-1","-1","1197","0","test_block","poldrack-single-stim","169","246872","0.0-5.0-155.0","go-nogo","true","0","","false","<div class = centerbox><div  id = stim1></div></div>","32","32","750","","test","go","155","random","","",""
"","-1","-1","1102","0","test_block","poldrack-single-stim","170","248014","0.0-5.0-156.0","go-nogo","true","0","","false","<div class = centerbox><div  id = stim1></div></div>","32","32","750","","test","go","156","random","","",""
"","-1","-1","1302","0","test_block","poldrack-single-stim","171","249380","0.0-5.0-157.0","go-nogo","true","0","","false","<div class = centerbox><div  id = stim1></div></div>","32","32","750","","test","go","157","random","","",""
"","-1","-1","1423","0","test_block","poldrack-single-stim","172","250871","0.0-5.0-158.0","go-nogo","true","0","","false","<div class = centerbox><div  id = stim1></div></div>","32","32","750","","test","go","158","random","","",""
"","-1","-1","1379","0","test_block","poldrack-single-stim","173","252313","0.0-5.0-159.0","go-nogo","true","0","","false","<div class = centerbox><div  id = stim1></div></div>","32","32","750","","test","go","159","random","","",""
"","-1","-1","1412","0","test_block","poldrack-single-stim","174","253790","0.0-5.0-160.0","go-nogo","true","0","","false","<div class = centerbox><div  id = stim1></div></div>","32","32","750","","test","go","160","random","","",""
"","-1","-1","1382","0","test_block","poldrack-single-stim","175","255235","0.0-5.0-161.0","go-nogo","true","0","","false","<div class = centerbox><div  id = stim1></div></div>","32","32","750","","test","go","161","random","","",""
"","-1","-1","1153","0","test_block","poldrack-single-stim","176","256417","0.0-5.0-162.0","go-nogo","true","0","","false","<div class = centerbox><div  id = stim1></div></div>","32","32","750","","test","go","162","random","","",""
"","-1","-1","1293","0","test_block","poldrack-single-stim","177","257813","0.0-5.0-163.0","go-nogo","true","0","","false","<div class = centerbox><div  id = stim1></div></div>","32","32","750","","test","go","163","random","","",""
"","-1","-1","1223","0","test_block","poldrack-single-stim","178","259102","0.0-5.0-164.0","go-nogo","true","0","","false","<div class = centerbox><div  id = stim1></div></div>","32","32","750","","test","go","164","random","","",""
"","-1","-1","1078","0","test_block","poldrack-single-stim","179","260246","0.0-5.0-165.0","go-nogo","true","0","","false","<div class = centerbox><div  id = stim1></div></div>","32","32","750","","test","go","165","random","","",""
"","-1","-1","1441","0","test_block","poldrack-single-stim","180","261791","0.0-5.0-166.0","go-nogo","true","0","","false","<div class = centerbox><div  id = stim1></div></div>","32","32","750","","test","go","166","random","","",""
"","-1","-1","1222","0","test_block","poldrack-single-stim","181","263076","0.0-5.0-167.0","go-nogo","true","0","","false","<div class = centerbox><div  id = stim1></div></div>","32","32","750","","test","go","167","random","","",""
"","-1","-1","1095","0","test_block","poldrack-single-stim","182","264233","0.0-5.0-168.0","go-nogo","true","0","","false","<div class = centerbox><div  id = stim1></div></div>","32","32","750","","test","go","168","random","","",""
"","-1","-1","1025","0","test_block","poldrack-single-stim","183","265319","0.0-5.0-169.0","go-nogo","true","0","","false","<div class = centerbox><div  id = stim1></div></div>","32","32","750","","test","go","169","random","","",""
"","-1","-1","1210","0","test_block","poldrack-single-stim","184","266594","0.0-5.0-170.0","go-nogo","true","0","","false","<div class = centerbox><div  id = stim1></div></div>","32","32","750","","test","go","170","random","","",""
"","-1","-1","1250","0","test_block","poldrack-single-stim","185","267912","0.0-5.0-171.0","go-nogo","true","0","","false","<div class = centerbox><div  id = stim1></div></div>","32","32","750","","test","go","171","random","","",""
"","-1","-1","1343","0","test_block","poldrack-single-stim","186","269325","0.0-5.0-172.0","go-nogo","true","0","","false","<div class = centerbox><div  id = stim1></div></div>","32","32","750","","test","go","172","random","","",""
"","-1","-1","1207","0","test_block","poldrack-single-stim","187","270608","0.0-5.0-173.0","go-nogo","true","0","","false","<div class = centerbox><div  id = stim1></div></div>","32","32","750","","test","go","173","random","","",""
"","-1","-1","1453","0","test_block","poldrack-single-stim","188","272123","0.0-5.0-174.0","go-nogo","true","0","","false","<div class = centerbox><div  id = stim1></div></div>","32","32","750","","test","go","174","random","","",""
"","-1","-1","1129","0","test_block","poldrack-single-stim","189","273316","0.0-5.0-175.0","go-nogo","true","0","","false","<div class = centerbox><div  id = stim1></div></div>","32","32","750","","test","go","175","random","","",""
"","-1","-1","1368","0","test_block","poldrack-single-stim","190","274755","0.0-5.0-176.0","go-nogo","true","0","","false","<div class = centerbox><div  id = stim1></div></div>","32","32","750","","test","go","176","random","","",""
"","-1","-1","1286","0","test_block","poldrack-single-stim","191","276104","0.0-5.0-177.0","go-nogo","true","0","","false","<div class = centerbox><div  id = stim1></div></div>","32","32","750","","test","go","177","random","","",""
"","-1","-1","1058","0","test_block","poldrack-single-stim","192","277197","0.0-5.0-178.0","go-nogo","true","0","","false","<div class = centerbox><div  id = stim1></div></div>","32","32","750","","test","go","178","random","","",""
"","-1","-1","1262","0","test_block","poldrack-single-stim","193","278526","0.0-5.0-179.0","go-nogo","true","0","","false","<div class = centerbox><div  id = stim1></div></div>","32","32","750","","test","go","179","random","","",""
"","-1","-1","1249","0","test_block","poldrack-single-stim","194","279841","0.0-5.0-180.0","go-nogo","true","0","","false","<div class = centerbox><div  id = stim1></div></div>","32","32","750","","test","go","180","random","","",""
"","-1","-1","1470","0","test_block","poldrack-single-stim","195","281376","0.0-5.0-181.0","go-nogo","true","0","","false","<div class = centerbox><div  id = stim1></div></div>","32","32","750","","test","go","181","random","","",""
"","-1","-1","1173","0","test_block","poldrack-single-stim","196","282616","0.0-5.0-182.0","go-nogo","true","0","","false","<div class = centerbox><div  id = stim1></div></div>","32","32","750","","test","go","182","random","","",""
"","-1","-1","1472","0","test_block","poldrack-single-stim","197","284167","0.0-5.0-183.0","go-nogo","true","0","","false","<div class = centerbox><div  id = stim1></div></div>","32","32","750","","test","go","183","random","","",""
"","-1","-1","1043","0","test_block","poldrack-single-stim","198","285293","0.0-5.0-184.0","go-nogo","true","0","","false","<div class = centerbox><div  id = stim1></div></div>","32","32","750","","test","go","184","random","","",""
"","-1","-1","1493","0","test_block","poldrack-single-stim","199","286851","0.0-5.0-185.0","go-nogo","true","0","","false","<div class = centerbox><div  id = stim1></div></div>","32","32","750","","test","go","185","random","","",""
"","-1","-1","1363","0","test_block","poldrack-single-stim","200","288277","0.0-5.0-186.0","go-nogo","true","0","","true","<div class = centerbox><div  id = stim2></div></div>","-1","32","750","","test","nogo","186","random","","",""
"","-1","-1","1025","0","test_block","poldrack-single-stim","201","289366","0.0-5.0-187.0","go-nogo","true","0","","false","<div class = centerbox><div  id = stim1></div></div>","32","32","750","","test","go","187","random","","",""
"","-1","-1","1462","0","test_block","poldrack-single-stim","202","290894","0.0-5.0-188.0","go-nogo","true","0","","false","<div class = centerbox><div  id = stim1></div></div>","32","32","750","","test","go","188","random","","",""
"","-1","-1","1232","0","test_block","poldrack-single-stim","203","292200","0.0-5.0-189.0","go-nogo","true","0","","false","<div class = centerbox><div  id = stim1></div></div>","32","32","750","","test","go","189","random","","",""
"","-1","-1","1317","0","test_block","poldrack-single-stim","204","293582","0.0-5.0-190.0","go-nogo","true","0","","false","<div class = centerbox><div  id = stim1></div></div>","32","32","750","","test","go","190","random","","",""
"","-1","-1","1407","0","test_block","poldrack-single-stim","205","295054","0.0-5.0-191.0","go-nogo","true","0","","false","<div class = centerbox><div  id = stim1></div></div>","32","32","750","","test","go","191","random","","",""
"","-1","-1","1130","0","test_block","poldrack-single-stim","206","296234","0.0-5.0-192.0","go-nogo","true","0","","false","<div class = centerbox><div  id = stim1></div></div>","32","32","750","","test","go","192","random","","",""
"","-1","-1","1076","0","test_block","poldrack-single-stim","207","297374","0.0-5.0-193.0","go-nogo","true","0","","false","<div class = centerbox><div  id = stim1></div></div>","32","32","750","","test","go","193","random","","",""
"","-1","-1","1046","0","test_block","poldrack-single-stim","208","298485","0.0-5.0-194.0","go-nogo","true","0","","false","<div class = centerbox><div  id = stim1></div></div>","32","32","750","","test","go","194","random","","",""
"","-1","-1","1083","0","test_block","poldrack-single-stim","209","299634","0.0-5.0-195.0","go-nogo","true","0","","false","<div class = centerbox><div  id = stim1></div></div>","32","32","750","","test","go","195","random","","",""
"","-1","-1","1341","0","test_block","poldrack-single-stim","210","301046","0.0-5.0-196.0","go-nogo","true","0","","true","<div class = centerbox><div  id = stim2></div></div>","-1","32","750","","test","nogo","196","random","","",""
"","-1","-1","1053","0","test_block","poldrack-single-stim","211","302154","0.0-5.0-197.0","go-nogo","true","0","","false","<div class = centerbox><div  id = stim1></div></div>","32","32","750","","test","go","197","random","","",""
"","-1","-1","1192","0","test_block","poldrack-single-stim","212","303417","0.0-5.0-198.0","go-nogo","true","0","","false","<div class = centerbox><div  id = stim1></div></div>","32","32","750","","test","go","198","random","","",""
"","-1","-1","1303","0","test_block","poldrack-single-stim","213","304786","0.0-5.0-199.0","go-nogo","true","0","","false","<div class = centerbox><div  id = stim1></div></div>","32","32","750","","test","go","199","random","","",""
"","-1","-1","1283","0","test_block","poldrack-single-stim","214","306115","0.0-5.0-200.0","go-nogo","true","0","","false","<div class = centerbox><div  id = stim1></div></div>","32","32","750","","test","go","200","random","","",""
"","-1","-1","1465","0","test_block","poldrack-single-stim","215","307645","0.0-5.0-201.0","go-nogo","true","0","","false","<div class = centerbox><div  id = stim1></div></div>","32","32","750","","test","go","201","random","","",""
"","-1","-1","1103","0","test_block","poldrack-single-stim","216","308814","0.0-5.0-202.0","go-nogo","true","0","","true","<div class = centerbox><div  id = stim2></div></div>","-1","32","750","","test","nogo","202","random","","",""
"","-1","-1","1225","0","test_block","poldrack-single-stim","217","310112","0.0-5.0-203.0","go-nogo","true","0","","false","<div class = centerbox><div  id = stim1></div></div>","32","32","750","","test","go","203","random","","",""
"","-1","-1","1327","0","test_block","poldrack-single-stim","218","311510","0.0-5.0-204.0","go-nogo","true","0","","false","<div class = centerbox><div  id = stim1></div></div>","32","32","750","","test","go","204","random","","",""
"","-1","-1","1440","0","test_block","poldrack-single-stim","219","313013","0.0-5.0-205.0","go-nogo","true","0","","false","<div class = centerbox><div  id = stim1></div></div>","32","32","750","","test","go","205","random","","",""
"","-1","-1","1479","0","test_block","poldrack-single-stim","220","314545","0.0-5.0-206.0","go-nogo","true","0","","false","<div class = centerbox><div  id = stim1></div></div>","32","32","750","","test","go","206","random","","",""
"","-1","-1","1021","0","test_block","poldrack-single-stim","221","315629","0.0-5.0-207.0","go-nogo","true","0","","false","<div class = centerbox><div  id = stim1></div></div>","32","32","750","","test","go","207","random","","",""
"","-1","-1","1291","0","test_block","poldrack-single-stim","222","316985","0.0-5.0-208.0","go-nogo","true","0","","false","<div class = centerbox><div  id = stim1></div></div>","32","32","750","","test","go","208","random","","",""
"","-1","-1","1480","0","test_block","poldrack-single-stim","223","318523","0.0-5.0-209.0","go-nogo","true","0","","false","<div class = centerbox><div  id = stim1></div></div>","32","32","750","","test","go","209","random","","",""
"","-1","-1","1319","0","test_block","poldrack-single-stim","224","319886","0.0-5.0-210.0","go-nogo","true","0","","false","<div class = centerbox><div  id = stim1></div></div>","32","32","750","","test","go","210","random","","",""
"","-1","-1","1298","0","test_block","poldrack-single-stim","225","321248","0.0-5.0-211.0","go-nogo","true","0","","false","<div class = centerbox><div  id = stim1></div></div>","32","32","750","","test","go","211","random","","",""
"","-1","-1","1199","0","test_block","poldrack-single-stim","226","322523","0.0-5.0-212.0","go-nogo","true","0","","false","<div class = centerbox><div  id = stim1></div></div>","32","32","750","","test","go","212","random","","",""
"","-1","-1","1268","0","test_block","poldrack-single-stim","227","323864","0.0-5.0-213.0","go-nogo","true","0","","false","<div class = centerbox><div  id = stim1></div></div>","32","32","750","","test","go","213","random","","",""
"","-1","-1","1467","0","test_block","poldrack-single-stim","228","325401","0.0-5.0-214.0","go-nogo","true","0","","false","<div class = centerbox><div  id = stim1></div></div>","32","32","750","","test","go","214","random","","",""
"","-1","-1","1197","0","test_block","poldrack-single-stim","229","326662","0.0-5.0-215.0","go-nogo","true","0","","false","<div class = centerbox><div  id = stim1></div></div>","32","32","750","","test","go","215","random","","",""
"","-1","-1","1405","0","test_block","poldrack-single-stim","230","328132","0.0-5.0-216.0","go-nogo","true","0","","true","<div class = centerbox><div  id = stim2></div></div>","-1","32","750","","test","nogo","216","random","","",""
"","-1","-1","1396","0","test_block","poldrack-single-stim","231","329602","0.0-5.0-217.0","go-nogo","true","0","","false","<div class = centerbox><div  id = stim1></div></div>","32","32","750","","test","go","217","random","","",""
"","-1","-1","1431","0","test_block","poldrack-single-stim","232","331097","0.0-5.0-218.0","go-nogo","true","0","","false","<div class = centerbox><div  id = stim1></div></div>","32","32","750","","test","go","218","random","","",""
"","-1","-1","1277","0","test_block","poldrack-single-stim","233","332442","0.0-5.0-219.0","go-nogo","true","0","","false","<div class = centerbox><div  id = stim1></div></div>","32","32","750","","test","go","219","random","","",""
"","-1","-1","1350","0","test_block","poldrack-single-stim","234","333864","0.0-5.0-220.0","go-nogo","true","0","","false","<div class = centerbox><div  id = stim1></div></div>","32","32","750","","test","go","220","random","","",""
"","-1","-1","1453","0","test_block","poldrack-single-stim","235","335382","0.0-5.0-221.0","go-nogo","true","0","","false","<div class = centerbox><div  id = stim1></div></div>","32","32","750","","test","go","221","random","","",""
"","-1","-1","1494","0","test_block","poldrack-single-stim","236","336949","0.0-5.0-222.0","go-nogo","true","0","","false","<div class = centerbox><div  id = stim1></div></div>","32","32","750","","test","go","222","random","","",""
"","-1","-1","1375","0","test_block","poldrack-single-stim","237","338389","0.0-5.0-223.0","go-nogo","true","0","","false","<div class = centerbox><div  id = stim1></div></div>","32","32","750","","test","go","223","random","","",""
"","-1","-1","1424","0","test_block","poldrack-single-stim","238","339876","0.0-5.0-224.0","go-nogo","true","0","","false","<div class = centerbox><div  id = stim1></div></div>","32","32","750","","test","go","224","random","","",""
"","-1","-1","1384","0","test_block","poldrack-single-stim","239","341327","0.0-5.0-225.0","go-nogo","true","0","","false","<div class = centerbox><div  id = stim1></div></div>","32","32","750","","test","go","225","random","","",""
"","-1","-1","1377","0","test_block","poldrack-single-stim","240","342763","0.0-5.0-226.0","go-nogo","true","0","","false","<div class = centerbox><div  id = stim1></div></div>","32","32","750","","test","go","226","random","","",""
"","-1","-1","1041","0","test_block","poldrack-single-stim","241","343864","0.0-5.0-227.0","go-nogo","true","0","","false","<div class = centerbox><div  id = stim1></div></div>","32","32","750","","test","go","227","random","","",""
"","-1","-1","1327","0","test_block","poldrack-single-stim","242","345243","0.0-5.0-228.0","go-nogo","true","0","","false","<div class = centerbox><div  id = stim1></div></div>","32","32","750","","test","go","228","random","","",""
"","-1","-1","1053","0","test_block","poldrack-single-stim","243","346360","0.0-5.0-229.0","go-nogo","true","0","","false","<div class = centerbox><div  id = stim1></div></div>","32","32","750","","test","go","229","random","","",""
"","-1","-1","1445","0","test_block","poldrack-single-stim","244","347865","0.0-5.0-230.0","go-nogo","true","0","","false","<div class = centerbox><div  id = stim1></div></div>","32","32","750","","test","go","230","random","","",""
"","-1","-1","1206","0","test_block","poldrack-single-stim","245","349134","0.0-5.0-231.0","go-nogo","true","0","","false","<div class = centerbox><div  id = stim1></div></div>","32","32","750","","test","go","231","random","","",""
"","-1","-1","1441","0","test_block","poldrack-single-stim","246","350641","0.0-5.0-232.0","go-nogo","true","0","","false","<div class = centerbox><div  id = stim1></div></div>","32","32","750","","test","go","232","random","","",""
"","-1","-1","1090","0","test_block","poldrack-single-stim","247","351778","0.0-5.0-233.0","go-nogo","true","0","","false","<div class = centerbox><div  id = stim1></div></div>","32","32","750","","test","go","233","random","","",""
"","-1","-1","1063","0","test_block","poldrack-single-stim","248","352929","0.0-5.0-234.0","go-nogo","true","0","","true","<div class = centerbox><div  id = stim2></div></div>","-1","32","750","","test","nogo","234","random","","",""
"","-1","-1","1000","0","test_block","poldrack-single-stim","249","353973","0.0-5.0-235.0","go-nogo","true","0","","true","<div class = centerbox><div  id = stim2></div></div>","-1","32","750","","test","nogo","235","random","","",""
"","-1","-1","1218","0","test_block","poldrack-single-stim","250","355235","0.0-5.0-236.0","go-nogo","true","0","","false","<div class = centerbox><div  id = stim1></div></div>","32","32","750","","test","go","236","random","","",""
"","-1","-1","1319","0","test_block","poldrack-single-stim","251","356624","0.0-5.0-237.0","go-nogo","true","0","","false","<div class = centerbox><div  id = stim1></div></div>","32","32","750","","test","go","237","random","","",""
"","-1","-1","1323","0","test_block","poldrack-single-stim","252","357997","0.0-5.0-238.0","go-nogo","true","0","","false","<div class = centerbox><div  id = stim1></div></div>","32","32","750","","test","go","238","random","","",""
"","-1","-1","1459","0","test_block","poldrack-single-stim","253","359525","0.0-5.0-239.0","go-nogo","true","0","","false","<div class = centerbox><div  id = stim1></div></div>","32","32","750","","test","go","239","random","","",""
"","-1","-1","1090","0","test_block","poldrack-single-stim","254","360682","0.0-5.0-240.0","go-nogo","true","0","","false","<div class = centerbox><div  id = stim1></div></div>","32","32","750","","test","go","240","random","","",""
"","-1","-1","1386","0","test_block","poldrack-single-stim","255","362130","0.0-5.0-241.0","go-nogo","true","0","","true","<div class = centerbox><div  id = stim2></div></div>","-1","32","750","","test","nogo","241","random","","",""
"","-1","-1","1068","0","test_block","poldrack-single-stim","256","363261","0.0-5.0-242.0","go-nogo","true","0","","false","<div class = centerbox><div  id = stim1></div></div>","32","32","750","","test","go","242","random","","",""
"","-1","-1","1380","0","test_block","poldrack-single-stim","257","364710","0.0-5.0-243.0","go-nogo","true","0","","false","<div class = centerbox><div  id = stim1></div></div>","32","32","750","","test","go","243","random","","",""
"","-1","-1","1277","0","test_block","poldrack-single-stim","258","366032","0.0-5.0-244.0","go-nogo","true","0","","false","<div class = centerbox><div  id = stim1></div></div>","32","32","750","","test","go","244","random","","",""
"","-1","-1","1453","0","test_block","poldrack-single-stim","259","367545","0.0-5.0-245.0","go-nogo","true","0","","false","<div class = centerbox><div  id = stim1></div></div>","32","32","750","","test","go","245","random","","",""
"","-1","-1","1320","0","test_block","poldrack-single-stim","260","368929","0.0-5.0-246.0","go-nogo","true","0","","false","<div class = centerbox><div  id = stim1></div></div>","32","32","750","","test","go","246","random","","",""
"","-1","-1","1070","0","test_block","poldrack-single-stim","261","370061","0.0-5.0-247.0","go-nogo","true","0","","false","<div class = centerbox><div  id = stim1></div></div>","32","32","750","","test","go","247","random","","",""
"","-1","-1","1497","0","test_block","poldrack-single-stim","262","371619","0.0-5.0-248.0","go-nogo","true","0","","false","<div class = centerbox><div  id = stim1></div></div>","32","32","750","","test","go","248","random","","",""
"","-1","-1","1441","0","test_block","poldrack-single-stim","263","373133","0.0-5.0-249.0","go-nogo","true","0","","false","<div class = centerbox><div  id = stim1></div></div>","32","32","750","","test","go","249","random","","",""
"","-1","-1","1007","0","test_block","poldrack-single-stim","264","374215","0.0-5.0-250.0","go-nogo","true","0","","false","<div class = centerbox><div  id = stim1></div></div>","32","32","750","","test","go","250","random","","",""
"","-1","-1","1058","0","test_block","poldrack-single-stim","265","375335","0.0-5.0-251.0","go-nogo","true","0","","false","<div class = centerbox><div  id = stim1></div></div>","32","32","750","","test","go","251","random","","",""
"","-1","-1","1213","0","test_block","poldrack-single-stim","266","376618","0.0-5.0-252.0","go-nogo","true","0","","true","<div class = centerbox><div  id = stim2></div></div>","-1","32","750","","test","nogo","252","random","","",""
"","-1","-1","1430","0","test_block","poldrack-single-stim","267","378108","0.0-5.0-253.0","go-nogo","true","0","","false","<div class = centerbox><div  id = stim1></div></div>","32","32","750","","test","go","253","random","","",""
"","-1","-1","1350","0","test_block","poldrack-single-stim","268","379520","0.0-5.0-254.0","go-nogo","true","0","","false","<div class = centerbox><div  id = stim1></div></div>","32","32","750","","test","go","254","random","","",""
"","-1","-1","1100","0","test_block","poldrack-single-stim","269","380681","0.0-5.0-255.0","go-nogo","true","0","","true","<div class = centerbox><div  id = stim2></div></div>","-1","32","750","","test","nogo","255","random","","",""
"","-1","-1","1228","0","test_block","poldrack-single-stim","270","381973","0.0-5.0-256.0","go-nogo","true","0","","false","<div class = centerbox><div  id = stim1></div></div>","32","32","750","","test","go","256","random","","",""
"","-1","-1","1237","0","test_block","poldrack-single-stim","271","383278","0.0-5.0-257.0","go-nogo","true","0","","false","<div class = centerbox><div  id = stim1></div></div>","32","32","750","","test","go","257","random","","",""
"","-1","-1","1345","0","test_block","poldrack-single-stim","272","384684","0.0-5.0-258.0","go-nogo","true","0","","false","<div class = centerbox><div  id = stim1></div></div>","32","32","750","","test","go","258","random","","",""
"","-1","-1","1484","0","test_block","poldrack-single-stim","273","386216","0.0-5.0-259.0","go-nogo","true","0","","false","<div class = centerbox><div  id = stim1></div></div>","32","32","750","","test","go","259","random","","",""
"","-1","-1","1241","0","test_block","poldrack-single-stim","274","387524","0.0-5.0-260.0","go-nogo","true","0","","false","<div class = centerbox><div  id = stim1></div></div>","32","32","750","","test","go","260","random","","",""
"","-1","-1","1423","0","test_block","poldrack-single-stim","275","389013","0.0-5.0-261.0","go-nogo","true","0","","false","<div class = centerbox><div  id = stim1></div></div>","32","32","750","","test","go","261","random","","",""
"","-1","-1","1020","0","test_block","poldrack-single-stim","276","390090","0.0-5.0-262.0","go-nogo","true","0","","false","<div class = centerbox><div  id = stim1></div></div>","32","32","750","","test","go","262","random","","",""
"","-1","-1","1487","0","test_block","poldrack-single-stim","277","391643","0.0-5.0-263.0","go-nogo","true","0","","false","<div class = centerbox><div  id = stim1></div></div>","32","32","750","","test","go","263","random","","",""
"","-1","-1","1149","0","test_block","poldrack-single-stim","278","392857","0.0-5.0-264.0","go-nogo","true","0","","false","<div class = centerbox><div  id = stim1></div></div>","32","32","750","","test","go","264","random","","",""
"","-1","-1","1407","0","test_block","poldrack-single-stim","279","394315","0.0-5.0-265.0","go-nogo","true","0","","false","<div class = centerbox><div  id = stim1></div></div>","32","32","750","","test","go","265","random","","",""
"","-1","-1","1273","0","test_block","poldrack-single-stim","280","395651","0.0-5.0-266.0","go-nogo","true","0","","false","<div class = centerbox><div  id = stim1></div></div>","32","32","750","","test","go","266","random","","",""
"","-1","-1","1038","0","test_block","poldrack-single-stim","281","396751","0.0-5.0-267.0","go-nogo","true","0","","false","<div class = centerbox><div  id = stim1></div></div>","32","32","750","","test","go","267","random","","",""
"","-1","-1","1332","0","test_block","poldrack-single-stim","282","398150","0.0-5.0-268.0","go-nogo","true","0","","false","<div class = centerbox><div  id = stim1></div></div>","32","32","750","","test","go","268","random","","",""
"","-1","-1","1059","0","test_block","poldrack-single-stim","283","399274","0.0-5.0-269.0","go-nogo","true","0","","false","<div class = centerbox><div  id = stim1></div></div>","32","32","750","","test","go","269","random","","",""
"","-1","-1","1465","0","test_block","poldrack-single-stim","284","400801","0.0-5.0-270.0","go-nogo","true","0","","false","<div class = centerbox><div  id = stim1></div></div>","32","32","750","","test","go","270","random","","",""
"","-1","-1","1338","0","test_block","poldrack-single-stim","285","402199","0.0-5.0-271.0","go-nogo","true","0","","false","<div class = centerbox><div  id = stim1></div></div>","32","32","750","","test","go","271","random","","",""
"","-1","-1","1396","0","test_block","poldrack-single-stim","286","403657","0.0-5.0-272.0","go-nogo","true","0","","false","<div class = centerbox><div  id = stim1></div></div>","32","32","750","","test","go","272","random","","",""
"","-1","-1","1318","0","test_block","poldrack-single-stim","287","405037","0.0-5.0-273.0","go-nogo","true","0","","false","<div class = centerbox><div  id = stim1></div></div>","32","32","750","","test","go","273","random","","",""
"","-1","-1","1489","0","test_block","poldrack-single-stim","288","406588","0.0-5.0-274.0","go-nogo","true","0","","true","<div class = centerbox><div  id = stim2></div></div>","-1","32","750","","test","nogo","274","random","","",""
"","-1","-1","1136","0","test_block","poldrack-single-stim","289","407801","0.0-5.0-275.0","go-nogo","true","0","","false","<div class = centerbox><div  id = stim1></div></div>","32","32","750","","test","go","275","random","","",""
"","-1","-1","1175","0","test_block","poldrack-single-stim","290","409041","0.0-5.0-276.0","go-nogo","true","0","","true","<div class = centerbox><div  id = stim2></div></div>","-1","32","750","","test","nogo","276","random","","",""
"","-1","-1","1024","0","test_block","poldrack-single-stim","291","410115","0.0-5.0-277.0","go-nogo","true","0","","false","<div class = centerbox><div  id = stim1></div></div>","32","32","750","","test","go","277","random","","",""
"","-1","-1","1152","0","test_block","poldrack-single-stim","292","411331","0.0-5.0-278.0","go-nogo","true","0","","false","<div class = centerbox><div  id = stim1></div></div>","32","32","750","","test","go","278","random","","",""
"","-1","-1","1124","0","test_block","poldrack-single-stim","293","412528","0.0-5.0-279.0","go-nogo","true","0","","false","<div class = centerbox><div  id = stim1></div></div>","32","32","750","","test","go","279","random","","",""
"","-1","-1","1088","0","test_block","poldrack-single-stim","294","413678","0.0-5.0-280.0","go-nogo","true","0","","false","<div class = centerbox><div  id = stim1></div></div>","32","32","750","","test","go","280","random","","",""
"","-1","-1","1152","0","test_block","poldrack-single-stim","295","414908","0.0-5.0-281.0","go-nogo","true","0","","false","<div class = centerbox><div  id = stim1></div></div>","32","32","750","","test","go","281","random","","",""
"","-1","-1","1367","0","test_block","poldrack-single-stim","296","416327","0.0-5.0-282.0","go-nogo","true","0","","false","<div class = centerbox><div  id = stim1></div></div>","32","32","750","","test","go","282","random","","",""
"","-1","-1","1406","0","test_block","poldrack-single-stim","297","417793","0.0-5.0-283.0","go-nogo","true","0","","false","<div class = centerbox><div  id = stim1></div></div>","32","32","750","","test","go","283","random","","",""
"","-1","-1","1172","0","test_block","poldrack-single-stim","298","419030","0.0-5.0-284.0","go-nogo","true","0","","false","<div class = centerbox><div  id = stim1></div></div>","32","32","750","","test","go","284","random","","",""
"","-1","-1","1068","0","test_block","poldrack-single-stim","299","420161","0.0-5.0-285.0","go-nogo","true","0","","false","<div class = centerbox><div  id = stim1></div></div>","32","32","750","","test","go","285","random","","",""
"","-1","-1","1060","0","test_block","poldrack-single-stim","300","421282","0.0-5.0-286.0","go-nogo","true","0","","false","<div class = centerbox><div  id = stim1></div></div>","32","32","750","","test","go","286","random","","",""
"","-1","-1","1048","0","test_block","poldrack-single-stim","301","422390","0.0-5.0-287.0","go-nogo","true","0","","false","<div class = centerbox><div  id = stim1></div></div>","32","32","750","","test","go","287","random","","",""
"","-1","-1","1171","0","test_block","poldrack-single-stim","302","423622","0.0-5.0-288.0","go-nogo","true","0","","false","<div class = centerbox><div  id = stim1></div></div>","32","32","750","","test","go","288","random","","",""
"","-1","-1","1300","0","test_block","poldrack-single-stim","303","424982","0.0-5.0-289.0","go-nogo","true","0","","false","<div class = centerbox><div  id = stim1></div></div>","32","32","750","","test","go","289","random","","",""
"","-1","-1","1004","0","test_block","poldrack-single-stim","304","426034","0.0-5.0-290.0","go-nogo","true","0","","true","<div class = centerbox><div  id = stim2></div></div>","-1","32","750","","test","nogo","290","random","","",""
"","-1","-1","1093","0","test_block","poldrack-single-stim","305","427187","0.0-5.0-291.0","go-nogo","true","0","","false","<div class = centerbox><div  id = stim1></div></div>","32","32","750","","test","go","291","random","","",""
"","-1","-1","1155","0","test_block","poldrack-single-stim","306","428402","0.0-5.0-292.0","go-nogo","true","0","","false","<div class = centerbox><div  id = stim1></div></div>","32","32","750","","test","go","292","random","","",""
"","-1","-1","1159","0","test_block","poldrack-single-stim","307","429624","0.0-5.0-293.0","go-nogo","true","0","","false","<div class = centerbox><div  id = stim1></div></div>","32","32","750","","test","go","293","random","","",""
"","-1","-1","1164","0","test_block","poldrack-single-stim","308","430849","0.0-5.0-294.0","go-nogo","true","0","","false","<div class = centerbox><div  id = stim1></div></div>","32","32","750","","test","go","294","random","","",""
"","-1","-1","1365","0","test_block","poldrack-single-stim","309","432278","0.0-5.0-295.0","go-nogo","true","0","","false","<div class = centerbox><div  id = stim1></div></div>","32","32","750","","test","go","295","random","","",""
"","-1","-1","1483","0","test_block","poldrack-single-stim","310","433829","0.0-5.0-296.0","go-nogo","true","0","","true","<div class = centerbox><div  id = stim2></div></div>","-1","32","750","","test","nogo","296","random","","",""
"","-1","-1","1256","0","test_block","poldrack-single-stim","311","435146","0.0-5.0-297.0","go-nogo","true","0","","false","<div class = centerbox><div  id = stim1></div></div>","32","32","750","","test","go","297","random","","",""
"","-1","-1","1049","0","test_block","poldrack-single-stim","312","436255","0.0-5.0-298.0","go-nogo","true","0","","true","<div class = centerbox><div  id = stim2></div></div>","-1","32","750","","test","nogo","298","random","","",""
"","-1","-1","1356","0","test_block","poldrack-single-stim","313","437673","0.0-5.0-299.0","go-nogo","true","0","","false","<div class = centerbox><div  id = stim1></div></div>","32","32","750","","test","go","299","random","","",""
"","-1","-1","1012","0","test_block","poldrack-single-stim","314","438751","0.0-5.0-300.0","go-nogo","true","0","","false","<div class = centerbox><div  id = stim1></div></div>","32","32","750","","test","go","300","random","","",""
"","-1","-1","1439","0","test_block","poldrack-single-stim","315","440228","0.0-5.0-301.0","go-nogo","true","0","","false","<div class = centerbox><div  id = stim1></div></div>","32","32","750","","test","go","301","random","","",""
"","-1","-1","1163","0","test_block","poldrack-single-stim","316","441450","0.0-5.0-302.0","go-nogo","true","0","","false","<div class = centerbox><div  id = stim1></div></div>","32","32","750","","test","go","302","random","","",""
"","-1","-1","1291","0","test_block","poldrack-single-stim","317","442809","0.0-5.0-303.0","go-nogo","true","0","","false","<div class = centerbox><div  id = stim1></div></div>","32","32","750","","test","go","303","random","","",""
"","-1","-1","1233","0","test_block","poldrack-single-stim","318","444106","0.0-5.0-304.0","go-nogo","true","0","","false","<div class = centerbox><div  id = stim1></div></div>","32","32","750","","test","go","304","random","","",""
"","-1","-1","1254","0","test_block","poldrack-single-stim","319","445406","0.0-5.0-305.0","go-nogo","true","0","","false","<div class = centerbox><div  id = stim1></div></div>","32","32","750","","test","go","305","random","","",""
"","-1","-1","1489","0","test_block","poldrack-single-stim","320","446932","0.0-5.0-306.0","go-nogo","true","0","","false","<div class = centerbox><div  id = stim1></div></div>","32","32","750","","test","go","306","random","","",""
"","-1","-1","1354","0","test_block","poldrack-single-stim","321","448340","0.0-5.0-307.0","go-nogo","true","0","","false","<div class = centerbox><div  id = stim1></div></div>","32","32","750","","test","go","307","random","","",""
"","-1","-1","1158","0","test_block","poldrack-single-stim","322","449589","0.0-5.0-308.0","go-nogo","true","0","","false","<div class = centerbox><div  id = stim1></div></div>","32","32","750","","test","go","308","random","","",""
"","-1","-1","1014","0","test_block","poldrack-single-stim","323","450666","0.0-5.0-309.0","go-nogo","true","0","","false","<div class = centerbox><div  id = stim1></div></div>","32","32","750","","test","go","309","random","","",""
"","-1","-1","1431","0","test_block","poldrack-single-stim","324","452157","0.0-5.0-310.0","go-nogo","true","0","","true","<div class = centerbox><div  id = stim2></div></div>","-1","32","750","","test","nogo","310","random","","",""
"","-1","-1","1338","0","test_block","poldrack-single-stim","325","453559","0.0-5.0-311.0","go-nogo","true","0","","false","<div class = centerbox><div  id = stim1></div></div>","32","32","750","","test","go","311","random","","",""
"","-1","-1","1315","0","test_block","poldrack-single-stim","326","454937","0.0-5.0-312.0","go-nogo","true","0","","true","<div class = centerbox><div  id = stim2></div></div>","-1","32","750","","test","nogo","312","random","","",""
"","-1","-1","1292","0","test_block","poldrack-single-stim","327","456292","0.0-5.0-313.0","go-nogo","true","0","","false","<div class = centerbox><div  id = stim1></div></div>","32","32","750","","test","go","313","random","","",""
"","-1","-1","1434","0","test_block","poldrack-single-stim","328","457793","0.0-5.0-314.0","go-nogo","true","0","","false","<div class = centerbox><div  id = stim1></div></div>","32","32","750","","test","go","314","random","","",""
"","-1","-1","1355","0","test_block","poldrack-single-stim","329","459208","0.0-5.0-315.0","go-nogo","true","0","","false","<div class = centerbox><div  id = stim1></div></div>","32","32","750","","test","go","315","random","","",""
"","-1","-1","1118","0","test_block","poldrack-single-stim","330","460389","0.0-5.0-316.0","go-nogo","true","0","","false","<div class = centerbox><div  id = stim1></div></div>","32","32","750","","test","go","316","random","","",""
"","-1","-1","1499","0","test_block","poldrack-single-stim","331","461955","0.0-5.0-317.0","go-nogo","true","0","","false","<div class = centerbox><div  id = stim1></div></div>","32","32","750","","test","go","317","random","","",""
"","-1","-1","1355","0","test_block","poldrack-single-stim","332","463384","0.0-5.0-318.0","go-nogo","true","0","","false","<div class = centerbox><div  id = stim1></div></div>","32","32","750","","test","go","318","random","","",""
"","-1","-1","1136","0","test_block","poldrack-single-stim","333","464586","0.0-5.0-319.0","go-nogo","true","0","","true","<div class = centerbox><div  id = stim2></div></div>","-1","32","750","","test","nogo","319","random","","",""
"","-1","-1","1390","0","test_block","poldrack-single-stim","334","466039","0.0-5.0-320.0","go-nogo","true","0","","false","<div class = centerbox><div  id = stim1></div></div>","32","32","750","","test","go","320","random","","",""
"","-1","-1","1225","0","test_block","poldrack-single-stim","335","467326","0.0-5.0-321.0","go-nogo","true","0","","false","<div class = centerbox><div  id = stim1></div></div>","32","32","750","","test","go","321","random","","",""
"","-1","-1","1156","0","test_block","poldrack-single-stim","336","468545","0.0-5.0-322.0","go-nogo","true","0","","false","<div class = centerbox><div  id = stim1></div></div>","32","32","750","","test","go","322","random","","",""
"","-1","-1","1184","0","test_block","poldrack-single-stim","337","469788","0.0-5.0-323.0","go-nogo","true","0","","false","<div class = centerbox><div  id = stim1></div></div>","32","32","750","","test","go","323","random","","",""
"","-1","-1","1034","0","test_block","poldrack-single-stim","338","470888","0.0-5.0-324.0","go-nogo","true","0","","false","<div class = centerbox><div  id = stim1></div></div>","32","32","750","","test","go","324","random","","",""
"","-1","-1","1281","0","test_block","poldrack-single-stim","339","472232","0.0-5.0-325.0","go-nogo","true","0","","true","<div class = centerbox><div  id = stim2></div></div>","-1","32","750","","test","nogo","325","random","","",""
"","-1","-1","1179","0","test_block","poldrack-single-stim","340","473476","0.0-5.0-326.0","go-nogo","true","0","","false","<div class = centerbox><div  id = stim1></div></div>","32","32","750","","test","go","326","random","","",""
"","-1","-1","1154","0","test_block","poldrack-single-stim","341","474693","0.0-5.0-327.0","go-nogo","true","0","","false","<div class = centerbox><div  id = stim1></div></div>","32","32","750","","test","go","327","random","","",""
"","-1","-1","1050","0","test_block","poldrack-single-stim","342","475773","0.0-5.0-328.0","go-nogo","true","0","","false","<div class = centerbox><div  id = stim1></div></div>","32","32","750","","test","go","328","random","","",""
"","-1","-1","1389","0","test_block","poldrack-single-stim","343","477219","0.0-5.0-329.0","go-nogo","true","0","","false","<div class = centerbox><div  id = stim1></div></div>","32","32","750","","test","go","329","random","","",""
"","-1","-1","1211","0","test_block","poldrack-single-stim","344","478489","0.0-5.0-330.0","go-nogo","true","0","","false","<div class = centerbox><div  id = stim1></div></div>","32","32","750","","test","go","330","random","","",""
"","-1","-1","1424","0","test_block","poldrack-single-stim","345","479975","0.0-5.0-331.0","go-nogo","true","0","","false","<div class = centerbox><div  id = stim1></div></div>","32","32","750","","test","go","331","random","","",""
"","-1","-1","1067","0","test_block","poldrack-single-stim","346","481108","0.0-5.0-332.0","go-nogo","true","0","","false","<div class = centerbox><div  id = stim1></div></div>","32","32","750","","test","go","332","random","","",""
"","-1","-1","1150","0","test_block","poldrack-single-stim","347","482320","0.0-5.0-333.0","go-nogo","true","0","","true","<div class = centerbox><div  id = stim2></div></div>","-1","32","750","","test","nogo","333","random","","",""
"","-1","-1","1327","0","test_block","poldrack-single-stim","348","483708","0.0-5.0-334.0","go-nogo","true","0","","false","<div class = centerbox><div  id = stim1></div></div>","32","32","750","","test","go","334","random","","",""
"","-1","-1","1261","0","test_block","poldrack-single-stim","349","485032","0.0-5.0-335.0","go-nogo","true","0","","false","<div class = centerbox><div  id = stim1></div></div>","32","32","750","","test","go","335","random","","",""
"","-1","-1","1356","0","test_block","poldrack-single-stim","350","486450","0.0-5.0-336.0","go-nogo","true","0","","false","<div class = centerbox><div  id = stim1></div></div>","32","32","750","","test","go","336","random","","",""
"","-1","-1","1322","0","test_block","poldrack-single-stim","351","487835","0.0-5.0-337.0","go-nogo","true","0","","false","<div class = centerbox><div  id = stim1></div></div>","32","32","750","","test","go","337","random","","",""
"","-1","-1","1051","0","test_block","poldrack-single-stim","352","488941","0.0-5.0-338.0","go-nogo","true","0","","false","<div class = centerbox><div  id = stim1></div></div>","32","32","750","","test","go","338","random","","",""
"","-1","-1","1214","0","test_block","poldrack-single-stim","353","490215","0.0-5.0-339.0","go-nogo","true","0","","false","<div class = centerbox><div  id = stim1></div></div>","32","32","750","","test","go","339","random","","",""
"","-1","-1","1426","0","test_block","poldrack-single-stim","354","491702","0.0-5.0-340.0","go-nogo","true","0","","false","<div class = centerbox><div  id = stim1></div></div>","32","32","750","","test","go","340","random","","",""
"","-1","-1","1082","0","test_block","poldrack-single-stim","355","492876","0.0-5.0-341.0","go-nogo","true","0","","false","<div class = centerbox><div  id = stim1></div></div>","32","32","750","","test","go","341","random","","",""
"","-1","-1","1176","0","test_block","poldrack-single-stim","356","494113","0.0-5.0-342.0","go-nogo","true","0","","false","<div class = centerbox><div  id = stim1></div></div>","32","32","750","","test","go","342","random","","",""
"","-1","-1","1482","0","test_block","poldrack-single-stim","357","495668","0.0-5.0-343.0","go-nogo","true","0","","false","<div class = centerbox><div  id = stim1></div></div>","32","32","750","","test","go","343","random","","",""
"","-1","-1","1362","0","test_block","poldrack-single-stim","358","497076","0.0-5.0-344.0","go-nogo","true","0","","false","<div class = centerbox><div  id = stim1></div></div>","32","32","750","","test","go","344","random","","",""
"","-1","-1","1396","0","test_block","poldrack-single-stim","359","498534","0.0-5.0-345.0","go-nogo","true","0","","false","<div class = centerbox><div  id = stim1></div></div>","32","32","750","","test","go","345","random","","",""
"","-1","-1","1490","0","test_block","poldrack-single-stim","360","500083","0.0-5.0-346.0","go-nogo","true","0","","false","<div class = centerbox><div  id = stim1></div></div>","32","32","750","","test","go","346","random","","",""
"","-1","-1","1418","0","test_block","poldrack-single-stim","361","501532","0.0-5.0-347.0","go-nogo","true","0","","false","<div class = centerbox><div  id = stim1></div></div>","32","32","750","","test","go","347","random","","",""
"","-1","-1","1401","0","test_block","poldrack-single-stim","362","502996","0.0-5.0-348.0","go-nogo","true","0","","false","<div class = centerbox><div  id = stim1></div></div>","32","32","750","","test","go","348","random","","",""
"","-1","-1","1368","0","test_block","poldrack-single-stim","363","504427","0.0-5.0-349.0","go-nogo","true","0","","true","<div class = centerbox><div  id = stim2></div></div>","-1","32","750","","test","nogo","349","random","","",""
"","37764","","","","post task questions","survey-text","364","542258","0.0-7.0","go-nogo","true","0","","","","","","","","","","","","{""Q0"":""color change the eye contact to lesson good one i like it"",""Q1"":""good one""}","",""
"<div class = centerbox><p class = center-block-text>Thanks for completing this task!</p><p class = center-block-text>Insert the following code to collect your payment at Amazon Mechanical Turk:</p><p class = center-block-text>161849317</p><p class = center-block-text>Press <strong>enter</strong> to continue.</p></div>","6405","13","6405","0","end","poldrack-text","365","549667","0.0-8.0","go-nogo","true","0","","","","","","","","","","","","","161849317","false"
